timestamp,accX,accY,accZ,gyroX,gyroY,gyroZ
0,9.7334,1.1113,2.1459,11.2696,2.9913,-1.6696
5,9.7334,1.0346,2.031,11.1304,3.2,-1.7391
10,9.695,1.1113,2.2226,10.7826,3.2696,-1.6696
15,9.6567,1.1879,2.1459,9.8783,3.2696,-1.5304
20,9.6567,1.2263,2.2609,8.9043,3.3391,-1.4609
25,9.695,1.1879,2.3375,7.7217,3.2696,-1.2522
30,9.6567,1.2646,2.6058,6.4696,3.1304,-1.1826
35,9.6184,1.2263,2.4142,5.2174,2.9217,-1.0435
40,9.5801,1.2646,2.4142,3.9652,2.7826,-0.9739
45,9.6567,1.1879,2.3759,2.7826,2.2957,-0.7652
50,9.7334,0.9963,2.1843,2.0174,2.1565,-0.7652
55,9.6567,1.1496,2.3375,1.3913,2.0174,-0.6957
60,9.6567,1.0346,2.2992,0.9043,1.8783,-0.5565
65,9.7717,0.9963,2.2226,0.6261,1.6,-0.6261
70,9.8866,1.0346,2.1459,0.4174,1.3913,-0.4174
75,9.4651,1.1113,1.5711,0.2087,1.2522,-0.3478
80,9.8483,1.073,2.1459,-0.2087,1.0435,-0.3478
85,9.7334,1.0346,2.2609,-0.5565,0.7652,-0.2087
90,9.8866,0.958,2.0693,-0.9043,0.487,-0.2087
95,9.8866,0.958,2.2992,-1.113,0.2087,-0.0696
100,9.8483,1.073,2.1076,-1.1826,-0.1391,-0.0696
105,9.81,0.958,2.2226,-1.3217,-0.2087,-0.1391
110,9.8483,0.9963,2.2226,-1.3217,-0.4174,-0.1391
115,9.7334,0.9963,2.2992,-1.2522,-0.6261,-0.1391
120,9.8483,0.8814,2.1459,-1.2522,-0.6957,0.0
125,9.7717,1.0346,2.2226,-1.3217,-0.8348,-0.0696
130,9.7717,0.843,2.1459,-1.3217,-1.0435,0.0696
135,9.81,0.8047,2.2992,-1.4609,-1.2522,0.0696
140,9.695,0.9963,2.1459,-1.6,-1.4609,0.0
145,9.7334,0.9197,2.1843,-1.8783,-1.7391,-0.0696
150,9.695,0.8047,2.1843,-2.1565,-1.8783,-0.0696
155,9.695,0.8047,2.1843,-2.087,-2.0174,-0.2087
160,9.695,0.9197,2.1076,-1.8783,-1.9478,-0.1391
165,9.7717,0.6514,2.1459,-1.3913,-1.8783,-0.487
170,9.6567,0.8047,2.1459,-0.6261,-1.9478,-0.6957
175,9.6567,0.6898,2.031,0.3478,-2.0174,-0.9739
180,9.695,0.6898,2.1459,1.4609,-2.1565,-1.0435
185,9.7717,0.843,1.9927,2.713,-1.9478,-1.1826
190,9.925,0.7281,1.9927,3.687,-1.4609,-1.2522
195,9.8483,0.8814,1.8394,4.5217,-0.7652,-1.2522
200,9.695,0.9197,1.8777,5.1478,-0.487,-1.3913
205,9.81,0.8814,1.916,5.5652,0.0,-1.5304
210,9.81,0.9197,1.9927,5.8435,0.2783,-1.6696
215,9.7717,1.073,1.916,5.9826,0.6261,-1.7391
220,9.695,1.1113,2.031,6.0522,0.9043,-1.6696
225,9.8483,1.1113,1.9543,6.1913,1.2522,-1.7391
230,9.8483,1.1113,2.1076,6.4,1.4609,-1.7391
235,9.8866,1.073,2.031,6.3304,1.5304,-1.6
240,9.8483,1.1113,2.031,6.2609,1.8087,-1.6
245,9.8483,1.073,1.9543,6.1913,2.0174,-1.6696
250,9.7717,1.0346,1.8777,5.9826,2.2261,-1.7391
255,9.81,1.073,2.1076,5.8435,2.5043,-1.8087
260,9.8866,0.9197,2.1459,5.4957,2.713,-1.8783
265,9.8483,1.1879,2.1076,5.1478,2.7826,-1.8783
270,9.8483,1.073,1.8777,4.8696,2.7826,-1.8783
275,9.81,1.0346,2.1076,4.5913,2.8522,-1.7391
280,9.81,0.9197,2.1459,4.5217,2.8522,-1.7391
285,9.81,1.0346,2.0693,4.2435,2.713,-1.8087
290,9.8483,1.0346,2.1076,4.0348,2.713,-1.7391
295,9.81,1.1113,2.2992,3.9652,2.7826,-1.6
300,9.81,1.1496,2.2609,3.9652,2.7826,-1.5304
305,9.8483,1.1879,2.2226,3.8957,2.6435,-1.6
310,9.8866,1.073,2.3375,3.6174,2.1565,-1.5304
315,9.8483,1.073,2.2226,3.3391,1.6,-1.3217
320,9.695,1.2646,2.1843,3.2,0.8348,-1.3913
325,9.9633,1.2263,2.3759,2.9217,0.0696,-1.3913
330,10.0399,1.3795,2.2992,2.4348,-0.8348,-1.1826
335,9.9633,1.3795,2.3375,1.4609,-2.2261,-1.3217
340,10.1549,1.4179,2.4908,-0.5565,-5.1478,-1.8087
345,10.3082,1.4179,2.6058,-2.5043,-8.0,-2.2261
350,10.3465,1.6095,2.8357,-4.7304,-10.1565,-2.7826
355,10.3465,1.8394,2.6441,-7.4435,-12.5913,-3.1304
360,10.4231,1.916,2.874,-11.3391,-15.5826,-3.8957
365,10.3082,2.1076,3.0656,-16.487,-19.2,-4.5217
370,10.1932,2.2226,3.1423,-22.8174,-23.2348,-4.3826
375,10.1932,2.2226,2.7974,-30.2609,-26.9217,-2.9913
380,10.2315,2.0693,2.4908,-38.1217,-29.3565,-0.9739
385,10.2698,1.6861,1.916,-45.4957,-30.4,0.8348
390,10.0399,1.1879,1.2646,-51.0609,-29.9826,1.1826
395,10.2315,0.843,0.843,-54.0522,-27.4783,0.487
400,10.2315,0.8047,0.4982,-54.2609,-23.2348,-2.6435
405,10.4231,0.8814,0.4215,-52.4522,-16.7652,-5.6348
410,10.4231,1.1496,0.3449,-50.713,-10.087,-7.1652
415,10.6147,1.1496,0.3066,-49.3217,-4.8,-6.9565
420,10.6914,1.0346,0.1916,-48.2087,-0.5565,-6.1913
425,10.883,0.8814,0.0,-46.7478,3.0609,-5.7043
430,10.8446,0.843,-0.1533,-44.5217,6.2609,-5.6348
435,10.883,0.4598,-0.3449,-41.4609,9.4609,-6.2609
440,10.768,0.3449,-0.115,-37.7739,12.9391,-7.0261
445,10.4614,0.1916,0.2299,-33.8087,16.0696,-7.7913
450,10.0399,0.2682,0.4982,-30.4,18.2957,-8.487
455,9.8483,0.3066,1.0346,-27.687,18.9913,-8.9739
460,9.8483,0.3449,1.3412,-26.087,18.8522,-9.0435
465,9.7717,0.3449,1.5711,-25.8087,18.7826,-9.1826
470,9.695,0.4982,1.7627,-25.9478,18.6435,-9.1826
475,9.4268,0.4982,1.7244,-26.0174,17.9478,-9.1826
480,9.3885,0.5365,1.8011,-26.0174,17.5304,-8.7652
485,9.3118,0.5748,1.7627,-25.8783,17.6,-8.3478
490,9.2352,0.6898,2.1843,-25.5304,18.087,-7.9304
495,9.1969,0.5365,2.1076,-24.6957,18.5043,-7.5826
500,9.0436,0.843,2.2226,-23.4435,18.5739,-7.1652
505,9.0436,0.6514,2.3375,-22.4,18.2957,-6.5391
510,8.6987,0.8047,2.3759,-20.8696,18.0174,-5.9826
515,8.6221,0.6898,2.2226,-18.9217,17.7391,-5.0783
520,8.5071,0.6131,2.4142,-16.5565,16.9739,-4.1739
525,8.5071,0.6131,2.3759,-13.8435,16.3478,-3.2
530,8.3921,0.7664,2.4142,-11.2696,16.0696,-1.8087
535,8.3538,0.958,2.5291,-8.9739,15.7913,-0.2087
540,8.6987,0.9963,2.4525,-7.0261,15.4435,1.8087
545,9.0053,1.1879,2.2992,-6.2609,15.5826,3.5478
550,9.1202,1.4179,2.5291,-6.2609,16.2783,5.2174
555,9.2735,1.5711,2.4908,-6.1913,16.9043,7.1652
560,9.4651,1.6095,2.6058,-6.5391,17.4609,9.3913
565,9.925,1.5328,3.2189,-7.2348,18.1565,11.6174
570,9.4651,1.8011,2.9507,-8.5565,18.5739,13.7043
575,9.5418,1.6861,2.8357,-10.2261,18.6435,15.7913
580,9.5418,1.8777,3.0273,-11.7565,18.3652,18.087
585,9.4268,1.8394,3.3339,-13.4957,18.2261,20.0348
590,9.4268,1.8394,3.1039,-14.4696,17.9478,21.8435
595,9.5418,1.8777,3.0273,-15.4435,17.4609,23.4435
600,9.695,1.6478,2.9123,-16.9043,17.113,25.0435
605,9.925,1.5711,2.9507,-18.2957,16.8348,25.9478
610,10.0399,1.7244,3.0273,-19.8261,16.2087,26.4348
615,10.0399,1.7244,3.0656,-21.913,15.513,26.5739
620,10.0782,1.8777,3.0273,-24.1391,14.6087,27.0609
625,10.1166,1.8777,2.9507,-26.6435,13.913,28.1739
630,9.7717,1.8777,2.874,-29.4261,12.9391,29.9826
635,9.81,1.7244,2.8357,-32.487,11.8957,32.1391
640,9.6567,1.3795,2.989,-34.4348,10.6435,34.6435
645,9.3118,1.4179,3.0273,-35.5478,9.5304,38.0522
650,9.2735,1.2646,2.874,-36.1739,8.3478,41.8087
655,9.2352,1.2646,2.8357,-36.3826,7.3043,45.4261
660,9.4268,1.073,3.0273,-35.9652,5.9826,48.5565
665,9.695,1.1496,2.6824,-34.9913,5.0783,51.0609
670,9.6184,1.1879,2.7974,-33.9478,5.0087,53.0783
675,9.7334,1.1113,2.8357,-32.4174,5.7043,54.6783
680,9.925,1.3412,2.5291,-31.1652,7.0261,56.5565
685,9.9633,1.2646,2.6441,-30.2609,9.3217,58.0174
690,9.7334,1.1496,2.9507,-29.8435,11.7565,59.2
695,9.3502,1.0346,2.9123,-28.3826,13.3565,60.5913
700,9.5418,0.958,2.6824,-26.3652,13.913,61.8435
705,9.4651,0.8047,2.7591,-24.6957,14.5391,62.8174
710,9.6184,0.843,2.7591,-22.6783,15.8609,64.2783
715,9.7334,0.8047,2.874,-20.7304,17.3913,66.087
720,9.5801,0.8814,3.0656,-18.9913,17.5304,67.0609
725,9.8483,0.9963,2.9507,-17.3913,16.3478,67.4783
730,9.9633,0.9963,3.3339,-15.7913,14.7478,67.687
735,9.925,1.1496,2.874,-14.887,13.0087,68.0348
740,9.925,1.4179,2.6824,-14.887,11.7565,68.6609
745,10.1166,1.5328,2.6058,-16.487,10.9217,69.1478
750,9.9633,1.8011,2.989,-18.5739,10.4348,69.0783
755,10.1166,1.6861,3.2955,-21.4261,10.2957,68.8
760,9.9633,1.8011,3.3722,-24.7652,10.6435,68.8
765,9.9633,2.1843,3.2955,-29.1478,11.5478,69.0783
770,9.7334,2.031,3.2189,-34.2261,12.5217,70.1913
775,9.8483,1.4945,3.2572,-38.4,13.2174,72.0
780,10.0782,0.9963,2.9123,-40.487,13.2174,74.1565
785,10.5381,0.7281,2.4908,-41.6696,14.4696,75.7565
790,10.4231,0.1533,2.5291,-41.8087,16.6261,77.7043
795,10.2698,-0.3832,2.3759,-39.2348,17.8783,80.3478
800,10.3082,-1.0346,2.3759,-35.687,18.2261,82.6435
805,10.5381,-1.1113,2.031,-31.7913,17.8087,84.9391
810,11.0363,-1.5328,1.7627,-27.9652,17.4609,87.513
815,11.3811,-1.6095,1.7627,-24.1391,17.8783,89.1826
820,11.7643,-1.4562,1.8777,-20.0348,18.5739,90.4348
825,11.6494,-1.3029,1.6095,-16.1391,19.2,91.0609
830,11.8027,-1.2263,1.3029,-13.0783,20.3826,91.4783
835,10.8063,-0.9197,1.2646,-11.4783,22.3304,90.9217
840,10.6914,-0.4215,1.3412,-11.4783,24.487,90.9913
845,10.653,-0.3449,1.5711,-13.287,26.9217,91.7565
850,10.1932,-0.3832,1.8011,-16.487,29.7739,92.3826
855,9.81,-0.5365,1.9927,-20.3826,31.9304,93.2174
860,8.9286,-0.6898,2.5291,-24.6957,32.8348,94.6087
865,8.6987,-1.1879,3.0273,-28.0348,31.7913,96.1391
870,8.3538,-1.7244,2.7974,-30.0522,29.4261,97.8087
875,8.0473,-2.2226,2.7207,-30.3304,26.7826,99.6174
880,8.0473,-2.6824,2.7207,-29.0783,23.0957,101.2174
885,7.894,-3.1039,2.4908,-27.0609,19.2,102.5391
890,7.3958,-3.4871,2.4525,-24.9043,14.3304,104.487
895,7.2809,-3.8704,2.3375,-21.3565,7.3043,107.4087
900,8.3921,-3.7937,1.7244,-17.8783,2.6435,108.1739
905,8.7754,-3.6787,1.7627,-15.3043,3.0609,106.2957
910,8.5454,-3.1039,1.8011,-13.913,5.0783,103.8609
915,8.3538,-3.1423,2.1076,-12.7304,6.4696,102.1913
920,7.779,-3.1806,2.3375,-12.1739,4.2435,102.9565
925,8.4305,-3.3722,2.4525,-13.2174,0.8348,104.2783
930,8.5838,-3.7171,2.1843,-14.9565,-1.3913,105.113
935,8.6221,-4.062,1.9927,-16.3478,-1.8087,104.8348
940,8.6604,-4.4452,1.8011,-16.8348,0.1391,104.9739
945,8.4305,-4.4452,2.874,-16.3478,2.4348,105.9478
950,7.894,-4.8667,2.9507,-15.1652,2.8522,107.1304
955,7.8173,-4.9433,2.6058,-13.4261,1.8783,107.8261
960,7.9706,-4.905,2.5291,-11.4087,1.1826,108.1739
965,7.9323,-4.6368,2.8357,-8.1391,1.7391,108.4522
970,7.7024,-4.5218,2.7591,-4.5913,3.4087,108.8696
975,8.0089,-4.4835,2.4525,-1.6,4.3826,109.8435
980,7.894,-4.1386,1.8777,0.0696,5.9826,110.887
985,7.779,-4.1386,2.2609,0.9043,7.3739,112.6261
990,8.3538,-4.2536,2.2609,1.6696,8.4174,114.713
995,8.3538,-4.3302,2.0693,1.3913,10.2957,115.6174
1000,8.5454,-4.4835,2.1076,0.3478,13.7739,115.9652
1005,8.7754,-4.6368,2.1459,-0.1391,16.1391,116.8696
1010,8.6604,-4.8284,1.9543,0.2087,19.0609,116.8696
1015,8.5838,-4.8284,2.0693,1.3217,23.6522,116.1739
1020,8.0856,-4.905,2.031,2.7826,27.3391,115.687
1025,7.8173,-5.0966,2.1076,4.313,29.6348,115.6174
1030,8.0473,-4.9816,1.9543,5.7043,32.1391,115.4087
1035,7.9323,-4.905,2.1459,7.0261,35.5478,115.4783
1040,8.0473,-4.905,2.3375,8.6261,39.3739,115.687
1045,7.5874,-4.6368,2.3759,9.9478,42.713,115.7565
1050,7.6257,-4.7134,2.2992,9.7391,45.0783,116.2435
1055,7.8173,-4.8284,2.0693,8.0696,47.3043,116.7304
1060,7.9323,-5.02,2.4142,5.5652,49.9478,116.8696
1065,7.9706,-5.1732,2.1459,3.6174,52.6609,117.1478
1070,8.0473,-5.4415,2.2992,2.7826,55.6522,116.9391
1075,7.8173,-5.5564,2.4525,2.2261,58.8522,115.8261
1080,7.3575,-5.7864,2.6441,1.6696,61.3565,113.8087
1085,7.2042,-5.978,2.4525,2.2957,61.7739,112.1391
1090,7.2809,-6.2079,2.5291,3.687,61.7739,110.0522
1095,7.0126,-6.4761,2.6058,5.913,62.8174,108.1043
1100,6.9743,-6.7827,2.7207,8.7652,64.487,107.1304
1105,7.0509,-7.0893,2.7974,11.9652,66.2957,106.2957
1110,6.6677,-7.0893,3.0656,14.8174,68.7304,104.3478
1115,6.2462,-7.0509,3.2955,17.6696,70.1913,102.5391
1120,5.6714,-6.7444,3.2572,20.6609,70.2609,100.8696
1125,5.1349,-6.4378,3.2955,22.5391,69.0783,99.6174
1130,4.8284,-6.3612,3.4488,23.0261,67.1304,99.2696
1135,4.7134,-6.0929,3.4105,22.6087,64.6261,99.3391
1140,4.79,-5.9396,3.7171,20.6609,62.3304,99.6174
1145,4.5218,-5.9396,3.9853,17.3913,59.5478,100.5217
1150,4.2152,-5.978,4.3302,12.2435,55.3043,101.913
1155,3.9087,-6.0163,4.5218,6.9565,50.2957,104.3478
1160,3.9087,-6.3229,4.5601,1.5304,45.1478,106.7826
1165,3.7171,-6.7061,4.2919,-3.0609,41.9478,108.313
1170,3.4105,-7.2042,4.4452,-5.6348,39.9304,109.6348
1175,3.2955,-7.2809,4.3302,-6.0522,38.1217,110.4
1180,3.7171,-7.2809,4.1386,-5.0087,35.7565,110.7478
1185,3.7937,-7.3575,4.4068,-3.7565,36.0348,109.9826
1190,3.9087,-7.0893,4.5601,-2.7826,38.1913,109.5652
1195,3.7937,-6.7061,4.4068,-2.6435,40.1391,109.7043
1200,4.3685,-6.5528,4.1003,-3.0609,40.8348,109.8435
1205,4.4452,-6.3995,4.3685,-4.4522,42.087,109.7043
1210,4.6368,-6.2462,4.2536,-6.6087,43.4783,109.913
1215,4.8667,-6.4761,4.5218,-8.6957,44.2435,109.8435
1220,4.8284,-6.6677,4.6368,-10.5739,44.5913,109.3565
1225,4.905,-6.821,4.6368,-12.2435,44.2435,108.8696
1230,4.8667,-6.936,4.5601,-13.0783,43.6174,107.687
1235,4.5218,-6.9743,4.4835,-12.8,43.2,106.1565
1240,4.2152,-7.1659,4.4835,-11.4087,42.0174,104.3478
1245,3.9853,-6.936,4.4452,-9.6,41.3217,101.9826
1250,3.7171,-7.1659,4.6368,-7.5826,41.9478,99.687
1255,3.1806,-7.1276,4.4835,-5.1478,41.9478,98.0174
1260,3.1806,-6.9743,4.1003,-2.713,42.5043,95.9304
1265,2.8357,-6.936,4.062,-1.1826,43.7565,94.5391
1270,2.7591,-6.8977,3.9853,-0.2783,44.1043,93.8435
1275,2.874,-7.0126,3.947,0.0,44.4522,93.3565
1280,2.989,-6.8977,3.7937,0.1391,45.0783,92.7304
1285,2.8357,-6.8977,4.0236,0.487,46.2609,92.4522
1290,2.9123,-7.1276,3.9087,0.5565,46.5391,92.3826
1295,3.2189,-7.2042,4.1003,0.3478,47.0261,92.313
1300,3.3722,-7.3192,4.0236,0.3478,48.5565,92.2435
1305,3.4105,-7.3958,4.062,0.4174,50.3652,91.8957
1310,3.2955,-7.3958,4.2152,0.2087,51.9652,91.6174
1315,3.4105,-7.4341,4.2152,-0.1391,53.0087,91.8957
1320,3.6021,-7.6257,4.2152,-0.7652,53.6348,91.9652
1325,3.4105,-7.4341,4.3302,-1.3217,53.4957,91.5478
1330,3.3339,-7.6257,4.2152,-1.6,52.1043,90.9217
1335,3.3722,-7.8557,3.6021,-0.9739,50.087,90.5043
1340,3.2955,-7.9706,3.6021,-0.7652,49.3913,88.5565
1345,3.1039,-8.0473,3.7937,-2.087,49.5304,86.5391
1350,2.7591,-8.1622,3.7937,-4.0348,49.6696,85.2174
1355,2.8357,-8.4305,4.0236,-6.2609,49.4609,84.0348
1360,2.7207,-8.5838,4.1769,-8.2087,48.487,82.5043
1365,2.989,-8.737,4.1769,-9.1826,48.0696,80.7652
1370,2.874,-8.7754,4.062,-10.0174,47.7217,79.3739
1375,2.989,-8.852,3.9853,-9.8087,47.513,78.6783
1380,2.7207,-8.852,3.7554,-8.4174,48.0,77.9826
1385,2.2226,-8.967,3.6404,-6.8174,48.9739,77.4957
1390,1.916,-9.0819,3.5638,-5.4957,49.4609,77.2174
1395,1.5328,-9.1586,3.6021,-3.9652,49.4609,77.0087
1400,1.2263,-9.3118,3.7554,-2.6435,48.8348,76.1739
1405,1.073,-9.3118,3.8704,-1.3913,47.6522,74.713
1410,0.8814,-9.3885,4.1769,0.0,45.913,73.2522
1415,0.8814,-9.5801,4.4452,2.1565,43.8957,71.7217
1420,0.5748,-9.4268,4.7134,5.3565,41.8783,70.4696
1425,0.4982,-9.0819,4.79,9.3217,39.7913,69.4957
1430,0.0383,-8.6987,4.5984,13.0087,37.5652,68.6609
1435,-0.4598,-8.3538,4.4068,15.0957,35.2696,68.1043
1440,-0.5365,-8.3538,4.5218,15.3043,33.113,66.8522
1445,-0.6514,-8.5454,4.2536,14.6087,30.7478,65.4609
1450,-0.7664,-8.6604,4.3685,13.2174,28.9391,63.1652
1455,-0.8814,-8.6604,4.1386,11.5478,27.0609,60.2435
1460,-0.7281,-9.0053,4.4835,8.8348,25.8087,56.9043
1465,-0.843,-9.3118,4.4068,6.5391,24.7652,53.5652
1470,-0.7664,-9.695,4.3302,4.313,23.7217,49.8783
1475,-0.843,-9.7717,4.7517,2.0174,23.3739,46.3304
1480,-0.9197,-10.1166,5.02,1.1826,23.0957,42.9217
1485,-1.1113,-10.0399,5.0966,1.3217,23.0261,39.8609
1490,-1.3412,-9.9633,5.4032,2.9217,23.513,37.0087
1495,-1.4179,-9.8866,5.4415,5.913,22.887,34.7826
1500,-1.5328,-9.81,5.4032,9.6696,22.1913,33.2522
1505,-1.4945,-9.6184,5.1349,14.0522,21.7043,32.2783
1510,-1.6478,-9.2352,4.8667,17.5304,21.7043,31.6522
1515,-1.8394,-9.1969,4.8284,20.3826,22.1913,31.6522
1520,-2.0693,-9.1969,4.6751,23.8609,22.3304,31.7913
1525,-2.3759,-8.8903,4.5218,26.1565,22.1217,31.513
1530,-2.4908,-8.852,4.1769,26.9913,21.7739,31.0261
1535,-2.6441,-8.6987,4.2536,27.0609,21.913,30.4696
1540,-3.1423,-8.4305,4.2152,26.3652,22.2609,29.5652
1545,-3.3722,-8.3538,4.2152,24.9043,22.1217,28.6609
1550,-3.5255,-8.0856,3.9853,22.1217,22.1913,27.687
1555,-3.6404,-7.9706,4.0236,18.087,22.0522,26.6435
1560,-3.7554,-8.0473,4.062,13.7043,21.6348,25.6
1565,-3.9087,-7.894,3.9853,9.8783,21.6348,24.6261
1570,-3.7171,-8.1239,4.062,5.913,21.5652,23.8609
1575,-3.6021,-8.0473,4.1386,2.5739,21.4957,23.0261
1580,-3.2189,-8.2389,4.4452,-0.8348,21.287,22.1217
1585,-2.8357,-8.2772,4.3302,-3.2696,21.2174,21.2174
1590,-2.6441,-8.2005,4.4452,-5.5652,20.5217,20.3826
1595,-2.2992,-8.3155,4.3302,-7.7913,19.4783,19.7565
1600,-2.0693,-8.2772,4.6368,-9.5304,18.6435,19.4087
1605,-1.6861,-8.3538,4.7134,-10.5739,18.5043,18.9217
1610,-1.1879,-8.4305,4.7517,-11.3391,17.9478,18.5739
1615,-1.0346,-8.4688,4.7134,-11.5478,17.4609,18.0174
1620,-0.7281,-8.4688,4.8284,-11.7565,17.4609,17.3217
1625,-0.5365,-8.4688,4.9816,-11.4087,17.2522,16.6261
1630,-0.5365,-8.3921,5.0583,-10.5043,17.4609,16.0696
1635,-0.3449,-8.3921,5.02,-9.6,16.8348,15.7217
1640,-0.3832,-8.1622,4.905,-8.8348,16.3478,15.0957
1645,-0.0766,-8.2005,4.9433,-7.6522,16.6957,14.4
1650,-0.0383,-7.9706,5.1732,-6.3304,16.8348,13.7739
1655,0.0383,-8.0089,5.0583,-5.4261,16.9043,13.4261
1660,0.0,-7.8173,5.0583,-5.2174,17.0435,12.5913
1665,0.0,-7.8557,5.0583,-5.1478,17.4609,11.5478
1670,0.1916,-7.7407,5.3648,-4.9391,17.8087,10.713
1675,0.1533,-7.779,5.2499,-5.0783,17.8783,9.7391
1680,0.1533,-7.779,5.3648,-5.8435,17.7391,8.6957
1685,0.2299,-7.7407,5.1349,-6.4,17.6,7.513
1690,0.0383,-7.7024,5.3265,-7.0957,17.3217,6.6087
1695,-0.115,-7.894,5.2882,-7.2348,16.9739,5.4957
1700,-0.1533,-7.779,5.1349,-7.3043,16.0696,4.313
1705,-0.3066,-8.0473,5.0966,-7.3739,14.5391,3.1304
1710,-0.4215,-8.0473,4.8667,-6.8174,12.6609,2.087
1715,-0.6131,-8.0473,4.6368,-6.1217,10.9913,0.6261
1720,-0.6131,-8.1239,4.7517,-5.287,9.6696,-0.7652
1725,-0.6514,-8.2389,4.4835,-4.1739,8.1391,-1.9478
1730,-0.7664,-8.3921,4.4835,-2.7826,6.6783,-3.4087
1735,-0.843,-8.1239,4.5218,-0.8348,5.9826,-5.0783
1740,-0.8814,-8.2005,4.4452,0.9043,5.7043,-5.7043
1745,-0.6898,-8.3538,4.4452,1.6696,5.5652,-5.9826
1750,-0.8814,-8.2772,4.5984,1.9478,5.913,-5.8435
1755,-0.6131,-8.3538,4.5984,1.9478,6.6087,-5.4261
1760,-0.2682,-8.5838,4.79,1.7391,7.2348,-5.0087
1765,-0.4982,-8.3921,4.6368,1.2522,7.4435,-4.7304
1770,-0.3449,-8.4688,4.4068,0.7652,7.7217,-4.313
1775,-0.0383,-8.3155,4.4068,0.1391,7.9304,-4.1739
1780,-0.115,-8.3538,4.3302,-0.5565,7.9304,-3.9652
1785,-0.0383,-8.2772,4.2152,-1.6696,7.513,-3.8261
1790,-0.0383,-8.3155,4.1769,-2.5043,7.3043,-3.687
1795,-0.2682,-8.3538,3.947,-3.1304,7.3739,-3.4783
1800,-0.4598,-8.3538,3.832,-3.4087,6.2609,-3.6174
1805,-0.4982,-8.4688,3.832,-3.2,5.4957,-3.7565
1810,-0.6514,-8.5838,3.7937,-2.4348,4.9391,-3.8957
1815,-0.958,-8.6604,3.6404,-1.3217,4.3826,-4.1739
1820,-0.8814,-8.6987,3.7937,-0.2783,3.4087,-4.2435
1825,-0.9963,-8.6987,3.6787,0.7652,2.6435,-4.2435
1830,-0.843,-8.6987,3.8704,2.0174,2.2261,-4.2435
1835,-1.0346,-8.5454,3.9853,3.0609,2.2261,-4.313
1840,-0.958,-8.4688,4.1769,3.7565,2.1565,-4.1043
1845,-0.7664,-8.3538,4.2152,3.9652,1.6696,-3.9652
1850,-0.7664,-8.3538,4.2152,3.8261,1.6,-3.8261
1855,-0.4982,-8.3538,4.3685,3.2696,1.3913,-3.8957
1860,-0.5365,-8.3538,4.2152,2.713,0.9739,-3.9652
1865,-0.3449,-8.4305,4.4068,2.2261,0.6957,-4.0348
1870,-0.3449,-8.4305,4.2919,1.6696,0.7652,-4.313
1875,-0.5748,-8.5838,4.2536,1.6696,0.2087,-4.4522
1880,-0.4982,-8.6221,4.1769,1.8783,-0.6957,-4.3826
1885,-0.8047,-8.5454,4.2152,2.7826,-1.3913,-4.313
1890,-0.9197,-8.5454,4.1769,3.7565,-2.8522,-3.8957
1895,-0.7281,-8.6221,4.1003,5.0087,-4.6609,-3.4087
1900,-0.843,-8.5838,4.062,6.4696,-5.8435,-3.1304
1905,-0.7281,-8.5071,4.0236,7.3739,-7.3043,-2.8522
1910,-0.5748,-8.4688,4.0236,8.2087,-8.4174,-3.0609
1915,-0.5365,-8.3921,4.1003,8.6957,-9.0435,-3.2
1920,-0.3832,-8.2772,4.2536,8.7652,-10.087,-3.687
1925,-0.4215,-8.4305,4.5601,8.6261,-10.4348,-4.3826
1930,-0.3449,-8.0856,4.2919,8.0696,-10.8522,-4.8696
1935,-0.2682,-8.0473,4.4452,7.513,-11.7565,-5.4261
1940,-0.2682,-8.1239,4.4835,7.3043,-11.9652,-6.1217
1945,-0.2682,-8.0473,4.5218,7.5826,-11.9652,-6.8174
1950,-0.3066,-8.1622,4.5984,8.0,-11.6174,-7.4435
1955,-0.115,-8.2005,4.3685,8.4174,-10.8522,-8.0
1960,-0.1533,-8.2772,4.4068,8.6261,-10.4348,-8.6957
1965,0.0766,-8.3538,4.5218,8.3478,-10.1565,-9.3913
1970,0.0766,-8.4305,4.4068,7.7217,-9.9478,-10.0174
1975,0.0766,-8.3155,4.4452,6.887,-9.7391,-10.6435
1980,0.3449,-8.4305,4.2919,5.8435,-9.6696,-11.2
1985,0.3832,-8.4688,4.2919,4.7304,-9.6,-11.8957
1990,0.4598,-8.6221,3.9087,3.5478,-9.5304,-12.3826
1995,0.3832,-8.6604,3.832,2.713,-9.3217,-13.2174
2000,0.4598,-8.737,3.9087,2.5739,-8.6261,-13.5652
2005,0.4982,-8.737,3.9853,3.2696,-7.6522,-14.1217
2010,0.3449,-8.737,4.2152,4.1739,-6.4,-14.4696
2015,0.1916,-8.6604,4.2919,5.287,-5.0087,-14.6783
2020,0.1916,-8.5454,4.3685,6.1217,-3.8261,-14.7478
2025,0.1916,-8.6221,4.4452,6.7478,-2.5739,-14.5391
2030,0.1916,-8.6221,4.5984,6.7478,-1.4609,-14.2609
2035,-0.0383,-8.4305,4.5984,6.4,-0.5565,-13.8435
2040,-0.0383,-8.4305,4.6368,6.0522,0.1391,-13.7043
2045,-0.0766,-8.5838,4.7134,5.8435,0.6261,-13.3565
2050,-0.1533,-8.3538,4.5601,6.1913,0.6261,-13.0087
2055,-0.3832,-8.3538,4.5984,6.6783,0.3478,-12.5913
2060,-0.1916,-8.3921,4.5601,7.513,-0.1391,-12.313
2065,-0.4598,-8.3921,4.4835,8.1391,-0.5565,-12.0348
2070,-0.3066,-8.4305,4.4452,8.6261,-1.113,-11.7565
2075,-0.4215,-8.4305,4.4068,8.6957,-1.6,-11.687
2080,-0.3832,-8.3921,4.4835,8.5565,-1.9478,-11.4087
2085,-0.2299,-8.4305,4.5601,8.2783,-2.2261,-11.2
2090,-0.3832,-8.5838,4.5218,8.1391,-2.5739,-11.0609
2095,-0.2299,-8.3538,4.5601,8.2087,-2.6435,-10.8522
2100,-0.115,-8.4305,4.5601,8.3478,-2.8522,-10.5043
2105,-0.0383,-8.4688,4.5984,8.6261,-2.9217,-10.3652
2110,0.115,-8.5071,4.5218,8.7652,-3.0609,-10.0174
2115,0.0766,-8.4305,4.5218,8.8348,-3.1304,-9.9478
2120,0.0766,-8.3921,4.4835,8.7652,-3.2,-9.5304
2125,0.2682,-8.2772,4.5218,8.2783,-3.1304,-9.0435
2130,0.3066,-8.3921,4.3685,7.5826,-2.9217,-8.6261
2135,0.3449,-8.3155,4.5218,7.1652,-2.7826,-8.1391
2140,0.4982,-8.3538,4.4835,6.7478,-2.713,-7.4435
2145,0.115,-8.2772,4.5601,6.3304,-2.6435,-6.7478
2150,0.7664,-8.3155,4.2536,5.913,-5.4261,-4.6609
2155,0.8047,-8.5071,4.3302,5.7739,-4.9391,-4.5217
2160,0.7664,-8.5454,4.4068,6.1217,-3.6174,-4.1043
2165,0.5365,-8.4305,4.2919,6.7478,-3.3391,-3.6174
2170,0.7281,-8.4305,4.4835,7.3739,-3.5478,-3.2696
2175,0.7281,-8.4688,4.2919,8.0,-3.2696,-2.713
2180,0.8047,-8.5454,4.1769,8.3478,-3.3391,-2.2261
2185,0.7281,-8.5071,4.1769,8.3478,-3.2696,-1.8783
2190,0.7281,-8.5071,4.1769,8.1391,-2.9913,-1.6696
2195,0.9963,-8.4305,4.4452,7.7913,-2.5739,-1.8087
2200,0.843,-8.4305,4.5218,7.3739,-2.087,-1.8087
2205,0.843,-8.3538,4.6368,6.9565,-1.8783,-1.5304
2210,0.9197,-8.4305,4.4835,6.6087,-1.9478,-1.3217
2215,0.7281,-8.3921,4.6368,6.1217,-2.0174,-1.1826
2220,0.6898,-8.2389,4.3685,5.7043,-2.1565,-1.1826
2225,0.5365,-8.3921,4.5218,5.4957,-2.2957,-1.0435
2230,0.5365,-8.3155,4.5218,5.3565,-2.6435,-1.3217
2235,0.5365,-8.1622,4.4068,5.1478,-2.9217,-1.5304
2240,0.4598,-8.3921,4.3302,5.2174,-3.2696,-1.6696
2245,0.3066,-8.3155,4.4068,5.287,-3.5478,-1.9478
2250,0.3449,-8.2772,4.3302,5.3565,-3.8261,-2.2261
2255,-0.2682,-8.4688,4.4452,5.3565,-3.8957,-2.087
2260,0.1533,-8.3155,4.4452,5.287,-3.8261,-2.1565
2265,0.1533,-8.3921,4.2919,5.4261,-3.687,-2.2261
2270,0.1533,-8.3921,4.3685,5.4957,-3.687,-2.2957
2275,0.0,-8.3921,4.4835,5.4261,-3.6174,-2.4348
2280,0.0766,-8.4305,4.4068,5.5652,-3.4783,-2.5739
2285,0.0383,-8.4688,4.4068,5.5652,-3.3391,-2.713
2290,0.1533,-8.3921,4.2919,5.6348,-3.4087,-2.8522
2295,0.115,-8.4305,4.4835,5.4957,-3.4783,-2.713
2300,0.1916,-8.2772,4.5218,5.2174,-3.3391,-2.713
2305,0.0383,-8.2389,4.6368,4.9391,-2.7826,-2.713
2310,0.1916,-8.3155,4.5218,4.8,-2.8522,-2.713
2315,0.1533,-8.3155,4.5601,4.5217,-2.713,-2.9913
2320,0.115,-8.3921,4.5601,4.0348,-2.5739,-3.0609
2325,0.2299,-8.4305,4.6751,3.687,-2.5043,-3.0609
2330,0.0766,-8.3155,4.5601,3.6174,-2.5739,-3.2
2335,0.0766,-8.3921,4.6368,3.4087,-2.4348,-3.2696
2340,0.1533,-8.3538,4.6368,3.3391,-2.2261,-3.1304
2345,0.1533,-8.4305,4.4835,3.2696,-1.6696,-3.3391
2350,0.1533,-8.3538,4.5984,3.0609,-1.113,-3.5478
2355,0.115,-8.2772,4.4068,2.9913,-0.6261,-3.5478
2360,0.1916,-8.3155,4.4452,2.5739,0.0696,-3.5478
2365,0.1916,-8.4305,4.3685,2.0174,0.4174,-3.8261
2370,0.0383,-8.3155,4.3302,1.5304,1.1826,-4.1739
2375,0.0,-8.2389,4.3685,1.1826,2.087,-4.1739
2380,-0.0383,-8.3538,4.5218,1.5304,2.3652,-3.8261
2385,0.0,-8.1622,4.3302,2.087,2.5739,-3.3391
2390,-0.115,-8.1622,4.4835,2.5739,2.9217,-2.7826
2395,-0.1916,-8.2005,4.6368,2.9217,2.9913,-2.3652
2400,-0.3066,-8.2005,4.6751,3.2696,2.8522,-2.087
2405,-0.2299,-8.1622,4.7134,3.687,2.5739,-1.7391
2410,0.0,-8.2389,4.7134,3.8957,2.087,-1.5304
2415,-0.2299,-8.2389,4.8284,4.0348,2.087,-1.3217
2420,-0.115,-8.2772,4.8667,4.2435,2.087,-1.1826
2425,-0.0383,-8.2772,4.7517,4.3826,1.8783,-1.2522
2430,-0.0383,-8.1622,4.8667,4.4522,1.6,-1.3217
2435,-0.115,-8.1622,4.905,4.5913,1.6,-1.4609
2440,0.0,-8.0856,4.8667,4.8,1.3217,-1.4609
2445,0.0,-8.3538,4.9433,4.8,1.3217,-1.7391
2450,0.0383,-8.0473,4.905,5.0783,1.1826,-1.9478
2455,0.0,-8.0473,4.905,5.3565,1.0435,-2.1565
2460,0.0383,-8.0089,4.9816,5.3565,0.9043,-2.4348
2465,0.0,-8.0473,4.905,5.0783,0.9739,-2.5043
2470,0.0383,-8.0473,4.8284,4.313,0.9739,-2.6435
2475,0.0383,-8.0473,4.6751,3.2,0.7652,-2.713
2480,0.0,-7.9323,4.8667,1.9478,0.4174,-2.7826
2485,0.0766,-7.9706,4.6751,0.9043,0.0,-2.9217
2490,0.0766,-8.1239,4.6751,-0.1391,-0.1391,-2.713
2495,0.1916,-8.1239,4.6368,-0.9043,-0.2087,-2.4348
2500,0.2299,-8.1239,4.4835,-1.3913,-0.0696,-2.087
2505,0.1533,-8.1622,4.5601,-1.6,-0.1391,-1.6696
2510,0.1533,-8.3921,4.4835,-1.5304,-0.1391,-1.3217
2515,0.2682,-8.3921,4.5218,-1.4609,-0.1391,-1.113
2520,0.6131,-8.3155,4.2536,-1.2522,-0.0696,-1.1826
2525,0.115,-8.4305,4.5984,-1.2522,1.3217,-1.4609
2530,0.2682,-8.4305,4.4452,-0.5565,0.5565,-1.3217
2535,0.4598,-8.3921,4.3685,-0.2087,-0.0696,-1.2522
2540,0.3066,-8.4688,4.4068,0.0696,-0.1391,-1.2522
2545,0.3832,-8.4305,4.3685,0.2783,0.0,-1.113
2550,0.2682,-8.3921,4.4452,0.3478,-0.0696,-1.113
2555,0.4982,-8.5838,4.4835,0.3478,-0.2087,-1.1826
2560,0.3449,-8.3538,4.4835,0.4174,-0.2087,-1.1826
2565,0.5365,-8.5071,4.4452,0.8348,-0.1391,-1.113
2570,0.4215,-8.2389,4.5601,1.0435,0.4174,-1.3217
2575,0.3449,-8.2772,4.5218,0.9739,0.8348,-1.3913
2580,0.4598,-8.3921,4.4835,1.113,1.113,-1.6
2585,0.4215,-8.3538,4.3302,1.4609,1.3217,-1.8087
2590,0.5365,-8.3155,4.4068,1.6696,1.3217,-1.9478
2595,0.4598,-8.2389,4.2536,1.6696,1.3913,-2.0174
2600,0.3449,-8.3538,4.3302,1.4609,1.3217,-2.1565
2605,0.1916,-8.1622,4.3302,1.113,1.113,-2.087
2610,0.2682,-8.2772,4.2919,0.8348,0.7652,-2.087
2615,0.3832,-8.3538,4.2536,0.5565,0.8348,-2.2957
2620,0.3066,-8.4305,4.1003,0.3478,0.9043,-2.1565
2625,0.1916,-8.4305,4.2919,0.2087,0.6261,-2.2261
2630,0.115,-8.4305,4.4452,0.0696,0.2783,-2.2957
2635,0.0766,-8.3921,4.1769,-0.0696,0.0,-2.087
2640,0.2682,-8.5071,4.3302,0.0696,-0.2087,-2.087
2645,0.6131,-8.4305,4.1769,0.2087,0.0,-2.2261
2650,0.1533,-8.3538,4.2919,0.487,1.2522,-2.5739
2655,0.3832,-8.4688,4.3302,0.7652,1.113,-2.6435
2660,0.4982,-8.4688,4.2919,0.9043,0.7652,-2.4348
2665,0.3066,-8.3921,4.3302,0.9739,1.0435,-2.2957
2670,0.4982,-8.4688,4.3685,1.0435,0.8348,-2.087
2675,0.3832,-8.3921,4.4068,1.113,0.4174,-1.8783
2680,0.2682,-8.3538,4.4068,1.1826,0.487,-1.4609
2685,0.3066,-8.2389,4.4452,1.3217,0.0696,-1.1826
2690,0.3066,-8.4305,4.3302,1.3217,0.0,-0.9739
2695,0.3832,-8.3538,4.4068,1.3913,0.4174,-0.8348
2700,0.3832,-8.3921,4.4068,1.6,0.1391,-0.6261
2705,0.4215,-8.2772,4.4068,1.6696,0.0,-0.487
2710,0.4982,-8.3538,4.1769,1.7391,0.2087,-0.4174
2715,0.3449,-8.3921,4.3685,2.087,0.5565,-0.487
2720,0.3066,-8.3921,4.4835,2.3652,0.6261,-0.4174
2725,0.4215,-8.4688,4.4452,2.5043,0.8348,-0.487
2730,0.3832,-8.3538,4.2536,2.6435,1.1826,-0.4174
2735,0.3832,-8.4305,4.3685,2.6435,1.0435,-0.4174
2740,0.3066,-8.4305,4.4068,2.5043,1.1826,-0.4174
2745,0.7281,-8.5071,4.79,2.2957,1.4609,-0.2783
2750,0.4598,-8.4305,4.3685,2.1565,1.2522,-0.1391
2755,0.4215,-8.3921,4.4452,2.087,1.1826,-0.0696
2760,0.4982,-8.4305,4.4452,2.0174,1.6,-0.0696
2765,0.4215,-8.3921,4.2919,1.8783,1.5304,0.0696
2770,0.3832,-8.4688,4.5218,2.087,1.2522,0.2087
2775,0.4215,-8.3921,4.3685,2.2261,1.1826,0.3478
2780,0.3832,-8.3921,4.3302,2.3652,1.6,0.2087
2785,0.3066,-8.4305,4.3685,2.713,1.3913,0.2087
2790,0.3449,-8.4688,4.4068,3.0609,1.3913,0.2087
2795,0.3449,-8.3155,4.4835,3.2,1.6,0.2087
2800,0.2682,-8.5071,4.5218,3.4087,1.6696,0.2087
2805,0.2299,-8.3538,4.5984,3.4087,1.5304,0.3478
2810,0.2299,-8.3155,4.5218,3.4783,1.4609,0.4174
2815,0.2682,-8.3538,4.5601,3.5478,1.6,0.5565
2820,0.1916,-8.2005,4.5984,3.6174,1.9478,0.3478
2825,0.1916,-8.3538,4.5218,3.5478,2.2957,0.2783
2830,0.3066,-8.2389,4.4452,3.3391,2.4348,0.4174
2835,0.3449,-8.1622,4.5984,2.7826,2.5043,0.6261
2840,0.3449,-8.1622,4.5601,2.2261,2.6435,0.6957
2845,0.2682,-8.1622,4.6368,1.6696,2.8522,0.6261
2850,0.3449,-8.3155,4.6751,0.9739,2.4348,0.9043
2855,0.2682,-8.3155,4.5601,0.5565,2.4348,0.8348
2860,0.2682,-8.3921,4.6368,0.2783,2.713,0.9043
2865,0.3832,-8.2772,4.5984,0.2087,2.5739,0.9043
2870,0.1916,-8.3921,4.5984,0.1391,2.4348,0.9043
2875,0.1916,-8.3155,4.7517,0.2783,2.6435,0.7652
2880,0.3066,-8.2772,4.5984,0.487,2.8522,0.7652
2885,0.2299,-8.3538,4.5218,0.5565,2.9217,0.4174
2890,0.2682,-8.2389,4.5601,0.2783,3.1304,0.4174
2895,0.0383,-8.2772,4.6368,-0.0696,3.4087,0.2087
2900,0.1533,-8.2772,4.5218,-0.8348,3.0609,0.1391
2905,0.0766,-8.2005,4.5218,-1.7391,2.3652,0.0
2910,0.1533,-8.3155,4.5601,-2.5739,2.1565,-0.2087
2915,0.0,-8.2005,4.3685,-3.4087,2.0174,-0.2783
2920,-0.2299,-8.3155,4.5218,-4.0348,1.8087,-0.2783
2925,-0.1916,-8.5071,4.2536,-4.3826,1.0435,0.1391
2930,0.0,-8.3921,4.2919,-4.5217,0.1391,0.0
2935,-0.3449,-8.4305,4.2536,-4.313,-0.2783,-0.0696
2940,-0.1533,-8.5838,4.1769,-3.687,-0.7652,-0.2783
2945,-0.0383,-8.5071,4.2536,-3.1304,-1.113,-0.5565
2950,-0.115,-8.3921,4.0236,-2.5043,-1.6696,-0.5565
2955,0.0,-8.4688,4.1003,-1.8087,-2.0174,-0.6957
2960,-0.0383,-8.4688,4.1003,-1.113,-2.3652,-0.8348
2965,0.0,-8.3538,4.1386,-0.4174,-2.6435,-1.113
2970,0.0,-8.4305,4.1003,0.3478,-3.0609,-1.0435
2975,0.0,-8.3155,4.1386,0.8348,-3.4783,-1.0435
2980,0.0766,-8.3921,4.2919,1.0435,-3.7565,-0.9739
2985,0.115,-8.4688,4.2919,1.0435,-3.9652,-0.6957
2990,0.1533,-8.3921,4.2152,0.7652,-4.0348,-0.5565
2995,0.115,-8.3921,4.1769,0.3478,-4.1043,-0.487
