timestamp,accX,accY,accZ,gyroX,gyroY,gyroZ
0,0.0766,-1.9543,8.2389,-22.0522,6.1913,4.4522
5,0.0,-2.1076,8.5454,-22.887,5.913,3.8957
10,0.0766,-2.2609,8.737,-22.8174,5.6348,3.687
15,0.0766,-2.4908,8.7754,-21.9826,5.4261,3.7565
20,0.0766,-2.4908,9.0053,-20.4522,5.1478,3.8261
25,0.0383,-2.6824,8.8903,-18.3652,5.0087,3.8957
30,0.0766,-2.874,9.0819,-16.2087,4.7304,3.687
35,0.0766,-2.9507,8.967,-13.6348,4.5217,3.2696
40,0.0,-3.0273,8.967,-11.0609,4.5217,2.7826
45,-0.0383,-3.1423,8.8137,-8.6957,4.5217,2.2957
50,-0.115,-3.1039,8.9286,-6.3304,4.5913,1.7391
55,-0.3066,-3.1423,8.967,-3.687,4.5913,1.4609
60,-0.3066,-3.1039,8.7754,-1.6696,4.5217,1.4609
65,-0.3449,-3.1039,8.7754,-0.0696,4.4522,1.4609
70,-0.4215,-3.0273,8.6221,1.2522,4.313,1.6
75,-0.4598,-3.0273,8.3538,1.9478,4.1739,1.8783
80,-0.5365,-3.0273,8.3921,2.2957,3.9652,2.4348
85,-0.4982,-2.9123,8.3921,1.8783,3.6174,2.6435
90,-0.4215,-2.8357,8.0856,1.2522,3.4783,3.2696
95,-0.5748,-2.874,8.0473,0.1391,3.4087,3.8957
100,-0.3832,-2.9123,8.0856,-1.3913,3.4087,4.2435
105,-0.4982,-2.7591,7.894,-3.0609,3.4087,4.5217
110,-0.4982,-2.7207,7.894,-4.7304,3.2696,4.7304
115,-0.4982,-2.6058,7.9706,-6.9565,2.9913,4.7304
120,-0.4215,-2.6824,7.894,-8.6261,2.8522,4.9391
125,-0.4598,-2.6058,8.0089,-10.087,2.5043,4.8
130,-0.3832,-2.6058,8.1239,-11.0609,2.2261,4.8696
135,-0.3449,-2.7591,8.2005,-11.6174,1.9478,4.7304
140,-0.2682,-2.7974,8.2772,-11.8957,1.6,4.5913
145,-0.3066,-2.8357,8.3155,-11.9652,1.1826,4.2435
150,-0.2682,-2.989,8.2389,-11.9652,0.7652,3.9652
155,-0.2299,-2.9507,8.4305,-11.8261,0.3478,3.6174
160,-0.2682,-3.0273,8.2772,-11.687,0.0,3.4087
165,-0.115,-3.1423,8.0856,-11.6174,-0.3478,2.9913
170,-0.115,-3.1806,8.2005,-11.0609,-0.9043,2.7826
175,-0.0766,-3.1806,8.2005,-10.6435,-1.1826,2.4348
180,-0.1533,-3.2572,8.1239,-9.6696,-1.5304,2.5043
185,-0.0383,-3.2572,8.2389,-8.5565,-1.7391,2.2957
190,-0.0383,-3.4105,8.2772,-7.2348,-1.9478,2.3652
195,-0.0766,-3.3722,8.3155,-5.7043,-2.1565,2.2957
200,-0.0383,-3.3339,8.3921,-3.8261,-2.2957,2.5739
205,0.0,-3.5255,8.2772,-2.2261,-2.3652,2.6435
210,-0.1916,-3.2955,8.2005,-0.8348,-2.4348,2.9913
215,-0.0766,-3.4105,8.1239,0.2087,-2.5043,3.2
220,-0.1533,-3.2189,8.0473,0.6957,-2.5043,3.5478
225,-0.0383,-3.2189,8.0473,0.9739,-2.5739,3.8261
230,-0.1916,-3.2572,8.0856,0.9739,-2.713,4.0348
235,-0.2682,-3.1039,8.2389,0.7652,-2.713,3.9652
240,-0.2299,-3.2955,8.2389,0.6957,-2.713,3.9652
245,-0.3066,-3.1806,8.2772,0.487,-2.713,3.687
250,-0.3066,-3.1423,8.2005,0.2087,-2.4348,3.6174
255,-0.3449,-3.0656,8.3155,-0.1391,-2.2261,3.2
260,-0.2682,-2.9507,8.0089,-0.6261,-1.8783,2.9913
265,-0.2299,-2.9123,8.3155,-1.113,-1.6,2.5043
270,-0.4215,-2.9123,8.2772,-1.6,-1.113,2.2261
275,-0.2299,-2.9123,8.2389,-2.2261,-0.9043,1.8783
280,-0.2682,-2.9507,8.2389,-2.713,-0.6957,1.6696
285,-0.0766,-2.989,8.2005,-2.9217,-0.487,1.3913
290,-0.115,-3.0656,8.3921,-2.6435,-0.2783,1.3913
295,-0.115,-3.0656,8.2772,-2.2957,-0.0696,1.113
300,-0.0766,-3.0273,8.3155,-1.8783,-0.0696,0.9739
305,-0.0766,-3.0273,8.4688,-1.2522,0.1391,0.7652
310,-0.0383,-3.0656,8.2389,-0.9043,0.2087,0.6957
315,-0.0766,-3.2572,8.2772,-0.6261,0.3478,0.2783
320,-0.0383,-2.9123,8.3155,-0.487,0.3478,0.3478
325,-0.2299,-3.0273,8.2772,-0.6957,0.2783,0.2087
330,0.0,-2.874,8.2772,-0.8348,0.3478,0.2087
335,-0.1533,-2.989,8.1239,-1.2522,0.2783,-0.0696
340,-0.2682,-2.874,8.0856,-1.8087,0.0696,-0.0696
345,-0.2299,-2.989,8.2389,-2.5739,0.1391,-0.487
350,-0.1533,-2.874,8.1622,-3.2,0.0696,-0.2783
355,-0.2299,-2.9507,8.1239,-3.8957,0.0,-0.5565
360,-0.2299,-2.989,8.1239,-4.3826,0.0696,-0.487
365,0.0,-3.1039,8.2389,-4.8696,0.2087,-0.9739
370,-0.2682,-2.989,8.1622,-5.0087,0.3478,-0.8348
375,-0.0766,-3.0656,8.0089,-4.8696,0.3478,-1.0435
380,0.0,-3.2572,8.0856,-4.5217,0.4174,-0.9043
385,0.0,-3.2572,8.2005,-3.8957,0.6261,-1.0435
390,0.0,-3.3339,8.0856,-3.0609,0.9739,-0.9043
395,-0.2299,-3.2572,8.2389,-2.2957,1.1826,-0.9739
400,-0.0383,-3.1423,8.2772,-1.0435,1.4609,-0.6261
405,0.0,-3.2955,8.4688,-0.0696,1.6696,-0.6957
410,-0.1533,-3.1423,8.2389,0.9043,1.7391,-0.3478
415,0.0,-3.0656,8.2772,1.6696,1.7391,-0.2783
420,-0.0383,-3.0273,8.2389,2.1565,1.6696,0.0696
425,0.0,-3.0656,8.3538,2.4348,1.3913,0.0696
430,0.0,-3.0273,8.1622,2.6435,1.113,0.1391
435,-0.0383,-2.8357,8.4305,2.6435,0.9043,-0.0696
440,0.0,-2.9123,8.2772,2.713,0.8348,-0.0696
445,0.0383,-2.989,8.3538,2.7826,0.6261,-0.4174
450,0.0,-3.0656,8.4305,3.2,0.487,-0.4174
455,0.0383,-3.0656,8.3155,3.6174,0.6957,-0.9739
460,0.0383,-3.2189,8.2389,4.5913,0.8348,-1.2522
465,0.0,-3.1423,8.5454,5.5652,0.9739,-1.6696
470,0.0,-3.2189,8.5454,6.6783,1.113,-1.8783
475,0.0383,-3.1423,8.4305,7.8609,1.3217,-2.4348
480,0.0383,-3.1423,8.4688,9.113,1.7391,-2.6435
485,0.0383,-3.0656,8.3921,10.1565,2.0174,-3.0609
490,0.0766,-3.0656,8.2005,11.0609,2.3652,-3.2
495,0.115,-2.989,8.3155,11.4087,2.713,-3.4087
500,0.1916,-2.9507,8.3155,11.3391,3.1304,-3.4087
505,0.115,-2.7591,8.2389,11.0609,3.4783,-3.6174
510,0.1533,-2.874,8.2389,10.5739,3.7565,-3.6174
515,0.1916,-2.7974,8.3155,9.8087,3.8957,-3.7565
520,0.2299,-2.6824,8.4305,8.6957,3.9652,-3.6174
525,0.1533,-2.6441,8.1239,7.4435,4.1043,-3.6174
530,0.115,-2.6441,8.1239,6.1217,4.1739,-3.5478
535,0.1916,-2.7591,8.2005,4.8696,4.1739,-3.6174
540,0.1533,-2.6441,8.3538,3.8261,4.2435,-3.4783
545,0.0383,-2.7207,8.3921,2.9913,4.1739,-3.3391
550,0.1533,-2.7591,8.3921,2.3652,4.1043,-3.2
555,0.115,-2.7974,8.4305,2.0174,4.0348,-3.2
560,0.115,-2.8357,8.3921,1.8087,3.9652,-2.8522
565,0.0766,-2.7591,8.3921,1.7391,3.8957,-3.0609
570,0.115,-2.7207,8.3921,1.8783,3.8261,-2.7826
575,0.0766,-2.8357,8.3921,1.7391,3.687,-2.6435
580,0.0766,-2.7974,8.1622,1.6696,3.687,-2.6435
585,0.1533,-2.7591,8.4305,1.6,3.687,-2.6435
590,0.0383,-2.7591,8.3921,1.2522,3.687,-2.5739
595,0.1533,-2.7207,8.4688,0.6957,3.6174,-2.5739
600,0.1533,-2.6441,8.3921,0.0,3.8261,-2.5043
605,0.1533,-2.5675,8.2772,-0.5565,3.8261,-2.5043
610,0.0766,-2.5675,8.2389,-1.2522,3.687,-2.4348
615,0.1916,-2.6824,8.3538,-2.0174,3.7565,-2.5043
620,0.1533,-2.6441,8.2772,-2.7826,3.687,-2.2261
625,0.1916,-2.6824,8.2772,-3.4783,3.4087,-2.2957
630,0.1533,-2.6824,8.3538,-4.1043,3.4087,-2.1565
635,0.1916,-2.6441,8.2005,-4.7304,3.4087,-1.9478
640,0.115,-2.9123,8.0473,-5.0087,3.4783,-1.8783
645,0.0383,-2.7207,8.3538,-5.3565,3.3391,-1.7391
650,0.0766,-2.7591,8.2389,-5.4957,3.4087,-1.4609
655,0.0766,-2.7591,8.3921,-5.4957,3.4087,-1.3217
660,0.0,-2.7207,8.4305,-5.287,3.2696,-1.1826
665,0.0,-2.7974,8.3921,-5.1478,3.2,-0.9739
670,0.0,-2.874,8.3921,-4.9391,3.0609,-0.6957
675,0.0383,-2.9507,8.5454,-4.7304,3.0609,-0.5565
680,0.0,-2.7974,8.2772,-4.5217,2.9217,-0.2087
685,-0.1916,-2.9507,8.3155,-4.3826,2.7826,0.0696
690,-0.1916,-2.7591,8.3921,-4.2435,2.6435,0.1391
695,-0.0383,-2.9123,8.2772,-4.2435,2.6435,0.2783
700,-0.0383,-2.9507,8.1622,-4.1739,2.6435,0.4174
705,-0.0383,-2.9123,8.3921,-4.1043,2.5043,0.5565
710,-0.0383,-2.9507,8.2772,-4.0348,2.2957,0.5565
715,-0.0383,-3.0656,8.3155,-3.8261,2.0174,0.6261
720,-0.115,-2.9123,8.3155,-3.5478,1.8783,0.487
725,0.0,-2.9507,8.2389,-3.2696,1.7391,0.5565
730,0.0,-2.874,8.1622,-2.9913,1.5304,0.5565
735,-0.115,-3.0273,8.2005,-2.7826,1.4609,0.6957
740,0.0,-2.989,8.4305,-2.7826,1.1826,0.6957
745,0.0,-2.7207,8.1239,-2.5739,0.9043,0.8348
750,-0.3066,-2.9507,8.3155,-2.3652,0.6957,0.8348
755,-0.115,-3.0273,8.5071,-2.2957,0.3478,1.0435
760,-0.0383,-3.0656,8.5071,-2.3652,0.1391,1.113
765,0.0,-2.989,8.2005,-2.4348,0.0,1.3913
770,0.0,-2.989,8.2772,-2.5043,-0.2087,1.5304
775,0.0,-3.1039,8.2005,-2.6435,-0.4174,1.7391
780,-0.0766,-3.1806,8.3155,-2.7826,-0.5565,1.7391
785,0.0,-3.2189,8.2772,-2.9217,-0.8348,1.8087
790,-0.0383,-3.1423,8.1622,-2.9217,-1.0435,1.8783
795,0.0,-3.1806,8.3538,-2.9217,-1.113,2.087
800,-0.0383,-3.2955,8.3921,-2.713,-1.1826,2.087
805,-0.0383,-3.2572,8.3155,-2.4348,-1.3913,2.2261
810,0.0,-3.2572,8.2389,-2.087,-1.3217,2.1565
815,0.0,-3.1039,8.3155,-1.6696,-1.1826,2.2957
820,0.0,-3.1806,8.3155,-1.3217,-1.113,2.2261
825,0.0,-3.1806,8.2772,-1.0435,-0.9043,2.2957
830,0.0,-3.2572,8.2005,-0.6957,-0.6261,2.1565
835,0.0,-3.1423,8.2772,-0.5565,-0.4174,2.5043
840,0.0,-3.1423,8.2772,-0.2087,-0.3478,2.5739
845,0.0383,-3.2955,8.2772,-0.1391,0.0,2.713
850,0.0,-3.1039,8.1239,-0.0696,0.2087,2.5043
855,0.0,-3.0656,8.3538,-0.0696,0.4174,2.713
860,0.0,-3.0656,8.3538,0.1391,0.6957,2.5043
865,0.0,-3.1039,8.2772,0.2783,0.9739,2.5739
870,0.0383,-3.1039,8.2389,0.4174,1.113,2.3652
875,0.0,-3.1806,8.3538,0.487,1.3217,2.4348
880,0.0383,-3.1039,8.3538,0.5565,1.6696,2.0174
885,0.0766,-3.0656,8.2389,0.5565,1.8087,2.0174
890,0.0383,-3.0273,8.2389,0.5565,2.0174,1.8087
895,0.1916,-3.1423,8.2772,0.4174,2.2261,1.7391
900,0.115,-3.1039,8.3538,0.2783,2.5739,1.3217
905,0.1533,-2.9507,8.1239,0.3478,2.8522,1.4609
910,0.0766,-3.1039,8.3155,0.2087,3.1304,1.3217
915,0.115,-2.989,8.3538,0.1391,3.1304,1.6
920,0.0383,-2.989,8.2389,0.2783,3.2696,1.5304
925,0.115,-3.0273,8.3538,0.2087,3.4087,1.8087
930,0.115,-2.989,8.3538,0.3478,3.2696,1.8087
935,0.115,-2.9507,8.2005,0.5565,3.3391,2.2957
940,0.0766,-2.9507,8.3921,0.5565,3.2696,2.2957
945,0.115,-2.9123,8.2772,0.8348,3.0609,2.713
950,0.1916,-2.9123,8.3538,1.0435,2.8522,2.6435
955,0.2299,-2.9507,8.4688,1.2522,2.6435,2.9217
960,0.0766,-2.874,8.3155,1.3913,2.3652,2.7826
965,0.3066,-3.0656,8.3921,1.6,2.1565,2.8522
970,0.0,-2.8357,8.3538,1.8087,1.8783,2.3652
975,0.0766,-2.7974,8.2772,1.8783,1.7391,2.2957
980,0.115,-2.8357,8.3155,1.9478,1.7391,1.7391
985,0.1533,-2.7974,8.4305,1.8087,1.7391,1.4609
990,0.0766,-2.874,8.4688,1.8087,1.7391,1.0435
995,0.0383,-2.7974,8.2389,1.6696,1.7391,0.9739
1000,0.1533,-2.7974,8.3921,1.4609,1.8783,0.487
1005,0.0383,-2.7207,8.4688,1.3913,1.9478,0.4174
1010,0.115,-2.8357,8.2772,1.3913,2.0174,0.1391
1015,0.115,-2.874,8.4305,1.2522,2.1565,0.2783
1020,0.115,-2.7207,8.4688,1.1826,2.2957,0.0
1025,0.1533,-2.9123,8.5454,1.3217,2.2261,0.4174
1030,0.0766,-2.874,8.3538,1.2522,2.3652,0.487
1035,0.1533,-2.874,8.4688,1.3217,2.3652,0.7652
1040,0.1533,-2.874,8.4305,1.3913,2.2957,0.6957
1045,0.2682,-2.874,8.3921,1.4609,2.3652,0.9739
1050,0.1533,-2.874,8.1622,1.5304,2.2957,0.9043
1055,0.1916,-2.9507,8.3155,1.6,2.5043,1.0435
1060,0.2682,-2.874,8.4305,1.5304,2.5739,0.8348
1065,0.1916,-2.7974,8.3921,1.3913,2.713,0.7652
1070,0.2299,-2.874,8.1622,1.0435,2.9913,0.487
1075,0.5365,-3.0273,8.0473,0.7652,3.0609,0.2783
1080,0.2299,-2.8357,8.2772,0.3478,3.2,-0.1391
1085,0.2682,-2.8357,8.3921,-0.1391,3.3391,-0.487
1090,0.115,-2.6441,8.3921,-0.5565,3.4087,-0.9043
1095,0.115,-2.6824,8.2772,-1.1826,3.5478,-1.113
1100,0.2299,-2.7974,8.3155,-1.4609,3.5478,-1.4609
1105,0.1533,-2.7207,8.3921,-1.8087,3.4087,-1.6696
1110,0.2682,-2.8357,8.3155,-2.0174,3.4087,-2.0174
1115,0.2299,-2.8357,8.4305,-2.087,3.3391,-2.2261
1120,0.2299,-2.9123,8.4305,-2.1565,3.3391,-2.4348
1125,0.2299,-2.7207,8.3538,-2.1565,3.2696,-2.4348
1130,0.3066,-2.9507,8.3538,-2.0174,3.1304,-2.5739
1135,0.2299,-2.8357,8.4305,-1.8783,3.2,-2.5043
1140,0.2299,-2.874,8.3155,-1.8783,2.9913,-2.713
1145,0.115,-2.7591,8.4688,-2.0174,2.9913,-2.5043
1150,0.1533,-2.874,8.3538,-2.2957,3.0609,-2.4348
1155,0.2682,-2.874,8.4305,-2.4348,2.9913,-2.4348
1160,0.2682,-2.9123,8.4305,-2.713,3.0609,-2.4348
1165,0.2299,-2.7974,8.4688,-2.9217,3.0609,-2.4348
1170,0.2682,-2.874,8.2772,-3.2,2.9217,-2.713
1175,0.115,-2.9123,8.3921,-3.4783,2.9913,-2.6435
1180,0.0766,-2.8357,8.3538,-3.8261,2.8522,-2.5739
1185,0.0,-2.9123,8.2772,-4.1043,2.8522,-2.5043
1190,0.0766,-2.9123,8.2772,-4.5217,2.9913,-2.5739
1195,0.115,-3.0656,8.3155,-4.8696,2.9913,-2.5739
1200,0.2299,-2.989,8.2005,-5.0087,2.9217,-2.6435
1205,0.1916,-3.1039,8.2005,-5.4261,3.1304,-2.9217
1210,0.1533,-2.9123,8.3155,-5.4957,3.2,-3.1304
1215,0.115,-2.9507,8.2772,-5.4261,3.2696,-3.3391
1220,0.1533,-2.874,8.3155,-5.2174,3.3391,-3.5478
1225,0.1916,-3.0273,8.3921,-4.8696,3.4783,-3.8261
1230,0.2299,-3.0273,8.4305,-4.6609,3.6174,-4.1043
1235,0.1916,-3.1039,8.2772,-4.3826,3.7565,-4.2435
1240,0.2299,-2.9123,8.4305,-4.0348,3.7565,-4.5217
1245,0.2682,-2.9507,8.3921,-3.8957,3.8957,-4.5913
1250,0.0766,-2.9123,8.3538,-3.8261,3.9652,-4.8
1255,0.2682,-2.8357,8.3921,-3.8957,4.0348,-4.8696
1260,0.2682,-2.9123,8.3155,-3.8957,4.0348,-5.0087
1265,0.1916,-2.9123,8.3155,-4.1739,4.0348,-5.2174
1270,0.2682,-2.874,8.4305,-4.3826,4.1739,-5.1478
1275,0.1916,-2.9123,8.3155,-4.7304,4.313,-5.3565
1280,0.1916,-3.0273,8.2005,-5.1478,4.2435,-5.287
1285,0.1916,-2.989,8.1622,-5.6348,4.5913,-5.1478
1290,0.115,-2.9507,8.2389,-6.1913,4.8,-5.0783
1295,0.115,-2.874,8.2005,-6.5391,4.9391,-4.9391
1300,0.115,-2.8357,8.2005,-6.9565,5.0783,-4.6609
1305,0.115,-2.7591,8.3155,-7.0957,5.0783,-4.5217
1310,0.115,-2.874,8.2772,-7.1652,5.2174,-4.2435
1315,0.0383,-2.8357,8.2005,-7.0957,5.1478,-3.8261
1320,0.0383,-2.9123,8.2772,-6.887,5.1478,-3.3391
1325,0.115,-2.9123,8.3155,-6.6783,5.0783,-3.0609
1330,0.115,-2.874,8.3921,-6.4696,4.8696,-2.4348
1335,0.115,-2.874,8.5838,-6.2609,4.8,-2.087
1340,0.115,-2.9123,8.3921,-5.9826,4.8696,-1.7391
1345,0.115,-2.7974,8.4305,-5.7043,4.6609,-1.5304
1350,0.115,-2.8357,8.4305,-5.4261,4.5913,-1.3217
1355,0.2682,-2.989,8.4305,-5.287,4.5217,-1.2522
1360,0.1916,-2.989,8.3921,-5.0783,4.4522,-1.1826
1365,0.2682,-3.0656,8.2389,-4.9391,4.3826,-1.2522
1370,0.1916,-3.0656,8.2772,-4.9391,4.313,-1.113
1375,0.2682,-3.2189,8.3921,-4.9391,4.1043,-1.113
1380,0.1916,-3.1423,8.2389,-4.8696,3.7565,-0.8348
1385,0.1916,-3.1039,8.2389,-4.8,3.6174,-0.8348
1390,0.2682,-3.2572,8.2772,-4.6609,3.4783,-0.6261
1395,0.5748,-3.1423,8.1622,-4.5913,3.4087,-0.6957
1400,0.1533,-3.2955,7.7024,-4.6609,3.2,-0.4174
1405,0.3832,-3.1423,8.1622,-4.8,2.9913,-0.4174
1410,0.4215,-3.0656,8.1239,-5.0783,2.6435,-0.3478
1415,0.3449,-3.1423,8.2389,-5.287,2.4348,-0.487
1420,0.3066,-2.9507,7.9706,-5.3565,2.1565,-0.487
1425,0.2299,-2.8357,8.1622,-5.287,2.087,-0.6957
1430,0.3449,-2.989,8.2005,-5.2174,1.9478,-0.6261
1435,0.3832,-2.9507,8.2005,-5.1478,1.9478,-0.9043
1440,0.3449,-2.874,8.0856,-5.2174,1.9478,-0.7652
1445,0.1533,-2.8357,8.0089,-5.2174,1.9478,-1.113
1450,0.1916,-2.7591,8.3155,-5.2174,2.1565,-0.9739
1455,0.2299,-2.7591,8.3155,-5.2174,2.0174,-1.0435
1460,0.2299,-2.7207,8.3155,-5.2174,2.0174,-0.9043
1465,0.1916,-2.8357,8.3921,-5.0087,1.7391,-0.9739
1470,0.2682,-2.7591,8.5838,-4.8696,1.6696,-0.9739
1475,0.3832,-2.8357,8.5071,-4.4522,1.3217,-1.1826
1480,0.3449,-2.9123,8.4688,-4.1739,1.1826,-1.1826
1485,0.3066,-2.874,8.5838,-3.8261,1.113,-1.4609
1490,0.3066,-2.9507,8.6987,-3.5478,0.9043,-1.6
1495,0.3066,-2.874,8.5071,-3.2696,0.6957,-1.8087
1500,0.3832,-2.989,8.5454,-3.2696,0.5565,-1.6696
1505,0.3066,-2.9123,8.5071,-3.3391,0.487,-1.8783
1510,0.2682,-2.9123,8.3538,-3.2696,0.5565,-1.6
1515,0.1916,-2.989,8.3921,-3.4087,0.487,-1.5304
1520,0.1916,-3.0273,8.3155,-3.687,0.6261,-0.9043
1525,0.1916,-2.9507,8.3921,-4.0348,0.5565,-0.487
1530,0.0383,-3.0273,8.1622,-4.3826,0.6261,0.3478
1535,0.0766,-2.9123,8.1239,-4.9391,0.6261,0.8348
1540,0.0383,-2.989,8.1622,-5.6348,0.6261,1.8783
1545,0.0,-2.989,8.1239,-6.1913,0.9739,3.0609
1550,0.0,-2.8357,8.1622,-6.887,0.6261,3.6174
1555,0.0,-2.989,8.1239,-7.7217,0.487,4.4522
1560,-0.3066,-2.9123,7.9706,-8.7652,0.487,5.5652
1565,0.0,-3.0273,8.0089,-9.5304,0.487,6.1913
1570,-0.0383,-3.0656,7.9323,-10.4348,0.6957,7.0261
1575,0.0,-2.989,7.9706,-11.2,0.8348,7.513
1580,0.0,-3.1423,7.894,-12.1043,1.2522,8.1391
1585,-0.0383,-2.989,7.894,-12.7304,1.6,8.3478
1590,-0.0383,-3.0656,7.9706,-13.4957,2.087,9.0435
1595,0.0,-2.9507,7.8557,-14.1217,2.4348,9.2522
1600,0.0,-3.1039,8.1239,-14.5391,2.7826,9.5304
1605,0.0383,-3.1806,8.0473,-14.887,3.1304,9.3913
1610,0.0383,-3.2189,8.0856,-15.0261,3.4783,9.6
1615,0.115,-3.2572,7.9706,-14.9565,3.687,9.3913
1620,-0.1533,-3.3722,7.779,-14.887,3.9652,9.3913
1625,0.0766,-3.2572,8.0473,-14.7478,4.1739,9.1826
1630,0.115,-3.4105,8.0856,-14.6087,4.2435,9.1826
1635,0.2299,-3.4871,8.0856,-14.4,4.3826,8.8348
1640,0.1916,-3.4105,8.0089,-13.9826,4.5217,8.6957
1645,0.2682,-3.4871,8.2389,-13.4261,4.4522,8.3478
1650,0.2299,-3.5255,8.0473,-12.8,4.4522,8.2783
1655,0.2682,-3.6021,8.1239,-12.0348,4.313,7.9304
1660,0.3066,-3.5638,8.2005,-11.0609,4.2435,7.6522
1665,0.1916,-3.5638,8.3155,-9.9478,4.0348,7.3043
1670,0.3066,-3.3722,8.1622,-9.113,4.0348,7.0957
1675,0.1916,-3.4488,8.2005,-8.4174,4.0348,6.6783
1680,0.2682,-3.5638,8.2772,-7.9304,3.9652,6.6087
1685,0.2682,-3.5638,8.1622,-7.513,3.8957,6.1913
1690,0.1533,-3.5255,8.2772,-7.1652,3.687,6.1217
1695,0.2299,-3.6404,8.1622,-7.0261,3.7565,5.7043
1700,0.2299,-3.5638,8.1622,-6.8174,3.687,5.7043
1705,0.115,-3.4488,8.1239,-6.6783,3.6174,5.2174
1710,0.115,-3.4871,8.2005,-6.6783,3.6174,5.1478
1715,0.1916,-3.5638,8.2005,-6.6783,3.6174,4.8
1720,0.0766,-3.4105,8.2005,-6.5391,3.5478,4.6609
1725,0.2299,-3.6021,8.2389,-6.6087,3.5478,4.5913
1730,0.115,-3.3339,8.737,-6.4,3.3391,4.6609
1735,0.115,-3.5638,8.1239,-6.1913,3.2696,4.5913
1740,0.2299,-3.6787,8.2005,-6.1217,3.2696,4.5217
1745,0.2682,-3.7554,8.0473,-6.0522,3.4087,4.5217
1750,0.2682,-3.7937,8.1622,-6.0522,3.4783,4.7304
1755,0.2299,-3.7171,8.0089,-5.913,3.6174,4.6609
1760,0.3066,-3.7171,7.9706,-5.913,3.5478,4.8
1765,0.3449,-3.7171,8.0473,-5.8435,3.687,4.8
1770,0.4215,-3.7554,7.9706,-5.7739,3.7565,4.8696
1775,0.4215,-3.9087,8.0856,-5.7043,3.7565,4.8
1780,0.4598,-3.6787,7.894,-5.7739,3.8261,4.6609
1785,0.3832,-3.6404,7.9323,-5.8435,3.8261,4.5217
1790,0.3449,-3.5638,7.9706,-6.0522,3.8957,4.313
1795,0.3832,-3.6404,7.9706,-6.0522,3.9652,4.1043
1800,0.4982,-3.6787,7.9323,-6.1217,3.8957,3.7565
1805,0.3832,-3.6787,8.0089,-6.1217,4.0348,3.4087
1810,0.3449,-3.5638,8.1239,-6.1913,4.313,3.1304
1815,0.3066,-3.5638,8.0473,-6.0522,4.5217,2.713
1820,0.3832,-3.5255,7.9323,-5.8435,4.7304,2.2957
1825,0.3449,-3.7171,8.0089,-5.4261,5.0087,2.0174
1830,0.3066,-3.6404,8.0856,-5.2174,5.1478,1.6696
1835,0.3449,-3.6021,8.0473,-4.5913,5.287,1.6
1840,0.3832,-3.6021,8.2389,-4.1739,5.4261,1.3217
1845,0.3449,-3.4871,8.0856,-3.687,5.3565,1.1826
1850,0.3066,-3.5638,8.3155,-3.2696,5.3565,1.113
1855,0.3066,-3.4488,8.0856,-2.713,5.287,1.2522
1860,0.3832,-3.5255,8.0473,-2.1565,5.2174,1.1826
1865,0.3449,-3.5638,8.1622,-1.6,5.1478,1.2522
1870,0.4215,-3.4871,8.2005,-0.8348,5.0783,1.2522
1875,0.3066,-3.5638,8.2005,0.2783,4.9391,1.1826
1880,0.3449,-3.6787,8.3921,1.3913,4.5217,1.113
1885,0.3449,-3.6404,8.2389,2.9217,4.3826,1.2522
1890,0.2299,-3.5638,8.2005,4.3826,4.313,1.2522
1895,0.3066,-3.5255,8.3155,5.4261,4.3826,1.3913
1900,0.3449,-3.4871,8.2772,5.7043,4.4522,1.2522
1905,0.3066,-3.3339,8.0856,5.4261,4.5913,1.2522
1910,0.3449,-3.5638,8.1239,4.9391,4.7304,0.9043
1915,0.1916,-3.4488,8.0856,4.2435,4.8696,0.6957
1920,0.1916,-3.4488,8.0856,3.3391,5.1478,0.4174
1925,0.2299,-3.4871,8.1239,2.6435,5.287,0.0
1930,0.3449,-3.3722,8.1239,2.0174,5.287,-0.3478
1935,0.2682,-3.4871,8.1622,1.4609,5.3565,-0.5565
1940,0.3066,-3.4871,8.1239,0.9739,5.287,-0.9043
1945,0.4215,-3.2955,7.9323,0.5565,5.287,-1.113
1950,0.3066,-3.4871,8.2772,0.2783,5.1478,-1.3913
1955,0.2299,-3.4105,8.1622,0.0696,5.0783,-1.3913
1960,0.2299,-3.4871,7.9706,-0.0696,4.8696,-1.5304
1965,0.1916,-3.6787,8.0473,-0.1391,4.8,-1.6
1970,0.1916,-3.6404,8.2005,-0.2783,4.6609,-1.7391
1975,0.2299,-3.4871,8.1239,-0.4174,4.6609,-1.6
1980,0.3066,-3.5638,8.0856,-0.6261,4.5217,-1.7391
1985,0.3066,-3.4488,8.1239,-0.9739,4.6609,-1.6696
1990,0.1916,-3.4871,8.0856,-1.1826,4.6609,-1.8783
1995,0.1533,-3.4488,8.0856,-1.3217,4.7304,-1.6696
2000,0.115,-3.4105,7.9706,-1.6696,4.8,-1.8087
2005,0.2682,-3.4488,8.2772,-1.8087,4.8696,-1.8087
2010,0.1916,-3.4105,8.0089,-1.8783,5.0783,-1.8783
2015,0.1916,-3.4488,8.1622,-1.9478,5.0783,-1.6696
2020,0.1533,-3.4871,8.0856,-2.087,5.1478,-1.8087
2025,0.1916,-3.5255,8.1239,-2.087,5.1478,-1.6696
2030,0.115,-3.3722,7.9323,-2.087,5.287,-1.8783
2035,0.1916,-3.3722,8.0856,-2.087,5.4957,-1.8087
2040,0.2299,-3.4488,8.0856,-2.1565,5.5652,-2.0174
2045,0.0766,-3.4105,8.0089,-2.087,5.4957,-2.0174
2050,0.115,-3.5255,7.9706,-2.087,5.6348,-2.1565
2055,0.3832,-3.8704,8.3538,-2.087,5.7043,-2.087
2060,0.1916,-3.4871,8.0473,-2.1565,5.6348,-2.2261
2065,0.1916,-3.5255,7.9706,-1.9478,5.6348,-2.1565
2070,0.115,-3.6021,8.0089,-1.8087,5.7043,-2.3652
2075,0.1916,-3.5638,8.0473,-1.5304,5.7739,-2.1565
2080,0.1916,-3.6021,7.9706,-1.2522,5.6348,-2.2957
2085,0.1916,-3.6021,8.0856,-0.9739,5.6348,-2.1565
2090,0.1533,-3.4871,8.1622,-0.6261,5.7043,-2.3652
2095,0.1916,-3.4871,8.0856,-0.3478,5.7739,-2.087
2100,0.3066,-3.6787,7.9706,-0.1391,5.7043,-2.2261
2105,0.1916,-3.6021,8.2389,0.0696,5.7739,-2.1565
2110,0.2682,-3.4871,7.9706,0.2087,5.7043,-2.2957
2115,0.1916,-3.4871,8.0473,0.487,5.6348,-2.0174
2120,0.1916,-3.5255,8.0089,0.487,5.5652,-2.1565
2125,0.1533,-3.4105,7.9323,0.5565,5.4261,-1.8783
2130,0.2299,-3.5255,8.1622,0.487,5.287,-1.8783
2135,0.115,-3.4488,7.9323,0.487,5.1478,-1.6
2140,0.1533,-3.5255,8.0473,0.487,4.9391,-1.6
2145,0.1533,-3.4871,8.1239,0.6261,4.7304,-1.3913
2150,0.115,-3.5255,8.1239,0.6957,4.5913,-1.4609
2155,0.0766,-3.4871,8.0089,0.9043,4.4522,-1.1826
2160,0.1533,-3.3722,8.0473,0.9043,4.313,-1.3217
2165,0.2299,-3.5255,8.1239,0.9043,4.313,-1.113
2170,0.0766,-3.4488,8.0856,1.0435,4.1739,-1.2522
2175,0.115,-3.4105,8.0856,1.0435,4.1043,-1.113
2180,0.1533,-3.4488,8.0856,1.1826,4.1043,-1.1826
2185,0.0383,-3.2572,8.2389,1.3217,3.9652,-1.113
2190,0.0766,-3.4488,8.2005,1.3217,4.0348,-1.2522
2195,0.0,-3.3339,8.2389,1.3913,4.0348,-1.1826
2200,0.0383,-3.4105,7.9706,1.3913,4.0348,-1.3217
2205,0.115,-3.3722,8.1622,1.6,4.1043,-1.1826
2210,0.0766,-3.3722,8.0473,1.6696,4.2435,-1.5304
2215,0.1533,-3.3722,8.3155,1.8087,4.1739,-1.3913
2220,0.115,-3.4105,8.2005,1.8783,4.2435,-1.4609
2225,0.1916,-3.4488,8.0473,2.1565,4.313,-1.2522
2230,0.2682,-3.4871,8.0473,2.2261,4.3826,-1.2522
2235,0.115,-3.4871,8.2389,2.2261,4.3826,-1.113
2240,0.1916,-3.5255,8.1622,2.0174,4.4522,-1.113
2245,0.1916,-3.4488,8.1622,2.0174,4.3826,-0.9043
2250,0.1916,-3.4488,8.1622,1.9478,4.3826,-1.0435
2255,0.1533,-3.3339,8.1239,1.8087,4.4522,-0.7652
2260,0.1916,-3.4871,8.0473,1.6,4.5913,-0.9739
2265,0.1533,-3.4488,8.1239,1.4609,4.4522,-0.8348
2270,0.115,-3.3339,8.0856,1.4609,4.3826,-0.9739
2275,0.2299,-3.3339,8.3155,1.2522,4.313,-0.7652
2280,0.1533,-3.4105,8.0089,1.1826,4.313,-0.9739
2285,0.1533,-3.2955,8.0473,1.113,4.4522,-0.7652
2290,0.0383,-3.2572,8.2005,1.0435,4.4522,-0.7652
2295,0.115,-3.3339,8.0856,0.9043,4.4522,-0.9043
2300,0.115,-3.2955,8.0856,0.8348,4.5913,-1.0435
2305,0.115,-3.2955,8.2389,0.6957,4.6609,-1.0435
2310,0.115,-3.2572,8.2389,0.5565,4.8696,-1.1826
2315,0.0766,-3.4105,8.0856,0.487,4.9391,-1.1826
2320,0.1533,-3.2955,8.2005,0.4174,5.1478,-1.3913
2325,0.1533,-3.2572,7.9706,0.4174,5.287,-1.4609
2330,0.1533,-3.3339,8.1239,0.487,5.3565,-1.5304
2335,0.1533,-3.4488,8.1239,0.5565,5.3565,-1.4609
2340,0.1916,-3.3722,8.2005,0.487,5.4261,-1.5304
2345,0.1916,-3.2955,8.2389,0.5565,5.4261,-1.3913
2350,0.115,-3.2189,8.1622,0.5565,5.3565,-1.3913
2355,0.0383,-3.3339,8.0856,0.487,5.287,-1.0435
2360,0.1916,-3.4105,8.2772,0.487,5.2174,-0.9739
2365,0.1533,-3.4105,8.3155,0.4174,5.0087,-0.8348
2370,0.2682,-3.3722,8.2389,0.3478,4.8696,-0.6261
2375,0.1533,-3.2955,8.0473,0.1391,4.8,-0.4174
2380,0.2682,-3.3722,8.2005,0.0,4.7304,-0.2783
2385,0.1533,-3.3722,7.8557,-0.2087,4.5913,0.0
2390,0.115,-3.3339,8.0473,-0.487,4.5217,-0.0696
2395,0.1916,-3.2572,8.2005,-0.5565,4.4522,0.2087
2400,0.1916,-3.4105,8.2389,-0.6261,4.313,0.3478
2405,0.1533,-3.3722,7.9323,-0.5565,4.2435,0.3478
2410,0.1533,-3.3722,8.1239,-0.5565,4.1739,0.5565
2415,0.1533,-3.3339,8.0473,-0.487,3.8957,0.6957
2420,0.1533,-3.4105,8.0856,-0.4174,3.8957,0.6957
2425,0.3066,-3.4488,8.0473,-0.2783,3.7565,0.6957
2430,0.2682,-3.4105,8.2005,-0.2087,3.687,0.8348
2435,0.1533,-3.3722,8.0856,0.0,3.687,0.8348
2440,0.1916,-3.2955,8.0473,0.1391,3.6174,0.8348
2445,0.1533,-3.4488,8.0089,0.2783,3.6174,0.9739
2450,0.1916,-3.3339,8.1622,0.3478,3.6174,0.9739
2455,0.1533,-3.3722,8.1622,0.5565,3.687,1.0435
2460,0.1916,-3.4488,8.0473,0.7652,3.5478,1.113
2465,0.1916,-3.3339,8.1239,0.7652,3.6174,1.113
2470,0.2299,-3.4488,8.0089,0.9043,3.687,1.1826
2475,0.2682,-3.4871,8.1239,0.8348,3.7565,1.113
2480,0.2299,-3.4105,8.0473,0.8348,3.8261,1.1826
2485,0.2299,-3.4105,7.9706,0.6957,3.8957,1.113
2490,0.1916,-3.3339,8.2389,0.5565,3.9652,1.113
2495,0.2299,-3.4105,8.0856,0.4174,3.9652,0.9739
2500,0.2299,-3.4105,8.2389,0.0696,3.9652,0.9739
2505,0.1533,-3.3339,8.2005,0.0,4.0348,0.9043
2510,0.1533,-3.3722,8.1622,-0.2087,4.1043,0.9043
2515,0.1916,-3.2955,8.1622,-0.2087,4.1043,0.7652
2520,0.1916,-3.3339,8.2005,-0.3478,4.1739,0.9043
2525,0.1916,-3.2572,8.1239,-0.2087,4.2435,0.6261
2530,0.1533,-3.4488,8.1239,-0.2087,4.1739,0.7652
2535,0.115,-3.3339,8.0856,0.0,4.1739,0.5565
2540,0.0766,-3.2955,8.1239,0.1391,4.2435,0.6261
2545,0.1533,-3.4105,8.0089,0.3478,4.1739,0.3478
2550,0.2682,-3.4105,8.0856,0.4174,4.2435,0.2783
2555,0.115,-3.3722,8.2005,0.6261,4.3826,0.0696
2560,0.2682,-3.2955,8.3538,0.9043,4.4522,-0.1391
2565,0.3449,-3.3722,8.0856,1.0435,4.5913,-0.3478
2570,0.1533,-3.2955,8.1622,1.1826,4.5913,-0.2783
2575,0.1916,-3.3339,8.0473,1.2522,4.7304,-0.6261
2580,0.1533,-3.3339,8.2389,1.3217,4.8,-0.487
2585,0.1533,-3.3722,8.2389,1.3217,4.8696,-0.487
2590,0.2299,-3.2955,8.0089,1.2522,4.8696,-0.3478
2595,0.0766,-3.2955,8.2389,1.0435,4.8,-0.3478
2600,0.0383,-3.2189,8.2772,0.9739,4.6609,0.0
2605,0.0766,-3.3339,8.1622,0.8348,4.5913,0.0696
2610,0.1916,-3.2572,8.2772,0.6261,4.5913,0.2783
2615,0.2299,-3.2955,8.1239,0.6261,4.3826,0.2783
2620,0.3066,-3.4105,8.1622,0.4174,4.313,0.4174
2625,0.2682,-3.3722,8.1622,0.2783,4.313,0.3478
2630,0.2682,-3.3339,8.2005,0.2783,4.313,0.4174
2635,0.115,-3.3339,8.2005,0.2087,4.3826,0.2087
2640,0.2299,-3.2955,8.2389,0.0696,4.3826,0.3478
2645,0.2682,-3.3722,8.0473,-0.2087,4.3826,0.0696
2650,0.1916,-3.3339,7.8557,-0.2087,4.3826,0.0
2655,0.2299,-3.2955,8.1622,-0.3478,4.3826,-0.2783
2660,0.2682,-3.3722,8.1239,-0.3478,4.5913,-0.2087
2665,0.1533,-3.4488,8.2005,-0.3478,4.7304,-0.6261
2670,0.2299,-3.4105,8.1239,-0.4174,4.8696,-0.6261
2675,0.2682,-3.4105,8.0856,-0.3478,4.9391,-0.8348
2680,0.1533,-3.3339,8.2005,-0.2087,4.8696,-0.8348
2685,0.1533,-3.3722,7.9706,-0.2783,4.8,-1.0435
2690,0.1916,-3.3339,8.1622,-0.4174,5.0087,-0.9043
2695,0.0766,-3.3339,8.0089,-0.3478,5.0783,-1.113
2700,0.115,-3.3339,8.1239,-0.487,5.1478,-0.9739
2705,0.1533,-3.2189,8.2772,-0.6261,5.2174,-1.1826
2710,0.0766,-3.2189,8.2389,-0.6957,5.287,-1.0435
2715,0.115,-3.2955,8.1622,-0.6957,5.3565,-1.1826
2720,0.0383,-3.2189,8.2772,-0.7652,5.4261,-0.9739
2725,0.1533,-3.2189,8.3155,-0.6261,5.3565,-1.1826
2730,0.0766,-3.2189,8.1239,-0.6261,5.4957,-0.8348
2735,0.0766,-3.2955,8.2005,-0.5565,5.5652,-1.0435
2740,0.1533,-3.2572,8.2005,-0.5565,5.5652,-0.8348
2745,0.2682,-3.3722,8.2772,-0.487,5.5652,-0.9043
2750,0.1916,-3.2572,8.3155,-0.2783,5.5652,-0.8348
2755,0.0766,-3.2572,8.2005,-0.1391,5.5652,-0.9739
2760,0.0766,-3.3339,8.1622,0.0,5.5652,-0.7652
2765,0.0766,-3.2189,8.2389,-0.0696,5.6348,-0.9739
2770,0.115,-3.2572,8.2389,0.0,5.6348,-0.9043
2775,0.1533,-3.2955,8.2772,0.0696,5.4957,-1.0435
2780,0.1533,-3.2955,8.2772,0.0,5.4261,-0.9043
2785,0.2299,-3.4105,8.1622,-0.0696,5.4261,-1.1826
2790,0.1533,-3.2955,8.2389,0.0,5.3565,-1.113
2795,0.115,-3.1806,8.2005,0.0696,5.4261,-1.1826
2800,0.2299,-3.3339,8.1622,0.0696,5.287,-1.113
2805,0.115,-3.3339,8.1239,0.0696,5.1478,-1.3217
2810,0.115,-3.3339,8.1622,0.0,5.287,-1.113
2815,0.1533,-3.2572,8.2389,0.0,5.0783,-1.2522
2820,0.1916,-3.2955,8.4305,0.0,5.0087,-1.0435
2825,0.1533,-3.2955,8.2005,0.0696,5.0783,-1.1826
2830,0.0766,-3.1806,8.0856,0.0696,4.8696,-1.0435
2835,0.0383,-3.3339,8.0089,0.1391,4.8696,-1.113
2840,0.0383,-3.2189,8.2389,0.1391,4.8,-0.9043
2845,0.115,-3.3722,8.2772,0.1391,4.8,-0.9043
2850,0.1533,-3.2572,8.2005,0.1391,4.7304,-0.7652
2855,0.1533,-3.2572,8.1622,0.2087,4.5913,-0.7652
2860,0.115,-3.3722,8.1239,0.2087,4.5913,-0.487
2865,0.0766,-3.2189,8.1622,0.2087,4.5913,-0.6261
2870,0.0383,-3.2189,8.1622,0.0696,4.5217,-0.487
2875,0.115,-3.2955,8.0473,0.1391,4.4522,-0.4174
2880,0.115,-3.1423,8.1239,0.0696,4.3826,-0.2087
2885,0.2682,-3.4105,8.0089,0.1391,4.3826,-0.2783
2890,0.0766,-3.3339,8.1622,0.0,4.2435,-0.2783
2895,0.1916,-3.3339,8.1622,-0.0696,4.2435,-0.2783
2900,0.1533,-3.2955,8.0856,-0.0696,4.1739,-0.1391
2905,0.115,-3.2955,8.2005,-0.0696,4.313,-0.2087
2910,0.0383,-3.2572,8.1622,-0.0696,4.313,-0.0696
2915,0.1533,-3.2572,8.1622,0.0696,4.313,-0.2087
2920,0.1916,-3.2955,8.1239,0.1391,4.313,-0.0696
2925,0.0383,-3.1806,8.2389,0.2783,4.3826,-0.0696
2930,0.1533,-3.2189,8.1239,0.487,4.2435,-0.1391
2935,0.1916,-3.2572,8.2389,0.5565,4.1739,-0.0696
2940,0.115,-3.1423,8.1622,0.6957,4.0348,-0.0696
2945,0.2299,-3.1806,8.2389,0.9043,4.1043,-0.1391
2950,0.0766,-3.2955,8.2772,0.9739,4.1043,-0.0696
2955,0.1533,-3.2955,8.1622,1.0435,4.1043,-0.2087
2960,0.1916,-3.2189,8.2772,1.1826,4.0348,-0.1391
2965,0.0766,-3.2189,8.2005,1.113,4.0348,-0.2087
2970,0.115,-3.1806,8.2389,1.2522,4.2435,-0.1391
2975,0.1533,-3.2955,8.3155,1.1826,4.1739,-0.0696
2980,0.115,-3.3339,8.1239,1.3217,4.1043,0.0
2985,0.115,-3.2189,8.1622,1.3217,4.2435,0.0
2990,0.115,-3.3339,8.2389,1.3217,4.313,-0.0696
2995,0.0766,-3.3339,8.2005,1.1826,4.313,-0.0696
