timestamp,accX,accY,accZ,gyroX,gyroY,gyroZ
0,-2.7207,-8.852,-3.5638,-14.7478,-85.7043,-31.1652
5,-2.6824,-8.6604,-3.6404,-13.7739,-88.0696,-31.5826
10,-2.6824,-8.5838,-3.832,-12.8696,-90.5043,-31.7217
15,-2.6058,-8.5454,-3.8704,-12.4522,-92.7304,-31.8609
20,-2.6058,-8.3538,-4.062,-12.2435,-94.7478,-31.9304
25,-2.4142,-8.3155,-3.947,-12.313,-96.7652,-31.8609
30,-2.2992,-8.2389,-4.062,-12.5217,-98.6435,-31.6522
35,-2.3375,-8.0473,-4.2536,-12.4522,-100.5217,-31.7217
40,-1.9927,-8.2005,-4.0236,-12.3826,-102.4696,-31.3043
45,-1.7244,-8.0473,-4.062,-12.1739,-104.0,-30.9565
50,-1.5328,-8.2389,-4.0236,-12.1739,-105.4609,-30.6087
55,-1.2646,-8.0473,-4.1386,-12.2435,-106.4348,-30.3304
60,-1.073,-8.0856,-3.947,-12.5217,-107.4783,-29.8435
65,-0.9963,-8.1622,-3.947,-12.8,-108.313,-29.4261
70,-0.6898,-8.1239,-4.1003,-13.1478,-108.5913,-28.9391
75,-0.5748,-8.2772,-4.1769,-13.6348,-109.0783,-28.3826
80,-0.3449,-8.3155,-4.3302,-14.1217,-109.2174,-27.7565
85,-0.3449,-8.3538,-4.4068,-14.7478,-109.0087,-27.1304
90,-0.1533,-8.5071,-4.3302,-15.3043,-108.7304,-26.5043
95,-0.1533,-8.5838,-4.1769,-15.7217,-108.1739,-25.8783
100,-0.0766,-8.737,-4.2536,-15.8609,-107.4087,-25.2522
105,-0.1533,-8.852,-4.4068,-16.0,-106.2957,-24.487
110,-0.1533,-8.852,-4.2152,-15.9304,-104.7652,-23.5826
115,-0.0766,-9.0053,-4.1386,-15.3739,-103.3043,-22.7478
120,-0.115,-9.3502,-4.1769,-14.3304,-101.4957,-21.9826
125,-0.1533,-9.3502,-3.947,-12.9391,-99.6174,-21.1478
130,-0.115,-9.3885,-4.062,-11.3391,-97.0435,-20.5913
135,0.0,-9.5801,-3.9087,-9.8783,-93.6348,-20.1739
140,-0.0766,-9.7334,-4.1003,-8.5565,-89.7391,-19.9652
145,0.0383,-9.81,-3.9853,-7.513,-85.2174,-19.6174
150,0.1916,-9.81,-4.0236,-6.7478,-80.4174,-19.2696
155,0.115,-10.0016,-3.7937,-6.6783,-75.5478,-19.1304
160,0.3449,-10.1549,-4.1386,-6.8174,-70.4696,-18.713
165,0.4215,-10.3082,-3.947,-7.0957,-65.4609,-18.2261
170,0.5748,-10.4614,-3.832,-7.1652,-60.8696,-17.8087
175,0.7281,-10.6914,-3.4105,-6.4696,-56.4174,-17.1826
180,0.843,-10.7297,-3.4488,-5.0783,-52.313,-16.6957
185,0.843,-10.5764,-3.5638,-3.2696,-48.4174,-16.1391
190,0.8814,-10.5764,-3.6021,-1.113,-44.8,-15.7217
195,0.9197,-10.5764,-3.6021,1.3217,-41.2522,-15.2348
200,0.7281,-10.3082,-3.1806,4.0348,-38.3304,-14.6783
205,0.6898,-10.2315,-3.3722,6.8174,-35.8261,-14.1913
210,0.4598,-10.0782,-3.2955,9.6,-33.3217,-13.7739
215,0.1916,-9.7717,-3.1039,11.9652,-30.8174,-13.3565
220,0.1533,-9.4268,-3.1423,14.1217,-28.8696,-13.0087
225,0.0,-9.1586,-2.989,15.7217,-27.4087,-12.7304
230,-0.3832,-8.852,-2.7591,16.5565,-26.3652,-12.1739
235,-0.4598,-8.6604,-2.6824,16.6261,-25.7391,-11.5478
240,-0.7281,-8.4305,-2.6058,16.0696,-25.1826,-10.4348
245,-0.8814,-8.3921,-2.5291,14.887,-24.6261,-9.2522
250,-1.1879,-8.3155,-2.4908,13.0783,-24.0,-8.0696
255,-1.1496,-8.2005,-2.3375,11.2,-22.6783,-6.7478
260,-1.3412,-8.2389,-2.2226,9.5304,-21.4957,-5.7043
265,-1.5328,-8.5071,-2.5291,8.3478,-20.3826,-5.0783
270,-1.4562,-8.5071,-2.4142,7.9304,-19.4087,-4.8696
275,-1.4945,-8.6604,-2.4908,7.7913,-18.7826,-4.8696
280,-1.6478,-8.737,-2.7591,7.3739,-18.087,-5.1478
285,-1.6095,-8.967,-2.7974,6.5391,-17.7391,-5.913
290,-1.6095,-9.1202,-2.7974,5.3565,-17.4609,-6.6087
295,-1.6478,-9.2352,-2.9507,4.2435,-17.6,-7.3739
300,-1.7244,-9.4651,-2.874,3.4087,-18.087,-8.2783
305,-1.5711,-9.6567,-2.7974,2.9217,-19.0609,-9.113
310,-1.6861,-9.7334,-2.9123,2.7826,-20.1739,-10.1565
315,-1.5328,-9.7334,-3.0273,3.0609,-21.7043,-11.0609
320,-1.7627,-9.81,-2.7974,3.5478,-23.0261,-11.9652
325,-1.7244,-9.695,-2.9123,4.1739,-24.4174,-12.7304
330,-1.5328,-9.8483,-2.9507,4.6609,-25.6,-13.3565
335,-1.5711,-9.5801,-2.989,4.7304,-26.8522,-13.6348
340,-1.4562,-9.4651,-3.0273,4.8,-28.1739,-13.913
345,-1.5711,-9.2735,-3.1039,4.8696,-29.287,-14.1913
350,-1.5711,-9.1586,-3.2189,4.9391,-30.5391,-14.3304
355,-1.5328,-9.0053,-3.4105,5.2174,-31.7913,-14.4
360,-1.5328,-8.8137,-3.3722,5.4261,-32.9739,-14.4
365,-1.4945,-8.6221,-3.3339,5.3565,-33.7391,-14.2609
370,-1.4562,-8.6221,-3.2955,5.287,-34.2957,-14.0522
375,-1.1879,-8.5454,-3.4105,5.1478,-34.5043,-13.8435
380,-1.3412,-8.3155,-3.5255,4.8696,-34.4348,-13.4957
385,-1.3029,-8.3155,-3.5638,4.2435,-34.2957,-13.1478
390,-1.1879,-8.4688,-3.3722,3.5478,-34.2261,-12.5913
395,-0.958,-8.3921,-3.4871,2.5739,-34.1565,-12.0348
400,-1.0346,-8.6221,-3.4871,1.5304,-34.0174,-11.4087
405,-0.9197,-8.8137,-3.5638,0.487,-33.8087,-10.8522
410,-0.8814,-9.0436,-3.4488,-0.3478,-33.4609,-10.4348
415,-0.8047,-9.0819,-3.5255,-0.7652,-32.9739,-10.0174
420,-0.5365,-9.2735,-3.3722,-0.6261,-32.2087,-9.8087
425,-0.5365,-9.4268,-3.5638,-0.2087,-31.3739,-9.8783
430,-0.7281,-9.2735,-3.6404,0.6261,-30.4,-9.9478
435,-0.5748,-9.3118,-3.7554,1.6,-29.2174,-10.2957
440,-0.5748,-9.3118,-3.6021,2.5739,-27.9652,-10.5043
445,-0.5748,-9.1586,-3.6021,3.4087,-26.5043,-10.8522
450,-0.4982,-9.1586,-3.7554,4.2435,-25.0435,-11.3391
455,-0.5748,-9.0819,-3.6404,4.8696,-23.3739,-11.5478
460,-0.5748,-8.6987,-3.6787,5.3565,-21.7043,-11.6174
465,-0.6514,-8.737,-3.5638,5.4261,-20.0348,-11.7565
470,-0.4215,-8.6221,-3.6787,5.0087,-18.3652,-11.687
475,-0.5365,-8.5454,-3.5638,4.1043,-16.7652,-11.1304
480,-0.7281,-8.4305,-3.7171,3.0609,-15.513,-10.6435
485,-0.7281,-8.5454,-3.6021,2.0174,-14.6783,-9.9478
490,-0.7281,-8.6987,-3.4105,1.3913,-14.0522,-9.2522
495,-0.7664,-8.737,-3.2955,0.9739,-13.4261,-8.487
500,-0.8814,-8.7754,-3.4105,1.2522,-12.9391,-7.9304
505,-0.8814,-8.9286,-3.5255,1.7391,-12.3826,-7.513
510,-0.958,-9.0436,-3.3722,2.3652,-11.6174,-7.2348
515,-0.9197,-8.967,-3.4105,3.4087,-10.5739,-7.1652
520,-0.958,-9.1202,-3.4105,4.7304,-9.6,-7.0957
525,-1.1496,-9.1969,-3.4488,6.2609,-8.5565,-7.2348
530,-1.0346,-9.3118,-3.4105,7.9304,-7.2348,-7.7217
535,-1.0346,-9.5034,-3.3339,9.4609,-6.1217,-7.7913
540,-1.1496,-9.4268,-3.2572,10.9217,-4.7304,-7.8609
545,-0.9963,-9.3885,-3.4105,12.1739,-3.8957,-7.8609
550,-0.9963,-9.4651,-3.6404,13.4261,-3.1304,-7.9304
555,-0.958,-9.4651,-3.7171,14.6783,-2.2261,-7.5826
560,-0.8047,-9.4268,-3.6404,15.6522,-1.3913,-7.3739
565,-0.843,-9.3118,-3.947,16.487,-0.7652,-7.1652
570,-0.8814,-9.2352,-3.6404,17.1826,-0.0696,-6.6783
575,-0.8814,-9.3118,-3.7554,18.0174,0.7652,-6.1913
580,-0.843,-9.2735,-3.7171,18.9913,1.4609,-5.7043
585,-0.6514,-9.3118,-3.5255,20.1043,2.2261,-5.2174
590,-0.5365,-9.3118,-3.7937,21.6348,3.0609,-4.8696
595,-0.843,-9.2352,-3.7937,23.7217,4.313,-4.5217
600,-0.5365,-9.1202,-3.9853,26.0174,5.4261,-4.313
605,-0.2682,-9.2352,-4.062,28.5913,6.8174,-4.5217
610,-0.3066,-9.0053,-4.0236,31.3739,8.2087,-4.8
615,-0.1916,-8.852,-4.1386,34.5739,9.5304,-5.2174
620,-0.1533,-8.6604,-4.1769,37.7739,10.3652,-5.913
625,-0.0766,-8.6221,-4.2536,41.0435,10.713,-6.5391
630,-0.115,-8.4305,-4.3302,43.8957,11.2,-7.2348
635,0.0,-8.3538,-4.2536,46.1913,11.5478,-8.0696
640,0.0383,-8.3155,-4.2152,48.1391,11.8957,-8.8348
645,-0.0766,-8.1622,-3.9853,49.4609,12.7304,-9.3217
650,-0.0383,-8.0473,-3.832,50.087,13.7043,-9.4609
655,-0.0383,-8.2005,-3.5638,50.087,14.8174,-9.2522
660,-0.115,-8.1622,-3.6404,49.2522,15.9304,-8.9739
665,-0.0766,-8.2389,-3.3339,47.9304,17.0435,-8.4174
670,-0.1533,-8.3538,-3.1806,46.4696,17.8087,-7.513
675,-0.1916,-8.4688,-3.0656,44.8,18.0174,-6.6087
680,-0.2299,-8.5071,-2.989,43.0609,17.6,-5.7739
685,-0.3832,-8.6221,-2.874,41.6,16.5565,-4.6609
690,-0.2682,-8.9286,-2.6058,40.0,15.2348,-3.5478
695,-0.5365,-8.852,-2.4142,38.3304,13.7043,-2.4348
700,-0.6898,-9.2735,-2.2609,36.5217,11.8957,-1.4609
705,-0.7281,-9.3502,-2.3759,34.713,9.9478,-0.3478
710,-0.843,-9.5418,-2.4142,32.9043,8.0696,0.5565
715,-0.9963,-9.695,-2.4908,31.0957,6.1217,1.6
720,-1.1879,-9.7717,-2.2992,29.8435,4.1043,2.2261
725,-1.1879,-9.925,-2.3759,29.287,1.9478,2.713
730,-1.1879,-10.0016,-2.2609,29.3565,-0.2087,2.713
735,-1.3795,-10.0782,-2.1843,29.9826,-1.7391,2.4348
740,-1.3412,-9.9633,-2.4525,30.887,-2.7826,1.6
745,-1.3412,-10.0399,-2.4908,31.6522,-3.5478,0.4174
750,-1.3029,-9.8866,-2.4908,32.1391,-4.4522,-1.113
755,-1.2263,-9.695,-2.8357,32.1391,-4.9391,-2.9913
760,-0.9963,-9.695,-2.6824,31.3739,-5.7043,-4.8
765,-0.9963,-9.3885,-2.6824,29.913,-6.1913,-6.5391
770,-0.8814,-9.4268,-2.6441,27.6174,-6.5391,-8.487
775,-0.8047,-9.1969,-2.5291,24.7652,-6.4696,-10.2957
780,-0.6514,-9.1202,-2.6058,21.287,-6.3304,-11.9652
785,-0.6131,-9.1202,-2.4908,18.0174,-6.1217,-13.4957
790,-0.3832,-9.1586,-2.4525,14.887,-6.0522,-14.887
795,-0.3449,-9.0053,-2.6058,12.2435,-6.4,-15.8609
800,-0.2299,-9.0436,-2.6441,9.8087,-6.5391,-16.9043
805,-0.115,-9.0436,-2.7591,7.6522,-6.4696,-17.7391
810,-0.1533,-9.0819,-2.7207,5.9826,-6.1913,-18.4348
815,-0.1533,-8.967,-2.6824,4.8696,-5.7739,-18.8522
820,-0.1533,-9.0053,-2.7591,3.7565,-5.5652,-19.0609
825,-0.1916,-9.0053,-2.6824,2.8522,-5.5652,-19.1304
830,-0.1533,-8.852,-2.7591,1.9478,-5.7043,-19.0609
835,-0.2299,-8.6987,-2.7591,0.8348,-5.6348,-19.0609
840,-0.1916,-8.7754,-2.7207,-0.487,-5.2174,-18.8522
845,-0.1916,-8.852,-2.7974,-2.1565,-4.7304,-18.5739
850,-0.1533,-8.6604,-2.7207,-3.4783,-4.0348,-18.3652
855,-0.0383,-8.5838,-2.7207,-4.5217,-3.4087,-18.1565
860,-0.0383,-8.5838,-2.6824,-5.4261,-2.713,-17.9478
865,0.0766,-8.5071,-2.5291,-5.913,-2.0174,-17.5304
870,0.0383,-8.6221,-2.7974,-6.1913,-1.2522,-16.9739
875,0.1533,-8.6604,-2.6824,-6.0522,-0.3478,-16.6261
880,0.1533,-8.5071,-2.7207,-5.8435,0.487,-15.8609
885,0.2682,-8.6987,-2.7207,-5.5652,1.2522,-15.3739
890,0.3066,-8.6604,-2.6441,-5.7043,1.9478,-14.887
895,0.2682,-8.5838,-2.7591,-6.1217,2.713,-14.2609
900,0.3832,-8.6604,-2.6441,-6.887,3.2696,-13.3565
905,0.1533,-8.6221,-2.874,-8.1391,3.687,-12.4522
910,0.115,-8.737,-2.7974,-9.8087,4.0348,-11.4783
915,0.115,-8.8903,-2.6441,-11.6174,4.1043,-10.5043
920,-0.115,-9.1202,-2.6441,-13.0783,4.1043,-9.5304
925,-0.115,-9.3118,-2.6058,-13.5652,4.0348,-8.6957
930,-0.2299,-9.4651,-2.4908,-13.4261,3.8957,-7.8609
935,-0.3066,-9.5034,-2.4525,-12.9391,3.8957,-7.513
940,-0.4982,-9.5034,-2.1843,-11.687,3.687,-7.0261
945,-0.5365,-9.6567,-2.2992,-10.087,3.5478,-6.6783
950,-0.4598,-9.7334,-2.2609,-8.2087,3.2696,-6.6783
955,-0.6514,-9.81,-2.2992,-6.1217,2.9913,-6.8174
960,-0.7664,-9.695,-2.1076,-4.0348,2.5739,-7.0261
965,-0.6131,-9.6567,-2.3375,-2.0174,1.9478,-7.3739
970,-0.6514,-9.6184,-1.8011,-0.2087,1.2522,-7.7217
975,-0.7281,-9.6567,-1.9543,1.3217,0.3478,-8.0
980,-0.7664,-9.5418,-1.9927,2.5043,-0.6261,-8.2783
985,-0.6898,-9.5418,-1.9543,3.2,-1.6696,-8.6261
990,-0.6131,-9.3885,-1.9927,3.4783,-2.3652,-8.9739
995,-0.5365,-9.3885,-2.031,3.4087,-3.0609,-9.2522
1000,-0.5748,-9.2735,-1.9543,3.0609,-3.687,-9.3217
1005,-0.5748,-9.2735,-2.031,2.4348,-4.313,-9.6
1010,-0.5365,-9.4651,-1.8394,1.9478,-4.9391,-9.9478
1015,-0.7664,-9.2735,-1.9927,1.6,-5.6348,-10.1565
1020,-0.5748,-9.3502,-1.9927,1.8087,-6.4696,-10.2261
1025,-0.6131,-9.4268,-2.0693,2.3652,-7.3043,-10.2261
1030,-0.5748,-9.5418,-1.8777,3.2,-7.9304,-10.2261
1035,-0.5748,-9.3885,-1.8777,4.0348,-8.6261,-10.2957
1040,-0.6131,-9.4651,-1.8011,4.9391,-9.2522,-10.4348
1045,-0.6131,-9.5034,-1.8394,5.5652,-9.8783,-10.5739
1050,-0.7281,-9.4651,-1.8011,5.9826,-10.6435,-10.5739
1055,-0.6898,-9.6184,-1.6095,6.5391,-11.3391,-10.5043
1060,-0.4215,-9.5418,-1.4179,7.3739,-11.9652,-10.5739
1065,-0.5365,-9.5418,-1.4945,8.4174,-12.5913,-10.5739
1070,-0.4598,-9.5034,-1.5328,9.6696,-12.8,-10.5739
1075,-0.3832,-9.1586,-1.4945,10.5739,-12.9391,-10.6435
1080,-0.3449,-9.2352,-1.3412,10.713,-12.8696,-10.6435
1085,-0.1916,-9.2352,-1.5711,10.3652,-12.8696,-10.5739
1090,-0.1916,-9.0436,-1.5328,9.6,-12.9391,-10.2261
1095,-0.1533,-8.9286,-1.3795,8.4174,-13.0087,-9.8783
1100,-0.115,-8.8137,-1.4179,7.3739,-13.2174,-9.3913
1105,-0.0766,-8.6987,-1.4562,6.4,-13.3565,-8.8348
1110,0.0383,-8.8137,-1.6095,5.4957,-13.4957,-8.4174
1115,0.1533,-8.5071,-1.5711,4.4522,-13.7043,-8.0
1120,0.115,-8.5071,-1.6861,3.3391,-13.8435,-7.7217
1125,0.2299,-8.6221,-1.9543,2.087,-13.913,-7.2348
1130,0.2299,-8.5454,-1.8777,0.487,-13.5652,-6.7478
1135,0.3832,-8.5838,-1.9543,-0.7652,-13.1478,-6.2609
1140,0.3066,-8.6987,-1.9543,-2.0174,-12.5913,-5.6348
1145,0.4598,-8.6987,-2.1076,-2.9913,-12.1043,-5.1478
1150,0.6131,-8.6604,-2.2609,-3.8957,-11.8957,-4.5217
1155,0.5365,-8.7754,-2.2609,-4.8,-11.687,-4.0348
1160,0.6514,-8.8903,-2.2992,-5.6348,-11.687,-3.6174
1165,0.7281,-8.967,-2.4525,-6.0522,-11.5478,-3.2
1170,0.5365,-9.1586,-2.3375,-6.1217,-11.2696,-2.7826
1175,0.5748,-9.0053,-2.3759,-5.7739,-10.8522,-2.4348
1180,0.4598,-9.1586,-2.2992,-5.3565,-10.4348,-2.1565
1185,0.3832,-9.1969,-2.1843,-4.313,-10.1565,-2.0174
1190,0.3832,-9.4268,-2.2226,-2.9913,-9.8783,-1.9478
1195,0.4215,-9.0053,-1.8011,-1.5304,-9.4609,-1.8087
1200,0.115,-9.3118,-2.1459,0.2087,-9.0435,-1.8087
1205,0.0383,-9.3502,-2.2226,2.087,-8.487,-1.8087
1210,0.115,-9.1969,-2.1843,4.1043,-8.0,-1.6696
1215,0.0,-9.2735,-2.1076,5.9826,-7.3043,-1.3217
1220,-0.0383,-9.1969,-2.1843,7.7217,-6.7478,-1.1826
1225,-0.0766,-9.0819,-2.2609,9.5304,-6.1217,-1.0435
1230,-0.0766,-9.0053,-2.3375,11.2,-5.4957,-1.113
1235,-0.1533,-8.7754,-2.4908,12.4522,-4.8696,-1.3217
1240,-0.1533,-8.9286,-2.4142,13.1478,-4.313,-1.4609
1245,-0.3832,-8.4688,-2.4908,13.7739,-4.313,-1.6696
1250,-0.2682,-8.737,-2.4525,14.6783,-4.5913,-1.8087
1255,-0.3066,-8.8137,-2.4908,15.7217,-5.1478,-1.8783
1260,-0.3066,-8.6604,-2.4142,16.6957,-5.6348,-1.8783
1265,-0.3449,-8.5838,-2.3375,17.3913,-5.913,-1.9478
1270,-0.4598,-8.5454,-2.4525,18.0174,-6.0522,-1.8783
1275,-0.4215,-8.5838,-2.3759,18.2957,-6.2609,-2.0174
1280,-0.4982,-8.4688,-2.2992,18.6435,-6.6783,-1.9478
1285,-0.4982,-8.4305,-2.2226,18.7826,-7.0957,-1.8783
1290,-0.4598,-8.1622,-2.1843,19.1304,-7.3739,-1.7391
1295,-0.2682,-8.2772,-2.1459,19.0609,-7.6522,-1.9478
1300,-0.3066,-8.0856,-2.3375,18.6435,-7.6522,-2.2957
1305,-0.4982,-7.7407,-2.3375,17.8087,-7.513,-2.7826
1310,-0.3832,-7.8173,-2.4142,16.8348,-7.3739,-3.2696
1315,-0.1533,-7.6641,-2.2992,15.6522,-7.0957,-3.5478
1320,-0.1533,-7.5108,-2.3375,14.1217,-7.1652,-3.687
1325,-0.115,-7.4341,-2.2609,12.4522,-7.2348,-4.1043
1330,-0.1916,-7.5491,-2.1459,10.8522,-7.7913,-4.0348
1335,-0.115,-7.3958,-2.1076,8.8348,-8.5565,-4.1043
1340,-0.1533,-7.3192,-2.0693,7.0261,-9.3913,-4.0348
1345,-0.1533,-7.3575,-1.9543,5.4957,-10.6435,-3.7565
1350,-0.1533,-7.1659,-1.6861,4.0348,-12.0348,-3.4087
1355,-0.0383,-7.2425,-1.7244,2.5043,-13.4957,-3.1304
1360,-0.0383,-7.2809,-1.4562,1.1826,-14.7478,-2.9913
1365,-0.0383,-7.3192,-1.4179,0.0696,-15.513,-2.713
1370,-0.0766,-7.3575,-1.3795,-1.0435,-15.7913,-2.5043
1375,0.0,-7.3958,-1.4179,-2.6435,-16.0,-2.3652
1380,0.0766,-7.4725,-1.3029,-4.313,-16.0,-2.2261
1385,0.1916,-7.3192,-1.4179,-5.9826,-15.9304,-2.2261
1390,0.2299,-7.4341,-1.3795,-7.5826,-15.7217,-2.3652
1395,0.4215,-7.5491,-1.3412,-9.1826,-15.513,-2.6435
1400,0.4598,-7.6641,-1.3029,-10.6435,-15.2348,-2.9913
1405,0.4982,-7.7024,-1.3029,-12.2435,-14.8174,-3.2696
1410,0.4598,-7.6641,-1.2646,-13.5652,-14.3304,-3.1304
1415,0.4215,-7.6257,-1.3029,-14.8174,-14.1217,-2.7826
1420,0.4598,-7.7024,-1.4945,-16.0,-14.4,-2.2261
1425,0.4598,-7.7024,-1.6095,-17.3217,-15.1652,-1.4609
1430,0.4598,-7.7024,-1.6095,-18.5043,-16.3478,-0.9739
1435,0.4598,-7.8173,-1.5711,-19.4087,-17.2522,-0.1391
1440,0.3449,-7.9323,-1.6095,-20.3826,-18.1565,0.7652
1445,0.3449,-8.0856,-1.916,-21.0087,-18.713,1.5304
1450,0.3832,-8.2772,-1.8011,-21.4957,-18.9217,2.4348
1455,0.2682,-8.3538,-1.9927,-21.0087,-18.5739,3.3391
1460,0.3066,-8.4305,-1.9543,-19.6174,-17.6696,3.9652
1465,0.3066,-8.5071,-1.8777,-17.6,-16.3478,4.5217
1470,0.3832,-8.6604,-1.9543,-15.513,-15.1652,5.0087
1475,0.5365,-8.6987,-2.1459,-13.7739,-14.4696,5.5652
1480,0.6898,-8.7754,-2.2226,-12.8,-13.8435,6.1913
1485,0.6514,-8.6604,-2.2609,-12.5217,-13.4957,6.6783
1490,0.8814,-8.8137,-2.4525,-12.7304,-13.2174,7.0261
1495,0.9197,-8.8903,-2.5291,-13.4261,-13.0783,7.2348
1500,0.8814,-8.8903,-2.6058,-14.2609,-12.8,7.3043
1505,0.7281,-8.8903,-2.5675,-15.0957,-12.1739,7.3739
1510,0.6898,-8.852,-2.6441,-15.3739,-11.8261,7.3043
1515,0.6131,-8.852,-2.2226,-14.9565,-11.4783,7.1652
1520,0.3832,-8.7754,-2.1459,-13.8435,-11.2696,6.6087
1525,0.2682,-8.8903,-2.1076,-12.1739,-11.2,6.0522
1530,0.2299,-8.852,-1.7244,-10.3652,-10.7826,5.4261
1535,0.1533,-8.8903,-1.5711,-7.9304,-10.6435,4.8
1540,0.115,-8.6987,-1.4179,-5.0087,-10.3652,4.2435
1545,0.2299,-8.6604,-1.4562,-2.0174,-9.8783,3.687
1550,0.1916,-8.6221,-1.5711,0.8348,-8.7652,3.3391
1555,0.115,-8.5454,-1.6861,3.4087,-7.3043,2.9913
1560,0.0383,-8.2772,-1.6478,5.7739,-5.6348,2.8522
1565,0.3066,-8.0856,-1.5328,7.7913,-3.9652,2.713
1570,0.3066,-8.2772,-1.6478,9.1826,-2.5739,2.713
1575,0.3066,-8.0089,-1.7244,10.087,-1.5304,2.713
1580,0.4598,-8.0856,-1.9543,10.3652,-0.7652,2.8522
1585,0.5365,-7.8557,-1.7627,10.3652,0.0,2.9913
1590,0.7664,-7.7407,-2.031,10.3652,0.7652,3.1304
1595,0.843,-7.6641,-1.8777,10.2957,1.1826,3.1304
1600,0.9963,-7.5874,-2.0693,9.9478,1.5304,3.0609
1605,1.0346,-7.4725,-2.031,9.1826,1.8087,3.0609
1610,1.1879,-7.4341,-1.9543,8.1391,1.8783,2.8522
1615,1.2263,-7.3958,-1.916,7.1652,2.0174,2.1565
1620,1.1879,-7.3192,-1.6861,6.4,2.1565,1.6
1625,0.9963,-7.2809,-1.4945,6.1913,2.5043,1.0435
1630,1.0346,-7.3958,-1.3795,6.2609,2.9217,0.2783
1635,0.958,-7.3958,-1.1496,6.6087,4.1043,-0.5565
1640,0.8814,-7.7407,-0.9963,7.1652,5.913,-1.3217
1645,0.5748,-7.8557,-0.7281,8.4174,8.7652,-2.2261
1650,0.5365,-8.1239,-0.4598,10.3652,12.313,-2.8522
1655,0.5748,-8.3921,-0.6898,12.9391,15.6522,-3.1304
1660,0.6131,-8.8137,-0.958,15.3739,18.087,-3.4087
1665,0.3449,-9.3502,-1.2263,17.6,19.4087,-3.3391
1670,0.2299,-9.6184,-2.031,20.6609,20.1739,-2.713
1675,0.3066,-9.7717,-2.5675,23.5826,21.4261,-2.0174
1680,0.5365,-10.1549,-3.6787,25.3913,23.6522,-0.9739
1685,0.7664,-10.9213,-4.5601,25.6696,27.2,0.0696
1690,0.9197,-11.841,-4.9816,26.0174,32.2087,0.2087
1695,1.3795,-12.799,-4.8667,28.5217,38.887,-1.1826
1700,1.4179,-13.2205,-4.7517,34.3652,45.8435,-4.1739
1705,1.5711,-13.757,-4.5218,42.3652,51.4783,-8.2783
1710,1.6861,-14.0636,-4.4452,50.9217,55.7913,-12.5217
1715,1.6478,-13.9486,-4.5984,57.8783,59.1304,-16.4174
1720,1.4562,-13.3355,-5.1349,61.5652,62.2609,-19.8957
1725,1.073,-13.2205,-5.2499,61.7043,65.6696,-22.9565
1730,0.8047,-12.9523,-5.2882,57.8087,69.3565,-24.7652
1735,0.3832,-12.9523,-4.7517,51.7565,72.3478,-25.0435
1740,0.3449,-12.8756,-4.2919,46.0522,73.113,-25.2522
1745,0.2682,-12.7607,-3.6787,42.5043,70.4696,-25.3913
1750,0.2682,-12.9139,-3.2955,42.087,65.8087,-25.0435
1755,0.0766,-13.0289,-2.8357,43.4783,60.313,-24.3478
1760,-0.4982,-13.3355,-2.5675,45.6348,54.5391,-23.3739
1765,-1.0346,-13.4888,-2.4525,48.2087,48.6957,-21.4261
1770,-1.5711,-13.6037,-2.5291,49.9478,43.4087,-19.5478
1775,-2.6058,-13.757,-3.1806,48.9739,39.3739,-18.2957
1780,-3.4871,-13.8336,-3.4871,44.8696,36.7304,-17.3913
1785,-4.5218,-13.642,-3.7171,38.4696,34.2957,-17.0435
1790,-5.3648,-13.7953,-3.5638,31.513,30.887,-16.8348
1795,-5.7864,-13.7953,-3.2955,26.2261,26.087,-16.6261
1800,-6.2462,-13.757,-3.0273,23.1652,19.687,-15.8609
1805,-6.0163,-13.5654,-2.8357,22.887,12.0348,-14.3304
1810,-5.4415,-13.3355,-2.2992,25.6696,3.687,-12.0348
1815,-4.8284,-13.1055,-2.2609,30.6087,-4.313,-9.2522
1820,-4.3685,-13.0289,-2.3759,35.4783,-11.6174,-6.0522
1825,-3.5638,-12.8756,-2.1843,38.8174,-18.2261,-2.3652
1830,-3.2572,-12.3391,-2.1459,40.0696,-24.4174,1.3217
1835,-2.6824,-12.3391,-1.8394,39.1652,-29.913,4.3826
1840,-2.4142,-12.1859,-2.0693,36.4522,-34.5043,6.8174
1845,-2.031,-11.9559,-1.6861,32.487,-37.9826,8.4174
1850,-1.4179,-11.9943,-1.6861,28.0348,-40.2087,9.3913
1855,-0.843,-11.8027,-1.6095,23.6522,-41.4609,9.6696
1860,-0.1916,-11.8793,-1.7627,19.7565,-42.0174,9.4609
1865,-0.1533,-11.7643,-1.7244,16.9739,-42.0174,8.487
1870,0.4215,-11.5727,-1.6095,15.6522,-41.2522,7.7217
1875,0.958,-11.4578,-1.4945,15.3043,-39.7913,6.7478
1880,1.3795,-11.2662,-1.5711,15.3043,-38.0522,5.913
1885,1.6478,-10.8063,-1.7244,15.3739,-36.4522,5.287
1890,1.8777,-10.5764,-1.6861,15.1652,-34.6435,5.0087
1895,1.7244,-10.3848,-1.8011,14.1913,-32.6261,5.5652
1900,2.0693,-9.9633,-1.8394,12.3826,-30.1913,6.887
1905,2.1076,-9.81,-1.9927,9.2522,-27.5478,8.6957
1910,2.0693,-9.5418,-2.0693,5.4957,-25.5304,10.6435
1915,2.031,-9.4651,-2.1459,1.6,-23.6522,12.4522
1920,1.8011,-9.3502,-2.2609,-2.1565,-21.8435,14.3304
1925,1.4945,-9.0436,-2.2226,-5.7043,-19.687,15.9304
1930,1.2263,-8.8903,-2.1843,-8.8348,-17.4609,17.1826
1935,0.7664,-8.967,-2.1076,-10.8522,-15.3043,18.6435
1940,0.3832,-8.967,-1.916,-11.8957,-13.2174,20.0348
1945,0.0,-8.8137,-2.0693,-11.8957,-11.2696,21.4261
1950,-0.1916,-8.852,-1.6478,-11.7565,-9.7391,22.6087
1955,-0.4598,-8.7754,-1.5328,-11.5478,-8.9043,23.6522
1960,-0.7281,-8.6221,-1.5711,-11.4087,-8.6261,24.487
1965,-0.9963,-8.2772,-1.5328,-11.2,-8.9739,25.2522
1970,-1.1113,-8.1622,-1.4562,-10.9913,-9.5304,25.6
1975,-1.3795,-7.7024,-1.4562,-10.7826,-10.3652,25.8783
1980,-1.5328,-7.5108,-1.3795,-10.5739,-11.3391,26.087
1985,-1.6861,-7.3958,-1.3029,-10.3652,-12.5217,25.8783
1990,-1.8394,-7.2042,-1.2646,-10.087,-13.7739,25.6696
1995,-1.916,-6.936,-1.2263,-9.8783,-15.0261,25.1826
2000,-1.9543,-6.7061,-1.3795,-9.6696,-16.1391,24.487
2005,-2.0693,-6.6677,-1.3412,-9.8087,-16.9043,24.0
2010,-2.031,-6.7061,-1.3795,-10.713,-17.4609,23.3043
2015,-2.1076,-6.6677,-1.5328,-12.2435,-17.6696,22.4
2020,-2.1843,-6.3612,-1.6095,-14.5391,-17.9478,21.0783
2025,-2.031,-6.5911,-1.7627,-17.113,-18.2957,19.4087
2030,-2.031,-6.7444,-1.9543,-20.0348,-18.4348,17.6696
2035,-1.9927,-6.821,-2.1076,-23.0957,-18.8522,15.7913
2040,-1.9543,-7.0126,-2.1843,-25.4609,-19.1304,13.7043
2045,-1.7244,-7.3575,-2.0693,-26.7826,-19.3391,10.8522
2050,-1.4945,-7.6257,-2.2226,-26.8522,-19.3391,8.2783
2055,-1.4562,-7.894,-2.2226,-25.5304,-18.9913,5.8435
2060,-1.2646,-8.0089,-1.9543,-23.0957,-17.9478,3.3391
2065,-1.1113,-8.2772,-1.9543,-20.0348,-17.3217,1.1826
2070,-0.958,-8.5071,-1.9543,-15.3043,-16.487,-1.3217
2075,-0.8047,-8.5071,-1.6861,-10.713,-15.3739,-3.8957
2080,-0.4982,-8.6604,-1.4945,-5.3565,-13.8435,-6.8174
2085,-0.3449,-8.4688,-1.2263,0.487,-12.1043,-9.8087
2090,-0.4215,-8.2772,-1.1113,6.5391,-10.087,-12.5913
2095,-0.1533,-8.0856,-1.073,11.7565,-8.0,-15.3739
2100,-0.2682,-7.7407,-1.1113,15.4435,-5.9826,-17.6
2105,-0.2299,-7.6257,-1.073,17.7391,-4.3826,-19.687
2110,0.0,-7.5874,-0.6131,18.9217,-3.2696,-21.4261
2115,-0.3066,-7.3192,-0.9963,19.0609,-2.5739,-22.7478
2120,-0.3066,-7.2425,-0.8814,18.2261,-2.2957,-23.513
2125,-0.3832,-6.9743,-0.8814,16.9043,-2.0174,-23.513
2130,-0.3449,-6.821,-0.8814,15.1652,-1.9478,-22.887
2135,-0.2682,-7.0126,-0.8814,13.4957,-1.6696,-21.913
2140,-0.1916,-7.0893,-0.8814,12.0348,-1.3913,-20.6609
2145,-0.1533,-7.1276,-0.6514,10.8522,-1.2522,-19.4087
2150,0.0,-7.2809,-0.4982,10.0174,-1.5304,-18.2957
2155,-0.0766,-7.3575,-0.4215,9.3913,-1.8783,-17.1826
2160,-0.115,-7.4341,-0.3832,9.113,-2.2261,-16.4174
2165,0.115,-7.5108,-0.4598,8.8348,-2.5043,-15.8609
2170,0.1533,-7.6257,-0.3066,8.4174,-2.6435,-15.5826
2175,0.2682,-7.7407,-0.4215,8.0,-2.713,-15.4435
2180,0.2682,-7.779,-0.4982,6.8174,-2.4348,-15.1652
2185,0.2682,-7.8557,-0.6898,5.287,-2.0174,-14.9565
2190,0.2299,-7.894,-0.6898,3.4087,-1.8783,-15.1652
2195,0.3449,-7.9323,-0.8814,1.2522,-2.4348,-15.1652
2200,0.1533,-7.9706,-0.9197,-1.113,-3.3391,-14.8174
2205,0.1533,-7.9323,-0.9963,-3.5478,-4.6609,-14.2609
2210,0.1533,-7.9706,-0.958,-5.4957,-6.1217,-13.4261
2215,0.3066,-7.894,-1.0346,-6.7478,-7.4435,-12.6609
2220,0.115,-7.9706,-1.0346,-7.1652,-8.0,-11.2
2225,0.0,-7.7024,-0.9963,-7.5826,-8.0,-9.6
2230,0.0383,-7.7024,-0.958,-7.7217,-7.5826,-8.0
2235,-0.1533,-7.6257,-1.073,-8.1391,-7.1652,-6.5391
2240,-0.2682,-7.7407,-1.3795,-9.0435,-7.4435,-5.2174
2245,-0.4215,-7.8173,-1.3412,-10.8522,-8.1391,-3.687
2250,-0.4598,-7.8557,-1.3795,-13.1478,-8.9739,-2.7826
2255,-0.5365,-8.0473,-1.3795,-15.2348,-9.4609,-2.6435
2260,-0.3449,-8.4305,-1.1496,-16.2087,-9.1826,-2.9913
2265,-0.4215,-8.6221,-1.1113,-15.5826,-8.5565,-3.8957
2270,-0.4982,-8.852,-0.9963,-13.6348,-7.7913,-4.9391
2275,-0.5748,-8.967,-0.9963,-10.9913,-6.6087,-6.0522
2280,-0.4982,-8.852,-1.1113,-8.2087,-5.2174,-7.3043
2285,-0.3066,-9.0819,-1.3029,-5.8435,-3.9652,-8.5565
2290,-0.3832,-9.0436,-1.4945,-4.2435,-3.3391,-9.8087
2295,-0.4215,-9.0053,-1.6478,-3.5478,-3.2696,-10.8522
2300,-0.3832,-9.0819,-1.6861,-3.1304,-3.5478,-11.687
2305,-0.4215,-9.1586,-1.4945,-2.1565,-3.7565,-12.313
2310,-0.6898,-9.1586,-1.4179,-0.1391,-3.8957,-12.5217
2315,-0.6898,-8.967,-1.5328,2.5739,-3.6174,-12.313
2320,-0.5748,-8.8137,-1.4179,5.287,-2.9913,-11.8957
2325,-0.6898,-8.737,-1.2263,7.0957,-2.4348,-11.5478
2330,-0.6514,-8.5454,-1.2646,7.7217,-2.1565,-11.1304
2335,-0.6898,-8.3921,-1.3795,7.0261,-2.4348,-10.7826
2340,-0.7281,-8.2005,-1.4179,5.4261,-3.3391,-10.7826
2345,-0.6898,-8.3538,-1.2263,3.2,-4.8,-10.8522
2350,-0.9197,-8.3538,-1.1496,0.7652,-6.1913,-10.713
2355,-0.9963,-8.5071,-1.3795,-1.8087,-7.3043,-10.3652
2360,-1.1879,-8.3921,-1.3795,-3.9652,-8.4174,-9.7391
2365,-1.1496,-8.5454,-1.2646,-5.5652,-9.6696,-9.4609
2370,-1.1496,-8.6604,-1.0346,-6.4,-10.6435,-9.0435
2375,-0.9963,-8.852,-1.2263,-6.2609,-11.4087,-8.6957
2380,-0.9197,-8.6604,-1.2646,-5.7739,-11.5478,-8.5565
2385,-0.6131,-8.5454,-1.1113,-5.2174,-11.0609,-8.6261
2390,-0.4982,-8.6221,-1.1113,-4.7304,-10.5043,-8.2783
2395,-0.3066,-8.6987,-0.9197,-4.5217,-10.0174,-7.7913
2400,-0.1533,-8.5454,-0.958,-5.0087,-9.8087,-7.3739
2405,-0.115,-8.6604,-0.9963,-5.8435,-9.6696,-6.7478
2410,0.115,-8.852,-0.843,-6.4696,-9.7391,-6.1913
2415,0.3449,-9.0053,-0.4982,-6.4696,-9.6,-5.7739
2420,0.1916,-9.0053,-0.6514,-5.4957,-9.1826,-5.4957
2425,0.4598,-9.2735,-0.6131,-3.7565,-8.7652,-5.3565
2430,0.4982,-9.1202,-0.6131,-1.5304,-7.7913,-5.3565
2435,0.5365,-9.0436,-0.5365,0.9739,-6.7478,-5.4261
2440,0.4982,-9.0436,-0.6514,3.5478,-5.7739,-5.4261
2445,0.3449,-8.737,-0.5748,5.3565,-4.7304,-5.2174
2450,0.1916,-8.737,-0.5748,6.6087,-3.687,-4.8
2455,-0.0766,-8.737,-0.3832,7.2348,-2.713,-4.313
2460,-0.1533,-8.8137,-0.4982,7.1652,-1.6,-3.5478
2465,-0.1916,-8.967,-0.4982,6.5391,-0.1391,-2.5043
2470,-0.7281,-9.1202,-0.958,6.4,1.3913,-1.3913
2475,-0.9197,-9.1969,-1.5711,5.913,0.7652,0.7652
2480,-1.1496,-9.5801,-2.1076,4.5217,-0.9739,2.713
2485,-1.0346,-9.8483,-2.3375,3.0609,-0.9043,4.5217
2490,-0.958,-10.2315,-2.2609,1.3217,1.3217,5.8435
2495,-0.7281,-10.9596,-2.6824,-0.6261,5.4957,6.887
2500,-0.6898,-11.5344,-3.0273,-2.7826,9.7391,7.4435
2505,-0.8047,-12.3008,-3.6787,-4.2435,11.5478,7.8609
2510,-0.843,-12.9523,-4.0236,-4.8,9.9478,8.2783
2515,-0.8047,-13.642,-4.8284,-4.3826,5.0783,9.4609
2520,-0.6898,-14.1785,-5.2882,-2.9217,-0.8348,11.2696
2525,-0.6131,-14.4084,-5.4415,-0.7652,-5.8435,13.913
2530,-0.9197,-14.6767,-5.3265,2.3652,-9.6,17.3217
2535,-1.1113,-14.715,-5.3265,6.5391,-12.5217,21.1478
2540,-1.2263,-14.5617,-4.905,11.7565,-15.4435,25.1826
2545,-1.2263,-14.1785,-4.9816,17.7391,-17.9478,28.5913
2550,-1.0346,-13.757,-4.9433,23.2348,-19.3391,31.4435
2555,-0.9963,-13.4121,-4.8667,27.1304,-19.0609,33.6
2560,-0.6898,-13.0672,-4.6751,29.0783,-17.8783,34.9913
2565,-0.2299,-12.7223,-4.3685,29.4261,-16.487,35.1304
2570,0.115,-12.799,-3.7937,28.9391,-14.6087,34.6435
2575,0.5748,-12.6457,-3.1423,28.4522,-12.8696,33.5304
2580,1.0346,-12.8373,-2.7591,28.0348,-11.0609,32.3478
2585,1.3795,-12.8373,-2.2992,27.687,-8.6957,30.9565
2590,1.6095,-12.8756,-2.1076,27.8957,-5.7739,29.287
2595,1.7627,-12.9523,-1.8011,28.3826,-2.713,27.4783
2600,1.916,-12.9139,-1.916,28.8,-0.0696,25.2522
2605,1.8777,-12.5307,-1.9543,28.7304,2.0174,22.5391
2610,1.7627,-12.3775,-2.1076,28.313,3.6174,19.6174
2615,1.6095,-12.4158,-2.2992,27.7565,5.4261,16.6957
2620,1.2263,-12.3008,-1.9543,27.8261,7.7217,14.0522
2625,0.9197,-12.2625,-1.8394,29.0087,10.7826,11.4087
2630,0.7281,-12.2625,-1.7627,30.4,13.7739,8.487
2635,0.1916,-12.1092,-1.5328,32.0,16.2087,5.7739
2640,-0.1533,-12.0709,-1.6861,33.5304,17.8087,3.4783
2645,-0.4215,-11.7643,-1.7244,33.9478,19.4783,1.4609
2650,-0.6131,-11.6877,-2.031,32.9739,21.4957,-0.0696
2655,-1.073,-11.2279,-2.2609,30.4696,23.8609,-1.5304
2660,-1.1879,-11.1512,-2.2226,25.8087,26.2261,-3.2
2665,-1.3795,-11.0363,-2.2226,20.5217,26.9913,-4.8696
2670,-1.5711,-10.7297,-2.1459,14.887,26.0174,-5.913
2675,-1.6095,-10.6147,-1.7627,10.2261,23.7217,-6.5391
2680,-1.6478,-10.5381,-1.5328,7.4435,20.2435,-7.2348
2685,-1.7627,-10.4231,-1.8394,6.1217,17.4609,-7.6522
2690,-1.7244,-10.1932,-1.6478,4.5217,14.8174,-8.4174
2695,-1.6095,-9.925,-1.7244,2.8522,12.313,-8.9739
2700,-1.5328,-9.8483,-1.7244,0.8348,9.6,-9.7391
2705,-1.3029,-9.695,-2.1076,-1.8087,6.6783,-10.9217
2710,-1.1113,-9.5801,-1.6861,-5.0783,3.1304,-12.5913
2715,-0.7281,-9.3118,-1.8394,-8.2783,-0.5565,-13.913
2720,-0.3449,-9.1202,-2.0693,-11.7565,-3.687,-15.0261
2725,-0.1916,-8.967,-2.1076,-15.3043,-5.6348,-15.8609
2730,-0.1533,-8.8903,-2.1843,-18.6435,-6.6087,-16.5565
2735,-0.0383,-8.6987,-2.2226,-21.7043,-7.0957,-17.113
2740,0.0383,-8.7754,-2.4908,-24.5565,-7.3739,-17.4609
2745,0.2299,-8.737,-2.4142,-26.8522,-7.3739,-17.8087
2750,0.4215,-8.737,-2.2992,-28.2435,-7.1652,-18.2957
2755,0.4982,-8.6987,-2.5675,-29.0783,-6.7478,-18.9217
2760,0.4982,-8.6987,-2.4908,-29.287,-5.8435,-19.4783
2765,0.8047,-8.8137,-2.4142,-28.6609,-4.3826,-19.8261
2770,1.073,-8.9286,-2.6058,-27.8261,-2.713,-20.1043
2775,1.0346,-9.0053,-2.5675,-27.0609,-0.6957,-20.313
2780,1.1879,-8.967,-2.5291,-26.2957,1.5304,-20.313
2785,1.2263,-8.8903,-2.4908,-25.3217,4.0348,-19.8261
2790,1.4562,-9.0053,-2.5675,-24.5565,6.7478,-19.2
2795,1.4179,-8.8137,-2.5291,-23.8609,9.6696,-18.2261
2800,1.3029,-8.6987,-2.6824,-23.513,12.2435,-16.9739
2805,1.1879,-8.3921,-2.8357,-23.5826,14.4,-15.5826
2810,1.0346,-8.3921,-2.9123,-24.0,16.2087,-13.9826
2815,0.9197,-8.1239,-2.8357,-24.7652,17.4609,-12.1739
2820,0.9197,-8.1622,-2.9507,-25.5304,18.6435,-10.5043
2825,0.6514,-8.0473,-2.8357,-26.087,19.3391,-9.0435
2830,0.6131,-8.1239,-2.874,-26.1565,19.5478,-7.9304
2835,0.3832,-8.1622,-2.7591,-25.6696,19.1304,-7.4435
2840,0.1533,-8.3921,-2.7207,-24.0696,18.1565,-6.9565
2845,0.0383,-8.5838,-2.6824,-21.5652,16.6957,-6.6783
2850,-0.0766,-8.8137,-2.9123,-17.9478,14.6087,-6.4696
2855,-0.1916,-8.737,-2.7591,-13.4957,12.313,-6.2609
2860,-0.3066,-8.737,-2.7591,-8.6261,10.0174,-6.1913
2865,-0.2682,-8.737,-2.7207,-3.3391,7.7913,-5.8435
2870,-0.4982,-8.5071,-2.7974,2.087,5.8435,-5.4957
2875,-0.4598,-8.3538,-2.7591,7.0957,4.313,-5.0087
2880,-0.4982,-8.1622,-2.6441,11.687,2.8522,-4.4522
2885,-0.4598,-7.9706,-2.2992,15.513,1.7391,-3.9652
2890,-0.3066,-7.8173,-2.3759,18.2261,1.0435,-3.3391
2895,-0.2682,-7.4341,-2.2609,20.313,0.6261,-2.7826
2900,-0.4215,-7.1276,-1.9543,21.287,0.2087,-2.3652
2905,-0.2299,-6.7444,-2.031,21.1478,-0.2087,-2.087
2910,-0.115,-6.4761,-1.8777,19.9652,-0.4174,-1.9478
2915,-0.0766,-6.2079,-1.6095,18.0174,-0.487,-1.8087
2920,0.0,-5.9013,-1.6478,15.1652,-0.487,-1.8087
2925,-0.1533,-5.5181,-1.6861,11.687,-0.3478,-1.6
2930,0.0766,-5.7864,-1.5328,7.6522,-0.2087,-0.9043
2935,0.0766,-5.748,-1.4179,3.3391,-0.2087,-0.1391
2940,0.1533,-5.7864,-1.4562,-0.487,-0.9043,0.6957
2945,0.0,-6.0163,-1.3795,-3.687,-2.087,1.7391
2950,0.0383,-6.1696,-1.6095,-6.2609,-3.0609,2.8522
2955,0.0766,-6.3612,-1.4945,-8.0,-4.0348,4.2435
2960,-0.0383,-6.3995,-1.3029,-9.3217,-5.0783,5.5652
2965,0.0,-6.6677,-1.6095,-9.9478,-5.8435,7.0261
2970,0.0383,-6.7444,-1.6095,-10.1565,-6.4696,8.3478
2975,-0.0766,-7.0126,-1.6478,-10.2261,-6.8174,9.6696
2980,0.0766,-6.9743,-1.6095,-10.3652,-7.0957,10.5043
2985,0.1533,-7.1276,-1.7627,-10.6435,-7.4435,10.9217
2990,0.2682,-7.1659,-1.8777,-10.8522,-7.7913,10.9217
2995,0.4598,-7.2425,-2.1459,-10.9913,-7.4435,10.7826
