timestamp,accX,accY,accZ,gyroX,gyroY,gyroZ
0,-2.7591,-11.1512,3.3339,-6.4,36.6609,6.7478
5,-2.2609,-10.4614,2.7207,-4.0348,34.9217,9.6696
10,-1.9543,-10.768,3.2572,-4.2435,33.8783,13.9826
15,-2.3759,-10.4231,2.7974,-4.8696,33.3913,15.7913
20,-2.7207,-10.2315,2.2992,-6.6783,32.0,18.713
25,-2.6824,-10.9213,1.8777,-10.2957,31.2348,23.1652
30,-2.9123,-11.1895,1.8394,-13.3565,30.5391,26.0174
35,-2.7974,-11.7643,1.7627,-16.4174,28.9391,29.8435
40,-2.5675,-12.4541,1.4562,-18.3652,26.6435,34.1565
45,-2.2226,-13.1055,1.3029,-18.8522,23.6522,37.8435
50,-1.8011,-13.6804,1.916,-17.6696,20.1739,41.0435
55,-1.1113,-13.9103,1.5711,-15.7913,16.2783,44.2435
60,-0.2682,-13.9869,0.5748,-14.1217,13.0087,47.0261
65,-0.3449,-13.4121,0.8047,-12.8,11.4087,49.1826
70,-0.3832,-13.642,0.8814,-12.1043,10.9217,50.8522
75,-0.3449,-12.8373,0.6131,-12.1739,11.2,52.2435
80,-0.7281,-12.7607,0.0,-13.4957,11.6174,53.2174
85,-0.5748,-12.7223,-0.3832,-15.3739,11.8957,53.7739
90,-0.7281,-13.2205,-0.958,-17.7391,12.0348,53.5652
95,-1.073,-13.2971,-0.6514,-19.0609,12.1739,52.7304
100,-1.4562,-13.4121,-0.6898,-18.5043,11.6174,51.0609
105,-1.7244,-13.4504,-0.6898,-15.7217,9.8783,48.6261
110,-1.6861,-13.1439,-0.6898,-10.087,6.4696,45.7739
115,-1.5711,-13.0289,-0.6898,-2.4348,3.1304,42.4348
120,-1.6861,-12.684,-0.9197,6.2609,1.0435,38.7478
125,-1.3795,-11.8027,-1.5711,13.9826,0.3478,35.3391
130,-1.4562,-11.4578,-1.3412,21.0783,0.0696,31.1652
135,-1.6095,-10.6147,-1.3795,27.5478,-0.5565,27.687
140,-1.0346,-9.7717,-1.9543,33.6696,-1.6696,24.4174
145,-0.8047,-9.2735,-1.8777,38.3304,-2.2957,21.6348
150,-0.6898,-8.3921,-2.1843,40.7652,-2.087,18.7826
155,0.0383,-7.7407,-2.4142,40.6261,-1.2522,15.7913
160,0.2682,-7.1659,-2.3759,37.4261,0.3478,12.5913
165,0.5365,-6.5911,-2.1843,31.513,2.087,9.113
170,0.5748,-6.8593,-1.8011,23.8609,3.4087,5.4957
175,0.7281,-7.0509,-1.6095,15.7217,4.0348,1.6
180,0.958,-7.4725,-1.0346,8.2783,3.687,-2.2957
185,0.9963,-8.0473,-0.6131,2.2957,2.5739,-6.2609
190,1.1113,-8.5454,-0.3449,-0.9043,0.6957,-10.087
195,0.7664,-9.3118,0.115,-1.6696,-1.3913,-13.4261
200,0.8047,-9.7717,0.1533,-0.4174,-3.6174,-16.0696
205,0.4215,-10.4614,0.3832,1.9478,-5.8435,-18.5739
210,0.2682,-10.7297,0.3832,4.4522,-8.487,-20.7304
215,0.0,-11.3045,-0.0766,6.6783,-10.9913,-22.6087
220,-0.3449,-10.9979,-0.115,8.2087,-13.1478,-23.8609
225,-0.6131,-10.9596,0.0383,9.6696,-15.3043,-24.8348
230,-1.2263,-11.4961,0.0766,10.9217,-17.6696,-24.9739
235,-1.1496,-11.2662,-0.3066,10.6435,-20.313,-24.8348
240,-2.031,-11.3811,-0.2299,8.7652,-23.7217,-24.3478
245,-2.1459,-11.1512,-0.3066,6.1913,-27.0609,-23.0261
250,-2.2609,-11.1512,-0.2682,3.8957,-30.4696,-21.3565
255,-2.3759,-11.0746,-0.3066,2.9217,-33.3913,-19.4087
260,-2.2609,-11.0746,-0.0766,3.1304,-35.9652,-17.6696
265,-1.9543,-10.7297,-0.0766,4.6609,-38.5391,-16.1391
270,-1.6861,-10.9213,0.0,7.2348,-41.3217,-15.3043
275,-1.4179,-10.7297,0.3449,10.0174,-44.1043,-15.2348
280,-1.1496,-10.1932,-0.2299,12.1739,-46.887,-15.8609
285,-0.7281,-9.9633,-0.115,13.7043,-49.0435,-17.0435
290,-0.115,-10.1166,-0.958,14.1913,-50.6435,-18.8522
295,0.0,-9.6184,-0.3449,13.8435,-51.4087,-20.8696
300,0.1533,-9.4651,-0.3832,12.7304,-51.6174,-23.0957
305,0.2682,-9.2352,-0.2682,10.7826,-51.4783,-25.1826
310,0.4215,-9.2735,-0.2299,9.3913,-51.3391,-27.0609
315,0.7281,-9.2352,-0.2682,9.2522,-51.1304,-29.1478
320,0.5365,-9.0819,-0.1916,9.113,-51.6174,-31.0261
325,0.5365,-9.0436,-0.2299,7.7913,-52.8696,-32.6957
330,0.4598,-8.967,-0.3832,6.4696,-54.1913,-34.3652
335,0.4598,-8.9286,-0.3066,5.0783,-55.3043,-35.5478
340,0.3449,-8.852,-0.1916,3.687,-56.4174,-36.1739
345,0.1533,-8.7754,-0.0383,2.7826,-57.1826,-36.313
350,0.1916,-8.7754,0.0,2.4348,-58.087,-36.313
355,0.115,-8.737,0.1533,2.2261,-59.1304,-35.8957
360,0.0766,-8.6987,0.2682,1.9478,-60.0348,-35.2696
365,0.115,-8.8137,0.3066,1.5304,-60.8696,-34.6435
370,0.2299,-8.737,0.5748,0.7652,-61.4957,-33.5304
375,0.3832,-8.852,0.5748,-0.5565,-61.913,-32.6957
380,0.3832,-8.967,0.6514,-2.087,-62.1217,-31.513
385,0.3449,-8.852,0.6514,-3.4783,-62.3304,-30.4
390,0.6514,-9.2735,0.9197,-4.4522,-62.6783,-29.4261
395,0.8814,-9.2735,0.8047,-5.0087,-63.0261,-28.5913
400,0.7664,-9.3118,0.8814,-5.3565,-63.3739,-27.7565
405,0.843,-9.4651,0.843,-5.6348,-63.6522,-26.9217
410,0.9197,-9.4268,0.6898,-5.7739,-63.6522,-25.9478
415,0.7281,-9.4651,0.6514,-5.7739,-63.0957,-24.8348
420,0.6131,-9.5034,0.8047,-5.8435,-62.6783,-23.4435
425,0.3449,-9.5801,0.6514,-5.7043,-62.4696,-21.9826
430,0.4215,-9.5418,0.7664,-5.6348,-62.6783,-20.3826
435,0.3449,-9.3118,0.9197,-5.7739,-63.3739,-18.8522
440,0.1533,-9.1586,0.9197,-5.7043,-63.5826,-17.3217
445,0.1916,-8.852,0.8814,-5.913,-63.4435,-15.7913
450,0.3832,-8.6604,1.1113,-6.4696,-63.3739,-14.4
455,0.3066,-8.5838,1.1879,-7.5826,-63.3043,-13.6348
460,0.4215,-8.4305,1.073,-9.113,-62.887,-12.7304
465,0.5748,-8.5071,1.3795,-11.1304,-61.913,-11.8261
470,0.6898,-8.3538,1.3795,-13.0087,-61.2174,-10.9217
475,0.7664,-8.3538,1.6478,-14.5391,-60.2435,-9.8087
480,0.8814,-8.2772,1.6478,-15.8609,-59.687,-8.9043
485,0.9197,-8.4305,1.7627,-17.113,-59.3391,-7.9304
490,1.0346,-8.5071,1.916,-18.0174,-58.9217,-6.4696
495,1.0346,-8.6604,2.2609,-17.4609,-58.087,-5.0087
500,1.0346,-8.7754,2.2609,-15.7913,-57.113,-3.0609
505,0.8814,-8.737,2.5291,-14.0522,-56.6261,-1.5304
510,0.843,-9.0436,2.6058,-12.3826,-56.7652,0.0
515,0.7281,-9.0819,2.7591,-10.2957,-56.6261,2.0174
520,0.7281,-9.3118,2.8357,-7.7217,-56.487,4.5217
525,0.8814,-9.4651,2.7591,-4.8,-56.6957,7.0261
530,0.843,-9.7717,2.5291,-2.2261,-56.9043,9.4609
535,0.9197,-10.1166,2.2226,0.2087,-56.7652,11.4783
540,1.0346,-10.5381,2.2992,2.5739,-56.2087,13.2174
545,1.073,-10.8446,2.2226,4.313,-55.6522,14.5391
550,1.1113,-11.1129,2.2609,6.0522,-55.3739,15.0261
555,1.1113,-11.2279,2.2226,8.9739,-54.6783,14.887
560,1.1879,-11.1129,2.2992,12.2435,-53.913,14.1913
565,1.1496,-11.1129,2.2992,15.2348,-53.5652,13.1478
570,1.1113,-10.9213,2.1076,17.3913,-53.0783,11.9652
575,1.2646,-10.7297,2.2226,18.5739,-52.4522,10.7826
580,1.3412,-10.6914,2.1076,18.7826,-51.4783,9.6696
585,1.5328,-10.653,2.031,17.1826,-50.1565,8.2783
590,1.9543,-11.0363,1.7244,13.7739,-48.6261,6.2609
595,2.2609,-10.4231,1.6861,8.7652,-46.4,0.2087
600,2.9507,-10.653,1.2646,2.2957,-45.4957,-1.3217
605,3.832,-11.0363,0.8047,-4.0348,-43.3391,-0.8348
610,4.4835,-11.3811,0.4982,-9.5304,-38.2609,-3.0609
615,4.9433,-11.841,0.7281,-12.8,-30.9565,-6.6783
620,5.0583,-12.2625,1.2263,-13.2174,-23.3043,-10.087
625,4.5601,-12.4158,1.8394,-10.9217,-16.8348,-13.7739
630,3.8704,-12.2625,2.6824,-6.4,-12.5913,-17.3217
635,3.1039,-11.8793,3.0656,-0.6957,-10.9913,-19.6174
640,2.5291,-11.4961,3.1039,5.0783,-11.0609,-20.7304
645,2.1459,-10.9979,2.9507,9.3913,-11.3391,-21.1478
650,1.6478,-10.6147,2.5291,11.5478,-10.9217,-21.0783
655,1.1113,-10.3848,2.2226,12.1043,-10.1565,-20.8
660,0.7664,-10.3082,2.031,11.3391,-9.1826,-20.5217
665,0.4215,-10.3465,1.916,9.8087,-8.6261,-20.4522
670,0.1916,-10.4231,1.7244,7.3739,-8.2783,-20.8696
675,-0.0383,-10.768,1.8394,4.5217,-7.9304,-21.6348
680,-0.4215,-11.2662,2.1076,2.0174,-7.8609,-22.6783
685,-0.5365,-11.6111,2.4525,0.6261,-8.487,-23.7913
690,-0.7664,-11.8793,2.6058,0.6261,-9.8783,-24.8348
695,-0.6898,-12.1092,2.2992,1.2522,-11.8957,-26.087
700,-0.1533,-12.0709,2.3759,1.8783,-13.913,-27.2
705,0.1533,-12.1475,2.1076,2.2957,-15.3043,-28.1043
710,0.5748,-12.1859,1.916,2.2261,-15.6522,-29.0783
715,1.0346,-12.1859,1.5328,1.7391,-15.2348,-30.0522
720,1.6095,-12.2242,1.1879,0.487,-14.0522,-31.0957
725,2.4142,-12.4924,1.0346,0.3478,-11.1304,-36.7304
730,2.2992,-12.0709,1.3795,-2.6435,-9.2522,-43.687
735,2.874,-11.726,0.9963,-5.1478,-7.7913,-40.6957
740,3.832,-12.0709,0.7664,-7.0957,-5.5652,-35.2696
745,3.947,-12.1475,0.4598,-9.5304,-1.8783,-34.9217
750,4.0236,-11.9559,0.115,-12.2435,2.4348,-36.2435
755,4.062,-12.1092,0.0383,-13.4261,5.8435,-35.7565
760,4.2919,-12.0709,-0.3449,-11.8957,8.0696,-34.4348
765,4.2152,-12.2242,-0.6131,-7.7913,9.8783,-32.487
770,3.7554,-12.0326,-0.6514,-2.1565,11.8261,-29.7043
775,3.1039,-11.6111,-0.5748,4.313,13.287,-26.2261
780,2.4525,-11.1512,-0.6131,10.7826,13.4261,-22.4
785,1.7627,-10.4231,-0.7281,15.9304,11.9652,-18.6435
790,1.1879,-9.925,-0.7281,19.2,9.3913,-15.2348
795,0.8047,-9.6567,-1.0346,20.5217,6.5391,-12.2435
800,0.2682,-9.2352,-1.2646,20.7304,3.6174,-9.8783
805,-0.2299,-8.8137,-1.4945,20.2435,0.5565,-8.0
810,-0.8814,-8.5838,-1.6478,19.6174,-3.3391,-6.4
815,-1.3029,-8.2005,-1.6861,19.1304,-7.7913,-4.8
820,-1.6478,-7.9323,-1.8011,18.6435,-12.5913,-2.9913
825,-2.1459,-7.7024,-1.7244,17.8783,-16.9739,-1.1826
830,-2.4142,-7.6257,-1.7244,16.6261,-20.5217,0.6261
835,-2.4908,-7.6641,-1.7244,14.887,-23.3043,2.6435
840,-2.7974,-7.8173,-1.6095,12.5913,-25.7391,4.7304
845,-2.874,-8.0473,-1.3795,10.4348,-27.8957,6.7478
850,-2.5675,-8.5454,-1.1879,7.513,-29.913,8.7652
855,-2.5291,-9.1586,-0.8047,4.3826,-31.5826,10.713
860,-2.4908,-9.81,-0.6131,1.5304,-32.2087,12.2435
865,-2.2609,-10.2698,-0.3449,-0.7652,-32.2087,13.9826
870,-2.1076,-10.9596,-0.0766,-2.2261,-31.7217,16.0
875,-1.9543,-11.4195,0.2299,-2.6435,-31.1652,17.8783
880,-1.8394,-11.8793,0.3066,-1.7391,-30.6087,19.4783
885,-1.4179,-12.1859,0.4215,0.6261,-30.1913,21.1478
890,-0.958,-12.0326,0.3832,4.6609,-29.7739,22.4696
895,-0.4982,-12.2242,0.4982,10.1565,-29.287,23.4435
900,-0.2682,-12.1859,0.3449,16.2087,-28.3826,23.7217
905,0.0766,-11.841,0.1533,22.2609,-27.1304,23.6522
910,0.4598,-11.3428,0.0,27.3391,-25.4609,23.1652
915,0.6898,-10.8446,0.0383,31.0261,-24.0,22.6087
920,0.9197,-10.2315,0.0383,33.0435,-23.0957,21.7739
925,0.9197,-10.0016,0.0766,33.2522,-22.9565,21.3565
930,0.8814,-9.695,0.1916,31.4435,-23.2348,21.1478
935,0.9963,-9.3502,0.3066,28.9391,-23.7913,21.6348
940,0.9963,-9.1586,0.2682,26.5043,-24.2783,22.4
945,0.958,-8.967,0.4215,24.1391,-24.9043,23.0957
950,0.9197,-9.0819,0.3449,22.1217,-25.6696,24.2783
955,0.843,-9.0436,0.6131,20.6609,-26.1565,26.087
960,0.6131,-8.967,0.6514,19.4087,-26.5739,27.9652
965,0.6898,-9.0053,0.843,18.2957,-26.8522,29.7739
970,0.5365,-9.0436,0.9963,18.0174,-27.2,31.7913
975,0.3832,-8.967,1.0346,18.5043,-27.5478,33.8087
980,0.4598,-9.0053,1.1113,18.9913,-27.9652,35.5478
985,0.3066,-8.8137,0.958,18.9217,-28.1043,37.2174
990,0.0383,-8.7754,1.0346,17.6,-28.0348,38.5391
995,0.0,-8.5838,1.1113,15.513,-27.5478,39.513
1000,-0.2682,-8.6221,1.5711,13.3565,-26.8522,40.3478
1005,-0.3832,-8.5454,1.3029,11.7565,-26.1565,40.7652
1010,-0.6514,-8.5838,1.3795,10.3652,-25.5304,40.6261
1015,-0.8047,-8.3538,1.3412,8.2783,-25.4609,40.2783
1020,-0.9197,-8.4305,1.2646,5.6348,-25.3913,39.2348
1025,-0.958,-8.5071,1.2263,2.5043,-25.5304,37.913
1030,-1.1113,-8.3921,1.073,-0.9739,-25.1826,36.1043
1035,-1.2263,-8.4688,1.2646,-4.5913,-24.6261,34.087
1040,-1.1496,-8.6604,1.2646,-8.0696,-23.7913,31.513
1045,-1.1496,-8.6604,1.4179,-11.4087,-22.7478,29.2174
1050,-0.9197,-8.7754,1.1496,-14.4,-21.4957,27.0609
1055,-0.9197,-8.737,1.3412,-16.7652,-20.1739,25.3217
1060,-0.7664,-8.852,1.3029,-18.6435,-18.713,24.0
1065,-0.4598,-9.0053,1.3412,-19.8957,-17.3217,23.3043
1070,-0.4982,-8.9286,1.4179,-20.5913,-16.0,23.0957
1075,-0.2299,-9.1202,1.4562,-20.7304,-14.6087,23.3043
1080,-0.0383,-9.0819,1.6095,-20.6609,-13.0783,23.7913
1085,-0.115,-9.1969,1.5711,-20.1739,-11.5478,24.3478
1090,0.0,-9.0053,1.6095,-19.687,-9.8087,24.487
1095,0.115,-8.967,1.3795,-19.5478,-8.5565,23.2348
1100,0.3832,-9.2352,1.4945,-21.8435,-7.1652,22.1913
1105,0.3066,-8.9286,2.031,-24.4174,-4.8696,20.7304
1110,0.3832,-9.1586,1.8394,-26.5043,-2.5043,19.2696
1115,0.4598,-9.2352,1.916,-28.2435,-0.0696,17.7391
1120,0.4598,-9.3885,1.9927,-29.4261,2.5739,16.0696
1125,0.1916,-9.3502,2.2992,-29.8435,5.4261,13.7739
1130,0.2299,-9.3885,2.4908,-29.287,7.8609,11.8957
1135,0.115,-9.5034,2.6058,-28.4522,9.7391,10.1565
1140,0.0766,-9.3502,2.6824,-27.2696,11.6174,8.4174
1145,0.115,-9.4268,2.7207,-26.0174,14.0522,6.6783
1150,0.0,-9.3502,2.8357,-24.4174,16.6261,5.287
1155,0.0,-9.3885,2.8357,-22.2609,19.1304,3.9652
1160,-0.3066,-9.3118,2.989,-19.3391,21.2174,2.6435
1165,-0.3066,-9.4268,3.0656,-15.9304,23.0957,1.6
1170,-0.3449,-9.5418,3.1423,-11.7565,24.6261,0.7652
1175,-0.1916,-9.695,2.989,-7.0261,26.5043,0.1391
1180,-0.1533,-9.925,3.2572,-1.5304,28.6609,-0.3478
1185,-0.0383,-10.1549,3.2955,4.7304,31.0261,-0.6957
1190,0.115,-10.3082,3.2189,11.2696,33.7391,-0.9043
1195,0.3449,-10.5764,3.5255,17.8087,36.6609,-1.3913
1200,0.3832,-10.768,3.3339,23.7217,40.2087,-1.9478
1205,0.4598,-10.8446,3.2189,28.6609,43.0609,-3.0609
1210,0.3066,-10.6914,2.6824,32.0696,44.8696,-4.4522
1215,0.2299,-10.8446,2.1843,33.6,45.0783,-5.913
1220,0.4982,-10.3465,1.5711,32.9739,44.2435,-6.6783
1225,0.4982,-10.2315,1.0346,30.8174,43.6174,-7.2348
1230,0.4982,-10.1549,0.7281,28.1739,43.687,-7.3739
1235,0.3066,-10.0782,0.5748,25.2522,44.3826,-7.3739
1240,-0.0383,-10.0399,0.843,21.6348,44.5913,-6.7478
1245,-0.7664,-9.8866,1.1113,17.9478,43.6174,-5.8435
1250,-1.5711,-9.925,1.3029,12.4522,41.3217,-4.5217
1255,-2.4525,-9.8866,1.6478,5.913,37.7043,-2.3652
1260,-2.9123,-9.9633,1.4945,-1.6,34.5043,0.487
1265,-3.2955,-9.9633,1.6478,-9.9478,31.3739,4.5217
1270,-3.7937,-10.9979,1.6095,-20.5913,30.6783,10.7826
1275,-4.4068,-11.3811,2.2609,-28.0348,31.5826,13.8435
1280,-4.5601,-11.8793,2.9123,-30.6783,31.2348,16.487
1285,-4.7134,-11.7643,3.3722,-27.7565,29.2174,19.9652
1290,-4.4835,-11.6494,3.2572,-22.1217,26.2957,23.513
1295,-4.4835,-11.5344,3.3339,-15.4435,22.7478,26.1565
1300,-4.1386,-11.3428,2.9507,-9.8783,18.2261,28.7304
1305,-3.7937,-11.2662,2.5291,-6.6087,14.1217,31.6522
1310,-3.1039,-11.3811,2.1843,-6.4,10.6435,34.7826
1315,-2.4142,-11.5344,1.9543,-9.0435,8.487,37.4957
1320,-1.8011,-12.1092,1.8011,-14.4,6.8174,41.8783
1325,-1.1113,-12.3391,1.7627,-19.5478,6.3304,45.0783
1330,-0.8814,-12.5307,1.8394,-22.9565,4.5217,45.0087
1335,-0.6898,-12.684,1.6861,-25.0435,2.087,44.8696
1340,-0.4598,-12.7607,1.3795,-26.0174,-0.2783,45.6348
1345,-0.1533,-12.4541,1.3029,-26.2957,-1.8087,47.0261
1350,-0.2299,-12.9906,0.9197,-27.687,-2.1565,50.8522
1355,-0.1916,-13.1439,0.8814,-27.5478,-1.0435,51.2696
1360,-0.1916,-13.1822,0.6898,-26.2957,-0.1391,50.5043
1365,-0.0383,-13.4121,0.6131,-24.0696,0.6261,50.2261
1370,-0.4215,-13.5654,0.3066,-21.9826,2.087,49.0435
1375,-1.1879,-13.6037,0.0766,-19.8261,3.9652,46.887
1380,-1.7244,-13.3738,-0.115,-16.3478,4.5217,44.313
1385,-1.8777,-13.4121,-0.3066,-10.713,1.7391,41.6696
1390,-1.7244,-13.0289,-0.6898,-2.9217,-2.6435,38.6783
1395,-1.6478,-12.684,-0.958,5.4957,-5.5652,35.5478
1400,-1.6861,-12.3008,-1.1113,13.0783,-5.9826,31.8609
1405,-1.916,-11.4195,-0.9197,19.1304,-5.3565,28.0348
1410,-1.7627,-10.883,-0.8814,24.3478,-5.7043,24.3478
1415,-1.7627,-9.9633,-1.0346,29.2174,-7.1652,21.4261
1420,-1.4562,-9.3118,-1.2646,33.7391,-8.487,18.713
1425,-1.0346,-8.6604,-1.6478,36.5217,-8.5565,16.0696
1430,-0.4215,-8.0856,-1.8394,36.9391,-7.3043,13.6348
1435,-0.0383,-7.8557,-2.1459,35.2,-5.1478,11.2
1440,0.3449,-7.5108,-1.9927,31.8609,-2.2957,8.487
1445,0.8814,-7.3958,-1.8777,26.9913,1.0435,5.7739
1450,1.3795,-7.5874,-1.5328,21.0087,3.7565,3.5478
1455,1.916,-7.894,-1.2263,15.0261,6.6087,1.3217
1460,2.1843,-8.0473,-0.6898,9.5304,9.1826,-1.1826
1465,2.3375,-8.2389,-0.2682,4.8696,11.8957,-3.7565
1470,2.4142,-8.7754,0.0766,1.4609,13.8435,-6.4
1475,2.2609,-9.2735,0.2299,-0.6957,14.6783,-8.9043
1480,2.2609,-9.695,0.3066,-1.9478,14.1913,-10.9913
1485,2.1459,-10.3082,0.5365,-2.4348,13.2174,-13.0783
1490,2.031,-10.8446,0.4215,-3.2,11.8261,-15.3739
1495,1.916,-11.4195,0.3832,-3.8957,10.9217,-17.7391
1500,1.6478,-11.8027,0.3449,-4.0348,11.0609,-19.8261
1505,1.1496,-12.1475,0.3449,-3.2,11.7565,-21.7043
1510,0.6898,-12.2625,0.1916,-2.0174,12.4522,-23.0957
1515,0.0766,-12.2242,0.3066,-0.6261,12.2435,-24.1391
1520,-0.1533,-12.1859,0.3832,1.3913,10.7826,-24.8348
1525,-0.6514,-11.9943,0.3449,4.2435,8.6261,-24.8348
1530,-0.958,-11.3811,0.0766,7.0957,6.4696,-24.5565
1535,-1.2646,-11.2279,0.0383,9.6696,4.5217,-24.3478
1540,-1.3412,-10.9596,0.0,12.1043,2.7826,-24.0
1545,-1.3029,-10.6914,-0.2299,14.2609,1.5304,-24.0
1550,-1.3029,-10.4231,-0.0766,15.7217,0.7652,-24.8348
1555,-1.3029,-10.0016,-0.115,16.2087,0.0696,-25.5304
1560,-1.3029,-9.81,-0.0383,16.3478,-1.0435,-26.6435
1565,-1.3412,-9.7334,0.0,16.0696,-2.5739,-27.6174
1570,-1.2646,-9.3885,0.0766,15.7217,-4.313,-28.313
1575,-0.9963,-9.4651,0.115,16.2087,-5.7739,-28.9391
1580,-0.843,-9.2735,0.0766,16.6957,-6.6087,-29.7739
1585,-0.6898,-9.2735,0.1533,15.0957,-7.4435,-30.6783
1590,-0.4598,-9.1202,0.2682,11.8261,-8.5565,-32.1391
1595,-0.3832,-9.1969,0.3066,8.7652,-9.2522,-33.4609
1600,-0.1533,-9.0819,0.6131,6.1913,-9.7391,-34.4348
1605,0.0,-9.0819,0.7281,4.2435,-10.4348,-35.5478
1610,0.0,-9.0819,0.7664,2.5739,-11.0609,-36.3826
1615,0.0766,-8.9286,0.9197,1.4609,-11.687,-36.9391
1620,0.115,-9.0436,0.9963,0.0696,-12.6609,-37.3565
1625,0.0766,-8.967,1.0346,-1.0435,-13.6348,-37.4261
1630,0.0766,-9.0053,1.0346,-1.8087,-14.9565,-37.4261
1635,0.0383,-8.9286,1.1113,-2.6435,-16.487,-36.9391
1640,0.0,-8.7754,0.9963,-3.5478,-17.8783,-36.313
1645,-0.0383,-8.5454,1.3029,-4.313,-18.9913,-35.4783
1650,0.0383,-8.5838,1.073,-5.2174,-19.8957,-34.713
1655,0.0383,-8.5838,1.0346,-6.2609,-20.7304,-33.6
1660,0.0383,-8.5454,0.958,-7.4435,-21.5652,-32.4174
1665,0.1916,-8.6221,1.2263,-8.9739,-22.4696,-31.1652
1670,0.2299,-8.7754,1.2646,-10.4348,-23.2348,-29.9826
1675,0.3066,-8.8903,1.2646,-11.7565,-24.0696,-28.7304
1680,0.3832,-9.0053,1.4562,-12.9391,-24.9739,-27.6174
1685,0.5365,-9.0819,1.4179,-13.4957,-25.9478,-26.5739
1690,0.5748,-9.0819,1.5711,-13.6348,-26.9913,-25.7391
1695,0.6898,-9.1969,1.5328,-12.8,-28.0348,-24.6957
1700,0.6514,-9.1586,1.4179,-11.5478,-28.6609,-23.2348
1705,0.7664,-9.0819,1.5711,-10.4348,-28.9391,-21.913
1710,0.8814,-9.0053,1.6478,-9.5304,-28.8696,-20.7304
1715,0.7664,-8.9286,1.6861,-9.0435,-28.7304,-19.4783
1720,0.9963,-8.967,1.916,-9.1826,-28.5217,-18.2261
1725,0.9197,-8.737,1.9543,-9.7391,-28.5913,-16.9739
1730,1.0346,-8.6987,2.1076,-10.4348,-28.8,-15.8609
1735,1.0346,-8.6221,2.2226,-11.2,-28.9391,-14.1217
1740,1.1496,-8.5454,2.2992,-12.5913,-28.9391,-12.3826
1745,1.1496,-8.5071,2.3375,-14.1913,-28.8,-10.9217
1750,1.1879,-8.2772,2.4142,-15.6522,-28.5913,-9.4609
1755,1.1496,-8.6604,2.3375,-16.7652,-28.3826,-7.9304
1760,1.1113,-8.3921,2.4525,-17.3217,-28.1043,-6.1913
1765,0.9963,-8.4305,2.5675,-17.2522,-28.0348,-4.313
1770,0.843,-8.3921,2.6441,-16.5565,-28.313,-2.2957
1775,0.7281,-8.5454,2.8357,-15.2348,-28.4522,0.0
1780,0.6514,-8.5454,3.1039,-13.4957,-28.6609,2.5043
1785,0.2682,-8.6987,3.4871,-10.2261,-29.287,4.8
1790,0.0,-8.852,3.4871,-5.4261,-30.0522,7.4435
1795,-0.2299,-9.0053,3.7937,-0.8348,-32.2783,9.3913
1800,-0.4215,-9.1586,3.6787,3.7565,-35.3391,11.5478
1805,-0.5748,-9.2735,3.7554,7.7217,-39.0957,13.4261
1810,-0.6898,-9.5418,3.4488,10.7826,-42.8522,15.2348
1815,-0.7281,-9.6184,3.2189,12.5913,-46.1217,16.9739
1820,-0.7281,-9.7334,2.5675,13.6348,-48.5565,18.2261
1825,-0.6131,-9.81,2.2992,14.0522,-49.9478,19.3391
1830,-0.5365,-9.925,1.6478,13.8435,-50.7826,19.8261
1835,-0.4215,-9.925,1.1496,12.8,-51.1304,19.2
1840,-0.2682,-10.0782,0.843,10.9913,-50.713,17.8087
1845,0.0383,-10.3082,0.6131,9.0435,-49.4609,15.8609
1850,0.0766,-10.4231,0.6514,7.0261,-47.7217,13.5652
1855,0.3832,-10.4998,0.6131,4.8,-46.1217,11.4087
1860,0.843,-10.653,0.7281,1.7391,-44.8,9.2522
1865,1.3029,-10.8446,0.6514,-2.8522,-43.6174,6.8174
1870,1.916,-11.2662,0.5365,-8.6261,-41.8087,4.313
1875,2.4908,-11.8793,0.3832,-14.7478,-39.1652,1.4609
1880,3.2189,-12.4541,0.9963,-19.2696,-35.3391,-1.4609
1885,3.9853,-13.1822,1.4945,-21.1478,-31.0261,-4.8696
1890,4.2919,-13.5271,2.2609,-20.2435,-27.0609,-9.3217
1895,4.3302,-13.6037,3.1039,-16.8348,-23.7913,-14.6087
1900,3.947,-13.0289,3.6021,-11.0609,-21.287,-19.4783
1905,3.6021,-12.3775,3.5638,-5.4261,-19.4783,-23.513
1910,3.0656,-12.1092,3.4871,-1.3913,-17.6,-26.6435
1915,2.6058,-11.2662,2.9123,0.6957,-15.3739,-29.0087
1920,2.1459,-10.9596,2.874,0.8348,-13.6348,-30.7478
1925,1.6095,-10.8063,2.3759,-1.113,-12.5913,-31.9304
1930,0.9963,-10.6914,2.1459,-4.5217,-11.9652,-32.6261
1935,0.4598,-10.9213,1.7244,-8.4174,-11.6174,-32.5565
1940,0.0,-11.2662,1.8011,-11.687,-11.7565,-32.0
1945,-0.4598,-11.726,1.7244,-13.7739,-12.7304,-31.0957
1950,-0.9197,-12.1859,1.8777,-14.2609,-14.3304,-29.9826
1955,-0.9963,-12.3775,2.2609,-13.4957,-16.6261,-28.8696
1960,-0.8047,-12.6457,2.3375,-11.7565,-19.2,-28.1043
1965,-0.3832,-13.0289,2.3375,-9.9478,-21.5652,-27.9652
1970,0.2682,-13.1822,2.2609,-9.1826,-23.2348,-28.7304
1975,1.3795,-14.2168,2.2609,-8.6261,-24.1391,-30.8174
1980,2.0693,-13.642,2.4525,-7.513,-23.513,-40.9739
1985,2.4908,-13.2971,2.3759,-7.0957,-23.513,-44.5913
1990,3.0656,-13.1439,1.8011,-5.4957,-22.8174,-40.7652
1995,3.7171,-13.2588,1.3029,-2.6435,-20.0348,-37.287
2000,3.8704,-12.9906,0.958,-0.6957,-16.2087,-38.6087
2005,3.947,-12.5307,0.7664,-0.0696,-11.2,-40.2783
2010,4.062,-12.3391,0.3832,0.1391,-7.513,-40.6957
2015,4.1386,-12.1475,0.0766,1.4609,-5.6348,-40.9043
2020,4.1386,-11.9559,-0.5748,4.5913,-3.4783,-40.2087
2025,3.947,-11.3811,-1.2646,9.9478,-0.3478,-38.4696
2030,3.6021,-10.7297,-1.2646,16.4174,3.4087,-35.4783
2035,3.3339,-10.3082,-1.4562,22.2609,6.1217,-31.7913
2040,2.7207,-9.6184,-1.6095,26.4348,7.3739,-28.0348
2045,2.2992,-9.1202,-1.7627,27.7565,6.887,-24.6261
2050,1.7627,-8.6987,-1.9927,26.4348,5.7043,-21.7739
2055,1.1496,-8.2389,-2.031,23.8609,4.1043,-19.2
2060,0.4598,-8.0089,-2.031,20.5913,2.6435,-16.9739
2065,-0.3066,-7.7024,-1.9543,17.5304,0.9043,-14.8174
2070,-1.0346,-7.5874,-1.8394,14.6783,-1.4609,-12.8
2075,-1.7627,-7.5491,-1.5711,12.3826,-4.3826,-10.9217
2080,-2.1843,-7.4725,-1.4179,10.9217,-7.6522,-8.3478
2085,-2.5291,-7.5108,-1.1113,10.0174,-10.5043,-5.7043
2090,-2.7974,-7.7407,-0.9963,9.3913,-13.0087,-2.6435
2095,-2.7207,-8.3921,-0.8047,8.487,-14.887,1.113
2100,-2.5291,-8.6987,-0.7281,6.887,-15.8609,4.8
2105,-2.3375,-9.3502,-0.843,4.3826,-15.7913,8.4174
2110,-2.1076,-9.9633,-0.5748,1.1826,-14.6783,12.0348
2115,-1.7627,-10.653,-0.2682,-1.6,-13.0783,16.1391
2120,-1.1879,-11.2279,-0.1916,-3.6174,-11.3391,20.2435
2125,-0.7281,-11.9559,0.115,-3.9652,-9.6,23.9304
2130,-0.3066,-12.1859,0.3066,-2.7826,-8.0,26.5739
2135,-0.115,-12.2625,0.3449,0.2087,-6.7478,28.4522
2140,0.5365,-12.3391,0.3449,4.5913,-5.3565,29.3565
2145,0.9963,-12.2625,0.2682,9.8087,-3.5478,29.4957
2150,1.6861,-11.8793,0.0766,15.2348,-1.1826,29.1478
2155,1.8394,-11.3428,0.0766,19.8957,2.0174,28.1739
2160,2.1843,-10.883,0.0383,24.1391,5.6348,26.5739
2165,2.2992,-10.4231,0.0,27.1304,9.1826,25.2522
2170,2.2226,-9.8866,0.115,28.1043,12.8,24.6957
2175,1.9543,-9.5801,0.0766,26.2261,15.7217,24.2783
2180,1.7627,-9.3502,0.1916,22.9565,17.8783,23.9304
2185,1.2263,-9.1202,0.1533,19.2696,19.4783,23.8609
2190,0.9963,-9.0436,0.4598,15.6522,20.6609,24.1391
2195,0.5365,-9.1202,0.5748,12.9391,21.3565,25.3217
2200,0.5365,-9.2352,0.6131,10.8522,21.2174,26.9217
2205,0.3066,-9.0436,0.4982,8.9043,20.313,28.1043
2210,0.2682,-9.0436,0.4598,7.4435,19.7565,29.0087
2215,0.1533,-9.0053,0.4598,6.5391,19.6174,30.6783
2220,0.3066,-8.852,0.6131,5.9826,20.3826,32.8348
2225,0.1916,-8.737,0.3832,5.9826,21.4957,35.0609
2230,0.2682,-8.7754,0.1916,5.0783,21.9826,36.6609
2235,0.2682,-8.6604,0.1916,3.2696,22.6783,37.913
2240,0.3832,-8.5838,0.3066,2.0174,23.8609,39.0261
2245,0.2682,-8.5071,0.2299,1.3913,25.6,40.0
2250,0.4215,-8.2772,0.2682,1.0435,27.4087,41.0435
2255,0.3449,-8.3155,0.3449,0.9043,29.2174,42.1565
2260,0.2682,-8.0473,0.3832,0.5565,31.0957,42.9217
2265,0.3832,-8.0473,0.3832,-0.0696,32.9043,43.2696
2270,0.1916,-7.779,0.6514,-1.113,34.5739,42.9913
2275,0.2299,-7.7024,0.5748,-2.5043,36.1739,42.3652
2280,0.0766,-7.6257,0.6131,-4.5913,37.4957,41.3913
2285,0.0383,-7.8173,0.6131,-7.1652,38.4696,39.9304
2290,0.0,-8.0089,0.7281,-10.4348,39.2348,37.8435
2295,-0.115,-8.1622,0.6898,-13.9826,40.1391,35.5478
2300,-0.0383,-8.4688,0.843,-17.6,41.2522,33.1826
2305,0.0,-8.9286,0.8047,-20.6609,42.5043,30.3304
2310,-0.0383,-9.1586,0.958,-23.1652,43.8957,27.6174
2315,-0.0383,-9.4651,0.8047,-24.5565,45.4261,25.1826
2320,-0.0766,-9.5034,0.9197,-24.8348,46.9565,22.8174
2325,-0.0766,-9.695,0.958,-24.487,48.4174,20.4522
2330,-0.0383,-9.7717,1.1113,-23.9304,49.7391,18.4348
2335,-0.115,-9.695,1.2263,-23.5826,50.7826,16.4174
2340,-0.3066,-9.5801,1.4179,-23.2348,51.8957,15.0261
2345,-0.1916,-9.695,1.2646,-22.7478,52.5913,12.5217
2350,-0.6131,-9.4268,1.3412,-24.4174,52.1739,8.2783
2355,-0.6514,-9.3502,1.4179,-26.4348,52.2435,5.7739
2360,-0.8814,-9.2352,1.5711,-27.8261,52.1739,3.2696
2365,-1.073,-9.1969,1.8011,-28.8,51.687,0.9739
2370,-1.1496,-9.0819,1.916,-29.0783,51.0609,-1.113
2375,-1.1879,-9.0436,2.0693,-28.5913,50.4348,-2.7826
2380,-1.3795,-9.0819,2.0693,-27.687,50.0174,-4.5217
2385,-1.4562,-9.0053,2.2609,-26.9217,49.3913,-5.913
2390,-1.5711,-8.967,2.3759,-26.087,48.9043,-7.0957
2395,-1.8011,-9.0053,2.4525,-24.8348,48.0696,-8.1391
2400,-1.7627,-9.1202,2.6441,-23.0261,47.3043,-8.8348
2405,-1.8394,-9.2735,2.6824,-20.8,46.6087,-9.4609
2410,-1.8011,-9.4268,2.874,-18.0174,45.8435,-10.087
2415,-1.7244,-9.6184,2.9123,-14.5391,44.9391,-10.8522
2420,-1.6861,-9.7334,3.1039,-10.4348,44.1043,-11.1304
2425,-1.6861,-10.0399,3.1423,-5.5652,43.2696,-11.3391
2430,-1.4945,-10.3848,3.2189,0.1391,42.4348,-11.4087
2435,-0.9963,-10.653,3.1039,6.4,42.087,-11.4783
2440,-0.6514,-10.9213,3.2189,13.3565,42.2261,-11.2
2445,-0.4598,-11.1129,3.1039,20.0348,43.2696,-10.9913
2450,-0.2682,-11.1129,3.1039,25.9478,44.3826,-10.8522
2455,0.115,-10.9979,2.9507,30.887,45.4957,-10.9217
2460,0.2682,-10.883,2.5675,34.7826,46.0522,-11.2696
2465,0.6898,-10.8446,2.4142,36.8,45.8435,-11.4087
2470,0.8047,-10.5764,1.9543,37.0087,45.0087,-11.3391
2475,0.8814,-10.5764,1.916,35.8957,44.3826,-11.0609
2480,0.6898,-10.4231,1.5328,33.6,43.687,-10.5043
2485,0.2682,-10.3848,1.6861,30.0522,42.5739,-9.5304
2490,-0.1533,-10.1932,1.3795,25.1826,40.6261,-7.7913
2495,-0.843,-10.0016,1.3412,19.0609,38.4696,-5.2174
2500,-1.4179,-10.0016,1.2646,12.1043,36.1043,-1.8087
2505,-1.916,-10.3465,1.3795,5.287,33.8783,2.5739
2510,-2.3759,-10.7297,1.9927,-0.7652,32.4174,7.2348
2515,-3.0273,-11.1512,2.2226,-6.4696,32.2783,13.0783
2520,-3.6021,-11.3811,3.0273,-12.2435,33.9478,19.4087
2525,-4.1769,-11.3428,3.9087,-13.7739,33.5304,22.1913
2530,-4.4835,-11.1129,3.9853,-11.6174,29.9826,26.0174
2535,-4.4452,-10.768,3.9087,-7.9304,24.6957,29.4261
2540,-3.9853,-10.4998,3.4105,-4.5217,19.4087,32.0696
2545,-3.6787,-10.2315,3.1423,-2.2261,15.513,34.3652
2550,-3.3339,-10.0016,2.8357,-1.6696,13.287,36.1739
2555,-2.989,-9.7717,2.6058,-3.2,12.0348,37.2174
2560,-2.6058,-10.1166,2.4525,-8.2783,12.0348,38.887
2565,-2.4525,-10.1932,2.4908,-11.9652,12.0348,37.7739
2570,-2.031,-10.2698,2.3759,-15.0957,11.0609,36.6609
2575,-1.6478,-10.6914,2.2992,-18.5739,9.4609,36.8
2580,-1.073,-11.2279,2.0693,-22.1913,8.7652,36.6609
2585,-0.3832,-11.7643,1.916,-24.2087,7.9304,34.9913
2590,0.0766,-12.2242,1.8011,-25.0435,7.513,33.9478
2595,0.6514,-12.4541,1.8777,-24.4174,7.7217,33.8783
2600,1.3029,-12.7607,1.6478,-22.887,8.9043,34.6435
2605,1.8777,-12.8756,1.7244,-20.7304,10.9913,35.2696
2610,2.2609,-12.8756,1.6095,-18.8522,14.6783,35.3391
2615,2.031,-12.7223,1.4945,-17.9478,19.3391,34.7826
2620,1.7627,-12.684,1.0346,-18.4348,24.4174,33.7391
2625,1.1496,-12.7607,0.6514,-20.2435,29.4957,32.487
2630,0.4598,-13.0672,0.1916,-22.1217,33.3217,31.0261
2635,-0.5365,-13.2205,-0.4215,-22.4,34.5043,29.913
2640,-0.958,-13.6037,-0.8814,-20.5913,32.7652,29.2174
2645,-1.4562,-13.7187,-1.5711,-16.9043,29.4957,28.8696
2650,-1.6861,-13.4888,-2.031,-11.3391,26.9217,28.6609
2655,-2.1843,-13.2588,-2.2992,-4.7304,25.7391,28.313
2660,-2.3759,-12.799,-2.1459,2.3652,24.5565,27.7565
2665,-2.4142,-12.1092,-2.2226,9.4609,22.1913,27.3391
2670,-2.2609,-11.5727,-2.1843,16.6957,19.6174,26.8522
2675,-2.2992,-10.6147,-2.2992,23.0957,17.7391,26.1565
2680,-1.916,-9.8483,-2.2226,27.7565,17.3913,25.1826
2685,-1.5328,-8.967,-2.1076,30.2609,18.1565,24.1391
2690,-0.9197,-8.5071,-2.4525,31.1652,19.2,23.0957
2695,-0.2682,-7.9706,-2.2992,30.4696,20.2435,22.2609
2700,0.1533,-7.7024,-2.2992,28.2435,21.4261,21.287
2705,0.7664,-7.5491,-2.0693,24.487,23.1652,20.0348
2710,1.4179,-7.894,-1.7627,19.687,25.2522,18.3652
2715,1.7244,-8.0473,-1.5328,14.6783,27.0609,16.0
2720,2.2226,-8.5454,-0.5365,10.1565,28.1739,13.2174
2725,2.0693,-8.6221,-0.2299,7.4435,28.9391,9.5304
2730,2.2226,-9.3118,-0.2299,4.4522,29.4261,5.2174
2735,2.1459,-9.925,0.1533,1.5304,29.1478,0.6957
2740,1.916,-10.3848,0.4215,-0.487,28.2435,-3.8261
2745,1.8394,-10.9596,0.6514,-0.7652,27.0609,-8.5565
2750,1.6095,-11.6111,0.7281,0.6957,24.9043,-13.2174
2755,1.3029,-11.841,0.7281,2.8522,23.1652,-17.8087
2760,1.1113,-12.1092,0.6514,5.287,21.4957,-21.287
2765,0.6898,-12.0326,0.6514,8.2087,20.5217,-25.1826
2770,0.2299,-11.9559,0.4982,10.9913,19.4783,-28.1739
2775,-0.4215,-11.6877,0.3832,13.2174,18.087,-30.9565
2780,-0.8814,-11.3811,0.5365,14.3304,16.6261,-32.5565
2785,-1.4562,-11.3045,0.4215,15.3043,14.5391,-33.113
2790,-1.9927,-10.9979,0.1916,16.4174,12.0348,-33.113
2795,-2.2609,-10.9213,0.2299,17.6696,8.9043,-32.3478
2800,-2.4142,-10.5764,0.0766,18.6435,5.9826,-31.4435
2805,-2.4142,-10.3465,0.0383,19.0609,2.713,-30.4
2810,-2.5291,-10.2315,0.1916,18.713,-0.7652,-29.7043
2815,-2.3375,-10.2698,0.1916,18.4348,-4.2435,-29.7043
2820,-2.1843,-9.8866,0.0766,18.5739,-7.5826,-29.7043
2825,-1.9543,-9.925,0.115,18.9217,-10.6435,-29.7739
2830,-1.2646,-9.5801,0.4215,19.1304,-13.0783,-29.913
2835,-1.2263,-9.5418,0.1533,19.2,-14.887,-30.2609
2840,-0.9963,-9.3885,0.3066,19.4087,-15.9304,-30.887
2845,-0.6898,-9.1586,0.4598,18.9913,-16.3478,-31.5826
2850,-0.3066,-9.0436,0.4982,16.5565,-17.2522,-32.487
2855,0.0,-8.7754,0.6131,13.1478,-18.3652,-33.4609
2860,0.115,-8.6604,0.958,9.8087,-19.4087,-34.2261
2865,0.4215,-8.6221,0.7281,6.5391,-20.1043,-34.7826
2870,0.6898,-8.5071,0.958,3.687,-20.6609,-35.4087
2875,0.6898,-8.5071,0.9963,1.3217,-21.287,-35.7565
2880,0.7281,-8.7754,0.9963,-0.3478,-21.8435,-35.8957
2885,0.8047,-8.737,1.3412,-1.6696,-22.4696,-35.9652
2890,0.7664,-8.6987,1.3795,-2.5739,-23.4435,-35.8957
2895,0.6514,-8.6987,1.3795,-3.2696,-24.5565,-35.8957
2900,0.6131,-8.7754,1.4179,-3.9652,-25.6696,-35.6174
2905,0.6131,-8.852,1.2263,-4.9391,-26.7826,-35.5478
2910,0.5748,-8.852,1.4179,-5.9826,-27.8261,-35.4087
2915,0.6131,-8.8903,1.2263,-7.3739,-28.8696,-35.2
2920,0.6514,-8.9286,1.1496,-8.8348,-29.9826,-34.713
2925,0.6131,-9.0053,1.3029,-10.3652,-31.0261,-34.3652
2930,0.7281,-9.0819,1.0346,-11.9652,-31.8609,-33.9478
2935,0.6514,-9.0819,1.3029,-13.4261,-32.5565,-33.2522
2940,0.6514,-8.9286,1.1113,-14.4,-33.113,-32.487
2945,0.5748,-9.0053,1.3029,-14.7478,-33.6696,-31.7217
2950,0.5365,-9.0053,1.3795,-14.4696,-34.1565,-30.6783
2955,0.5365,-8.967,1.3029,-13.913,-34.8522,-29.7043
2960,0.3449,-8.8903,1.4179,-13.4261,-35.8261,-28.5217
2965,0.3832,-8.6604,1.3795,-13.0783,-36.9391,-27.1304
2970,0.3449,-8.5071,1.3029,-12.9391,-37.9826,-25.6696
2975,0.4215,-8.5071,1.4945,-13.3565,-38.8174,-24.1391
2980,0.2682,-8.2772,1.4179,-14.1913,-39.513,-22.6087
2985,0.3832,-8.1239,1.7627,-15.2348,-40.0696,-21.0087
2990,0.5365,-8.2772,1.8777,-16.4174,-40.2783,-19.2696
2995,0.5365,-8.2005,1.916,-17.113,-40.3478,-17.6
