timestamp,accX,accY,accZ,gyroX,gyroY,gyroZ
0,10.0782,2.2609,0.5365,-0.7652,6.9565,-3.5478
5,10.0016,2.4525,0.6131,-0.6957,7.0261,-3.5478
10,10.2315,2.4908,0.6898,-0.4174,6.887,-3.8261
15,9.81,2.2609,0.8047,-0.3478,6.9565,-3.8957
20,10.0016,2.2992,0.4982,-0.3478,7.0261,-4.1043
25,10.4231,2.5291,0.7281,-0.487,7.1652,-4.0348
30,9.9633,2.3375,0.6131,-0.6261,7.0957,-4.0348
35,9.9633,2.4908,0.4215,-0.7652,7.2348,-4.0348
40,10.0782,2.6441,0.5365,-0.9739,7.4435,-3.9652
45,9.925,2.4525,0.7664,-0.9739,7.513,-3.8957
50,9.925,2.7207,0.4215,-0.8348,7.513,-3.9652
55,9.925,2.4142,0.3832,-0.6261,7.513,-3.8957
60,10.0016,2.7207,0.5365,-0.4174,7.7217,-3.8957
65,9.8866,2.3375,0.5748,-0.0696,7.6522,-3.7565
70,10.1549,2.3759,0.7664,0.2783,7.5826,-3.8261
75,10.1932,2.4142,1.4562,0.4174,7.5826,-3.6174
80,10.1549,2.4908,0.6514,0.487,7.513,-3.6174
85,10.1166,2.5675,0.6898,0.487,7.5826,-3.4087
90,10.0782,2.5291,0.6131,0.4174,7.6522,-3.4087
95,10.1166,2.6441,0.7281,0.4174,7.6522,-3.3391
100,10.0782,2.5291,0.6898,0.2783,7.7913,-3.3391
105,10.1166,2.6058,0.6131,0.0696,7.7913,-2.9217
110,10.1166,2.6441,0.6131,0.0,7.6522,-2.7826
115,10.1549,2.6441,0.6898,-0.2087,7.513,-2.5043
120,9.925,2.6824,0.4982,-0.5565,7.3739,-2.4348
125,10.3465,2.9123,0.9963,-1.0435,7.3739,-2.1565
130,9.6184,2.4908,0.4982,-1.3913,7.3043,-1.9478
135,10.1166,2.8357,0.8814,-1.8783,7.0957,-1.3913
140,10.1549,2.7591,0.9197,-2.2957,6.9565,-1.3913
145,10.1166,2.7591,0.7281,-2.8522,6.7478,-1.0435
150,10.1549,2.2226,0.8047,-3.4087,6.6087,-0.9739
155,10.2698,2.6058,1.1496,-4.0348,6.4696,-0.6957
160,10.2315,2.6441,0.958,-4.5217,6.3304,-0.8348
165,10.5764,2.5291,1.1113,-4.8696,6.3304,-0.5565
170,10.2315,2.6441,0.958,-5.1478,6.4,-0.7652
175,10.2315,2.874,1.1879,-5.1478,6.6087,-0.8348
180,9.8866,2.5675,0.5365,-5.0087,6.7478,-1.0435
185,10.1549,2.4525,1.2646,-4.7304,6.8174,-0.9043
190,9.8866,2.7207,1.1496,-4.1739,6.9565,-1.113
195,10.1166,2.4142,0.6514,-3.5478,6.887,-1.0435
200,10.0782,2.6441,0.843,-2.9217,6.8174,-1.3217
205,9.925,2.4525,0.8814,-2.2957,6.7478,-1.113
210,9.9633,2.4525,0.8047,-1.5304,6.6087,-1.3913
215,10.0016,2.4908,0.8047,-1.0435,6.5391,-1.2522
220,9.9633,2.4908,0.9197,-0.6261,6.4696,-1.4609
225,9.8866,2.4908,0.4598,-0.4174,6.4696,-1.3913
230,9.925,3.1039,0.843,-0.3478,6.4696,-1.6
235,10.0016,2.7974,0.8814,-0.5565,6.4696,-1.6
240,9.9633,2.3375,0.5748,-0.9043,6.4696,-1.8087
245,10.1549,2.4525,0.9197,-1.1826,6.3304,-1.6696
250,10.0016,2.5291,0.6898,-1.8087,6.1913,-1.6696
255,10.3848,2.7974,1.0346,-2.2957,6.0522,-1.3913
260,9.81,2.2226,1.073,-2.6435,5.913,-1.5304
265,10.4231,2.4525,0.7664,-2.9913,5.7043,-1.1826
270,10.0782,2.4908,0.8814,-3.0609,5.6348,-1.1826
275,9.7334,2.3759,0.7281,-3.0609,5.3565,-0.8348
280,10.1549,2.9123,0.4598,-2.7826,5.1478,-0.7652
285,10.2698,2.3375,1.2646,-2.3652,5.0783,-0.487
290,10.3465,2.5291,1.2646,-1.8783,4.8,-0.487
295,10.3465,2.5291,0.7664,-1.4609,4.5913,-0.1391
300,10.1932,2.4142,0.843,-1.113,4.3826,-0.1391
305,10.4231,1.8011,1.1496,-0.7652,4.1043,0.2087
310,10.1932,2.3759,0.8814,-0.3478,3.7565,0.2087
315,10.0782,2.3759,0.9963,0.1391,3.6174,0.487
320,10.1549,2.4908,0.9197,0.3478,3.5478,0.4174
325,10.0782,2.3759,0.7664,0.6957,3.4783,0.6261
330,10.1932,2.3759,0.7664,0.8348,3.5478,0.5565
335,10.1549,2.3759,0.843,0.9739,3.7565,0.6261
340,10.0782,2.4525,0.7281,1.113,3.8261,0.3478
345,10.0782,2.3759,0.843,1.1826,3.8957,0.4174
350,10.1166,2.4525,0.8814,1.0435,4.1739,0.2783
355,10.1166,2.7591,0.7664,0.9043,4.2435,0.2783
360,10.1166,2.5291,0.958,0.6261,4.2435,0.0696
365,10.1549,2.6441,0.7281,0.487,4.3826,0.1391
370,10.1549,2.5291,0.6898,0.2087,4.5217,0.0
375,10.2315,2.2609,1.1496,0.0,4.4522,0.0696
380,9.9633,2.4908,0.6514,-0.2087,4.3826,0.0
385,10.0399,2.6058,0.843,-0.3478,4.3826,0.0696
390,10.4614,2.6058,1.2646,-0.4174,4.4522,-0.0696
395,10.2698,2.5675,0.958,-0.4174,4.4522,0.0696
400,10.1932,2.4525,0.9963,-0.4174,4.4522,-0.0696
405,9.9633,2.7974,1.0346,-0.5565,4.5217,-0.0696
410,10.0782,2.4908,0.843,-0.5565,4.313,-0.2087
415,10.1166,2.6441,0.9197,-0.5565,4.313,-0.2087
420,10.1166,2.7207,0.7281,-0.5565,4.1043,-0.2783
425,10.2315,2.4142,0.8047,-0.5565,4.0348,-0.2783
430,10.1166,2.6441,1.2646,-0.487,3.8957,-0.3478
435,10.0016,2.7207,0.5748,-0.487,3.8261,-0.3478
440,10.0399,2.5675,0.843,-0.5565,3.8261,-0.2783
445,10.0016,2.5675,0.9197,-0.6957,3.687,-0.2783
450,10.1166,2.5291,0.6898,-0.8348,3.7565,-0.2783
455,10.2315,2.4908,0.843,-0.7652,3.7565,-0.2087
460,10.2315,2.4908,0.6898,-0.7652,3.7565,-0.2087
465,10.1549,2.5291,0.7664,-0.8348,3.7565,-0.0696
470,10.1166,2.4908,0.7281,-0.9043,3.687,-0.0696
475,10.1932,2.4525,0.6898,-0.9739,3.7565,0.0
480,10.1166,2.4525,0.8047,-1.1826,3.7565,0.0
485,10.1549,2.4142,0.8047,-1.3217,3.8261,0.0
490,10.3082,2.4525,0.8047,-1.3913,3.9652,0.0
495,10.1932,2.4908,0.8047,-1.2522,3.9652,-0.0696
500,10.1549,2.5291,0.8814,-1.2522,3.8957,-0.0696
505,10.2315,2.4908,0.7281,-1.3217,3.7565,-0.2087
510,10.1166,2.6058,0.7281,-1.3913,3.8261,-0.1391
515,10.2315,2.4908,0.8047,-1.4609,3.9652,-0.1391
520,10.1932,2.5291,0.6898,-1.5304,4.1739,0.0
525,10.1549,2.5291,0.6131,-1.6696,4.313,0.0
530,10.2698,2.4908,0.843,-1.6696,4.4522,-0.0696
535,10.1932,2.4908,0.8047,-1.7391,4.5217,0.0
540,10.1549,2.4525,0.8814,-1.7391,4.8,-0.1391
545,10.2698,2.4142,0.8047,-1.6,5.0087,-0.2087
550,10.2315,2.3759,0.7664,-1.3217,5.1478,-0.2087
555,10.2315,2.3759,0.7664,-1.113,5.3565,-0.4174
560,10.1549,2.4525,0.7664,-0.9043,5.4261,-0.3478
565,10.0782,2.4908,0.6898,-0.8348,5.4957,-0.5565
570,10.1549,2.4142,0.8814,-0.7652,5.4957,-0.6957
575,10.1549,2.4525,0.6898,-0.6957,5.5652,-0.9043
580,10.1549,2.4525,0.8047,-0.6957,5.6348,-0.9043
585,10.0399,2.4525,0.8047,-0.7652,5.6348,-1.2522
590,10.0782,2.4908,0.8047,-0.7652,5.7739,-1.3217
595,10.1166,2.4525,0.8047,-0.7652,5.7739,-1.6
600,10.1166,2.4142,0.8814,-0.9043,5.913,-1.6696
605,10.1549,2.4142,0.5748,-1.0435,5.913,-1.8783
610,10.1549,2.4142,0.7281,-1.1826,6.1217,-1.6696
615,10.0782,2.4908,0.8047,-1.2522,6.0522,-1.8087
620,10.1166,2.5291,0.8814,-1.3217,5.9826,-1.6696
625,10.2315,2.4525,0.7664,-1.3913,6.0522,-1.8087
630,10.0016,2.3759,0.7664,-1.5304,5.9826,-1.5304
635,10.2698,2.3759,1.1879,-1.3913,5.9826,-1.6696
640,10.1932,2.6824,0.2299,-1.3217,6.0522,-1.6
645,10.4998,2.874,0.9963,-0.9739,6.0522,-1.7391
650,9.81,2.4142,0.4215,-0.8348,6.1913,-1.6696
655,10.2315,2.5291,0.7281,-0.6261,6.3304,-1.8087
660,9.9633,2.2226,0.7281,-0.4174,6.4,-1.8087
665,10.1932,2.3759,0.9963,-0.1391,6.4,-2.0174
670,10.1166,2.5675,0.6514,-0.0696,6.4696,-1.9478
675,9.925,2.1459,0.3832,0.1391,6.5391,-2.1565
680,10.3465,2.5291,0.7281,0.4174,6.5391,-1.9478
685,9.8483,2.3375,1.1496,0.4174,6.5391,-2.2261
690,10.2315,2.9123,1.1113,0.3478,6.6087,-2.1565
695,10.1549,2.5291,0.9963,0.1391,6.5391,-2.5043
700,9.925,2.2992,0.6898,-0.1391,6.4696,-2.2957
705,9.9633,2.6441,0.4982,-0.487,6.3304,-2.2957
710,10.0782,2.4908,0.4982,-0.9043,6.2609,-2.087
715,10.2315,2.6441,0.7664,-1.3217,6.1913,-2.1565
720,10.1549,2.4525,0.8814,-1.5304,6.1913,-2.0174
725,10.1166,2.5675,0.9197,-1.9478,6.0522,-2.1565
730,10.1549,2.6441,0.843,-2.0174,5.9826,-1.9478
735,10.0399,2.4525,0.9197,-2.087,6.0522,-2.087
740,10.2315,2.4525,0.6514,-2.1565,6.0522,-1.8087
745,9.8483,2.6441,0.6898,-1.9478,5.9826,-2.087
750,10.1166,2.7207,1.073,-1.8087,5.9826,-2.0174
755,10.3082,2.6441,0.9197,-1.6,6.0522,-2.0174
760,10.1166,2.7591,0.8047,-1.2522,5.9826,-1.8087
765,10.1166,2.6058,0.9963,-1.0435,6.0522,-2.0174
770,10.2315,2.5291,0.6131,-0.7652,6.0522,-1.8783
775,10.3082,2.7207,0.8814,-0.6957,6.0522,-1.9478
780,9.8866,2.3759,0.843,-0.5565,6.0522,-1.8087
785,10.3848,2.6824,0.6131,-0.4174,5.9826,-1.8783
790,9.9633,2.2992,0.958,-0.4174,5.8435,-1.5304
795,9.9633,2.4525,1.1113,-0.2783,5.8435,-1.6696
800,9.8866,2.5675,1.2263,-0.3478,5.7739,-1.4609
805,10.0016,2.7591,0.9963,-0.4174,5.7739,-1.5304
810,10.0782,2.5291,0.8047,-0.5565,5.7739,-1.3913
815,9.81,2.6824,1.4179,-0.6957,5.8435,-1.6696
820,10.6147,2.1843,1.4945,-0.6957,5.8435,-1.6
825,10.2315,2.5675,0.843,-0.6261,5.7739,-1.8087
830,9.9633,2.4908,0.9197,-0.5565,5.6348,-1.8087
835,10.0016,2.6441,0.8814,-0.6261,5.4957,-1.8783
840,9.925,2.5675,0.958,-0.6261,5.4261,-1.7391
845,10.0016,2.5291,0.958,-0.8348,5.3565,-1.8087
850,10.0782,2.4908,0.9197,-0.7652,5.3565,-1.6696
855,10.1166,2.5291,0.8814,-0.6957,5.4261,-1.8087
860,10.0399,2.5675,0.8814,-0.4174,5.4261,-1.6
865,10.0016,2.6441,0.9963,-0.3478,5.4957,-1.8087
870,9.9633,2.5291,1.073,-0.2087,5.5652,-1.6
875,9.9633,2.6824,1.1113,0.0696,5.7043,-1.6696
880,9.6184,2.5675,0.6898,0.0696,5.6348,-1.3913
885,9.81,2.6441,1.0346,0.2087,5.6348,-1.5304
890,10.1549,2.4525,1.3412,0.1391,5.7043,-1.2522
895,9.925,2.5675,0.7664,0.0,5.6348,-1.1826
900,10.1932,2.4525,0.8814,-0.2087,5.4261,-1.0435
905,10.1166,2.4525,0.6898,-0.4174,5.4957,-1.113
910,10.1932,3.0273,1.0346,-0.6957,5.4261,-0.7652
915,10.2315,2.6058,1.1879,-0.9043,5.2174,-0.8348
920,10.2698,2.6441,0.9963,-1.1826,5.3565,-0.5565
925,10.1166,2.3759,0.7664,-1.3217,5.2174,-0.6957
930,10.0782,2.7591,0.9963,-1.3913,5.0783,-0.3478
935,9.8483,2.5675,0.843,-1.4609,4.8696,-0.4174
940,10.3082,2.7591,1.1496,-1.4609,4.8,-0.2783
945,9.8483,2.9123,0.9963,-1.4609,4.6609,-0.2783
950,10.2315,2.7974,0.958,-1.5304,4.5913,-0.1391
955,10.0399,2.4908,1.2263,-1.3217,4.4522,-0.1391
960,10.0782,2.6058,0.8047,-1.113,4.3826,0.0
965,9.9633,2.6058,0.843,-0.9043,4.313,-0.1391
970,10.0399,2.5291,0.9197,-0.8348,4.313,0.0
975,10.0399,2.6058,0.8814,-0.8348,4.313,-0.2087
980,10.0016,2.5675,0.8814,-0.7652,4.4522,-0.2087
985,10.0016,2.6058,0.9197,-0.7652,4.4522,-0.2783
990,10.0016,2.6824,0.8814,-0.7652,4.4522,-0.2087
995,9.9633,2.6441,1.0346,-0.7652,4.5913,-0.1391
1000,10.0399,2.6058,0.9197,-0.9043,4.6609,-0.1391
1005,10.0016,2.6824,0.9963,-0.9043,4.5913,-0.0696
1010,10.0782,2.6824,0.843,-1.0435,4.5913,-0.0696
1015,10.0016,2.6441,0.8814,-1.1826,4.5913,0.0
1020,9.9633,2.6058,0.8814,-1.3217,4.5913,0.0696
1025,9.9633,2.6824,0.9963,-1.3217,4.5217,0.1391
1030,10.0016,2.6058,0.8814,-1.3913,4.6609,0.2783
1035,9.925,2.6824,1.0346,-1.3913,4.6609,0.2087
1040,9.9633,2.5675,1.073,-1.4609,4.5913,0.4174
1045,10.0399,2.4908,1.0346,-1.4609,4.5217,0.3478
1050,10.1549,2.5291,0.9963,-1.4609,4.3826,0.2783
1055,10.0016,2.4525,1.073,-1.3217,4.3826,0.3478
1060,10.0399,2.5675,0.958,-1.0435,4.3826,0.2783
1065,10.0782,2.5291,0.9963,-0.9739,4.1739,0.3478
1070,10.0399,2.6058,1.0346,-0.6957,4.1739,0.487
1075,10.0399,2.5675,0.843,-0.487,4.2435,0.3478
1080,9.925,2.3375,1.3029,-0.4174,4.2435,0.3478
1085,10.0399,2.5675,0.7664,-0.4174,4.313,0.3478
1090,10.1166,2.4908,0.7281,-0.2783,4.3826,0.3478
1095,10.0016,2.4908,0.8814,-0.3478,4.313,0.2783
1100,10.1549,2.4908,1.1113,-0.4174,4.4522,0.0696
1105,10.0399,2.6441,1.073,-0.5565,4.5217,0.0696
1110,10.1932,2.4908,0.8814,-0.6957,4.4522,-0.1391
1115,10.1549,2.5291,0.8814,-0.9043,4.5913,-0.0696
1120,10.0782,2.6441,0.9197,-1.0435,4.5913,-0.0696
1125,10.0782,2.6824,0.843,-1.2522,4.5913,-0.0696
1130,10.0399,2.5291,0.7664,-1.3913,4.5217,-0.1391
1135,10.1166,2.5675,0.9197,-1.6696,4.6609,-0.0696
1140,10.0782,2.5291,0.9197,-1.8783,4.6609,-0.0696
1145,10.0782,2.5291,0.8814,-2.087,4.5913,0.0
1150,10.0782,2.4908,0.8814,-2.0174,4.4522,0.0
1155,10.3465,3.1039,0.5748,-1.8087,4.3826,0.0696
1160,10.0399,2.4525,0.8047,-1.5304,4.4522,-0.0696
1165,10.0782,2.4525,0.958,-1.1826,4.5217,0.0
1170,10.0399,2.4908,0.9963,-0.8348,4.4522,-0.2087
1175,10.0016,2.4908,0.8047,-0.487,4.5217,-0.2087
1180,10.0016,2.6058,0.958,-0.2087,4.6609,-0.2783
1185,10.0782,2.4908,1.073,0.1391,4.7304,-0.3478
1190,10.0016,2.5675,0.9197,0.1391,4.8,-0.487
1195,10.1166,2.4525,0.9963,0.1391,4.8696,-0.5565
1200,10.0016,2.6441,1.0346,0.0696,4.9391,-0.6261
1205,10.1932,2.6058,0.843,0.0696,5.0087,-0.5565
1210,10.0782,2.4908,0.958,0.0,5.0087,-0.6261
1215,10.1166,2.5675,0.9197,-0.1391,4.9391,-0.487
1220,10.1166,2.6058,0.8814,-0.2783,4.8696,-0.487
1225,10.0782,2.5291,0.7281,-0.5565,4.8696,-0.487
1230,10.0016,2.5675,0.4982,-0.7652,4.9391,-0.487
1235,9.9633,2.5291,1.0346,-0.9043,4.8,-0.3478
1240,10.1549,2.5291,0.8814,-1.1826,4.8,-0.487
1245,10.0016,2.6058,0.8047,-1.2522,4.8,-0.3478
1250,10.0782,2.5675,0.8814,-1.3913,4.8696,-0.6261
1255,9.9633,2.6824,0.8814,-1.3913,4.8696,-0.6261
1260,10.0782,2.5675,0.958,-1.2522,4.9391,-0.8348
1265,10.0399,2.6058,0.8814,-1.1826,4.9391,-0.8348
1270,10.0399,2.5291,0.9197,-1.0435,5.0783,-0.9739
1275,10.0399,2.5675,0.9963,-0.9043,5.0783,-0.8348
1280,9.9633,2.6058,0.9197,-0.7652,5.1478,-1.0435
1285,10.0399,2.7207,0.9197,-0.7652,5.1478,-0.9043
1290,10.0399,2.6058,0.8047,-0.7652,5.1478,-0.9739
1295,10.0016,2.6058,0.958,-0.7652,5.0783,-0.7652
1300,9.925,2.3759,0.9197,-0.7652,4.9391,-1.0435
1305,10.1932,2.4908,0.958,-0.8348,5.0087,-0.8348
1310,10.0782,2.5291,0.9197,-0.8348,5.0087,-0.9043
1315,10.1549,2.5291,0.8814,-0.9739,5.0087,-0.7652
1320,10.1549,2.5675,1.1113,-1.0435,4.9391,-0.9043
1325,10.0782,3.1039,1.1113,-1.113,4.8696,-0.6957
1330,10.0399,2.5675,0.9963,-1.113,4.9391,-0.9043
1335,10.1166,2.4525,0.8047,-1.1826,4.9391,-0.7652
1340,10.0782,2.6441,0.8814,-1.3217,4.8,-0.9043
1345,10.0016,2.5675,0.843,-1.3217,4.8696,-0.8348
1350,10.0016,2.5291,0.9197,-1.2522,4.9391,-0.9043
1355,10.0016,2.5675,0.9197,-1.2522,4.8696,-0.8348
1360,10.0016,2.6058,1.0346,-1.113,4.8696,-0.9739
1365,10.0782,2.5675,1.0346,-0.9739,4.9391,-0.9043
1370,10.0782,2.6441,1.073,-0.7652,4.8696,-1.113
1375,9.9633,2.6058,1.073,-0.9043,4.8,-0.9739
1380,9.9633,2.5675,1.073,-0.9739,4.9391,-1.113
1385,10.0782,2.6824,0.8814,-0.9043,4.9391,-0.9739
1390,9.8866,2.7591,1.073,-0.9739,4.8696,-1.0435
1395,10.0782,2.6824,0.8814,-1.1826,5.1478,-0.9739
1400,10.0016,2.5291,0.958,-1.113,5.2174,-1.0435
1405,10.0016,2.6824,0.9197,-1.0435,5.2174,-0.7652
1410,9.9633,2.6824,1.0346,-1.113,5.287,-0.9043
1415,9.9633,2.6441,1.0346,-1.0435,5.287,-0.6957
1420,10.0016,2.5675,1.0346,-1.0435,5.2174,-0.9043
1425,10.1932,2.5675,0.8814,-1.0435,5.1478,-0.6261
1430,10.0399,2.5675,0.9197,-1.1826,5.0087,-0.6957
1435,10.0782,2.6058,1.0346,-1.2522,4.9391,-0.5565
1440,9.9633,2.6441,0.9963,-1.2522,4.9391,-0.5565
1445,9.9633,2.5675,0.958,-1.113,4.7304,-0.3478
1450,10.0782,2.5675,0.9963,-1.0435,4.6609,-0.4174
1455,9.9633,2.6058,0.8814,-0.9043,4.5217,-0.3478
1460,10.1549,2.5291,0.9963,-0.9739,4.4522,-0.4174
1465,10.0399,2.6824,1.0346,-0.9739,4.4522,-0.2783
1470,10.0782,2.5291,1.073,-0.9739,4.313,-0.3478
1475,10.0399,2.6058,0.9963,-0.9739,4.2435,-0.1391
1480,10.0399,2.6058,0.958,-1.113,4.1739,-0.2783
1485,10.0782,2.6441,0.958,-1.0435,4.313,-0.1391
1490,10.0782,2.5291,1.0346,-1.0435,4.313,-0.2783
1495,10.0399,2.5291,0.9963,-0.9043,4.2435,-0.2087
1500,10.1549,2.5675,0.9963,-0.6957,4.1739,-0.3478
1505,9.925,2.4908,0.9963,-0.5565,4.2435,-0.2783
1510,10.0399,2.6824,0.958,-0.3478,4.1739,-0.3478
1515,9.9633,2.5675,0.9197,-0.2087,4.3826,-0.2783
1520,10.0399,2.4908,0.9197,-0.1391,4.313,-0.4174
1525,10.0782,2.6058,0.958,-0.2087,4.313,-0.2783
1530,10.0782,2.6058,0.9197,-0.3478,4.4522,-0.4174
1535,10.0399,2.6441,0.8047,-0.487,4.4522,-0.2087
1540,10.1166,2.5675,0.9963,-0.6261,4.5217,-0.3478
1545,10.0782,2.6058,1.1113,-0.7652,4.5913,-0.3478
1550,10.0399,2.5291,0.9197,-0.9739,4.5913,-0.2783
1555,10.1166,2.6058,0.8814,-1.113,4.6609,-0.2087
1560,10.0399,2.6441,0.9963,-1.113,4.6609,-0.2783
1565,10.0399,2.6824,0.843,-1.1826,4.6609,-0.1391
1570,10.0016,2.6441,1.0346,-1.113,4.5913,-0.0696
1575,10.0016,2.6058,1.0346,-1.0435,4.5913,-0.0696
1580,9.9633,2.6058,1.0346,-1.0435,4.3826,-0.0696
1585,10.0399,2.6824,0.8047,-1.113,4.313,-0.0696
1590,10.0399,2.6441,0.9197,-1.2522,4.2435,-0.0696
1595,10.1166,2.6441,0.8814,-1.2522,4.1739,-0.2087
1600,10.0016,2.6058,0.9197,-1.3913,4.1739,-0.1391
1605,10.0782,2.6058,0.958,-1.6696,4.2435,-0.2087
1610,10.0782,2.6058,1.073,-1.7391,4.2435,-0.2087
1615,10.1932,2.5291,1.1113,-1.7391,4.313,-0.3478
1620,10.0016,2.5675,0.9197,-1.8783,4.3826,-0.4174
1625,10.0782,2.5291,1.0346,-1.6,4.3826,-0.2783
1630,10.1549,2.6058,1.0346,-1.4609,4.4522,-0.2783
1635,10.1166,2.4908,0.8814,-1.2522,4.5913,-0.3478
1640,10.0782,2.5291,0.9963,-1.1826,4.5217,-0.2087
1645,10.1549,2.6441,1.1496,-0.9739,4.5913,-0.0696
1650,10.0782,2.5675,0.9197,-0.7652,4.5913,0.0
1655,10.1549,2.5675,1.1113,-0.5565,4.5217,-0.0696
1660,10.1166,2.5675,1.0346,-0.4174,4.4522,0.2087
1665,10.0782,2.5291,0.9197,-0.2783,4.3826,0.0696
1670,10.0782,2.5291,0.958,-0.3478,4.5217,0.2087
1675,10.0782,2.5675,0.843,-0.3478,4.4522,0.0
1680,9.925,2.6058,0.843,-0.487,4.5913,0.0
1685,10.0782,2.6441,0.843,-0.5565,4.5913,-0.1391
1690,10.0016,2.5675,0.843,-0.6261,4.8,-0.2783
1695,10.0399,2.6058,1.0346,-0.6957,4.9391,-0.487
1700,10.0016,2.5675,0.9963,-0.7652,4.9391,-0.6261
1705,10.0782,2.5675,0.8814,-0.7652,4.8696,-0.7652
1710,10.0399,2.6058,0.9963,-0.6957,4.8696,-0.7652
1715,10.0016,2.5291,0.9197,-0.7652,4.8,-0.9739
1720,10.0399,2.4908,0.958,-0.6261,4.7304,-0.7652
1725,10.0399,2.6058,0.9197,-0.6957,4.6609,-0.8348
1730,10.0399,2.5675,0.9963,-0.7652,4.5217,-0.7652
1735,9.9633,2.5675,1.073,-0.9043,4.4522,-0.9043
1740,10.0399,2.6824,1.1496,-1.1826,4.5217,-0.6261
1745,10.1166,2.5675,1.0346,-1.3913,4.4522,-0.6957
1750,10.1166,2.5675,1.0346,-1.6,4.4522,-0.6261
1755,10.1549,2.4908,0.9197,-1.5304,4.5217,-0.6261
1760,10.0016,2.7207,1.1113,-1.6,4.5217,-0.3478
1765,10.1166,2.4525,0.9197,-1.5304,4.4522,-0.487
1770,10.1166,2.5675,1.073,-1.2522,4.5217,-0.3478
1775,10.0016,2.6824,0.9963,-1.0435,4.5217,-0.3478
1780,10.0399,2.6058,0.8047,-0.9043,4.4522,-0.0696
1785,10.0399,2.6058,0.8814,-0.7652,4.3826,-0.2783
1790,10.0782,2.6058,0.9963,-0.6261,4.3826,-0.0696
1795,10.0016,2.4908,0.843,-0.5565,4.3826,-0.2783
1800,10.0782,2.5675,0.958,-0.487,4.313,0.0
1805,10.1549,2.4908,0.9963,-0.3478,4.3826,-0.2087
1810,10.0016,2.5291,0.958,-0.487,4.3826,-0.0696
1815,9.9633,2.4908,0.958,-0.487,4.4522,-0.2783
1820,10.0782,2.5291,0.9197,-0.487,4.4522,-0.2087
1825,10.0399,2.6824,0.7281,-0.487,4.5913,-0.4174
1830,10.0016,2.5675,0.8814,-0.487,4.6609,-0.2783
1835,10.1166,2.6441,1.0346,-0.6261,4.8,-0.487
1840,10.0399,2.4908,1.0346,-0.6957,4.8,-0.4174
1845,10.0399,2.5675,0.958,-0.6957,4.9391,-0.6957
1850,10.0016,2.6441,0.9197,-0.6261,4.8696,-0.6261
1855,10.0016,2.6441,0.9963,-0.6261,4.9391,-0.8348
1860,10.0016,2.6441,1.0346,-0.6261,4.8696,-0.6957
1865,10.0399,2.6058,0.958,-0.6957,4.7304,-0.7652
1870,10.0782,2.5675,0.9963,-0.7652,4.8,-0.6261
1875,10.1549,2.6058,0.958,-0.9043,4.7304,-0.6957
1880,10.1166,2.5675,0.9963,-0.9043,4.5913,-0.5565
1885,9.9633,2.5291,0.958,-0.9739,4.5217,-0.7652
1890,10.0016,2.5675,0.9963,-0.9739,4.3826,-0.487
1895,10.0782,2.6441,1.1879,-1.0435,4.4522,-0.6957
1900,10.0782,2.5291,0.843,-1.113,4.3826,-0.5565
1905,10.0782,2.5675,1.0346,-0.9739,4.4522,-0.7652
1910,10.0782,2.6058,0.8814,-0.9739,4.4522,-0.6261
1915,10.0782,2.4908,1.073,-0.9043,4.5217,-0.8348
1920,10.1166,2.5675,0.958,-0.6957,4.5913,-0.6261
1925,10.0399,2.6058,0.9963,-0.7652,4.5913,-0.9043
1930,10.0016,2.6058,1.1113,-0.6261,4.5913,-0.6957
1935,9.9633,2.6058,0.9197,-0.487,4.6609,-0.8348
1940,10.0782,2.7207,0.8814,-0.2087,4.8696,-0.7652
1945,10.1549,2.6441,1.0346,-0.1391,4.8696,-0.9043
1950,10.1549,2.5675,0.7664,0.0,5.0783,-0.9043
1955,10.1166,2.5675,0.9963,0.0696,5.0087,-1.113
1960,10.0782,2.6441,0.9963,0.0,4.9391,-0.9043
1965,10.1932,2.4908,0.958,0.0,4.9391,-1.0435
1970,10.1549,2.5675,0.9963,0.0,5.0087,-0.6261
1975,10.1932,2.6441,0.9197,0.0696,4.9391,-0.6261
1980,10.1549,2.5291,1.0346,0.3478,4.8,-0.2783
1985,10.1549,2.6058,0.9197,0.5565,4.7304,-0.2783
1990,10.1549,2.4908,0.958,0.9739,4.8696,-0.1391
1995,10.1166,2.5291,0.8814,1.1826,4.8696,-0.2087
2000,10.0782,2.5291,0.9963,1.1826,5.0783,-0.1391
2005,10.1166,2.6058,1.073,1.2522,5.2174,-0.3478
2010,10.1549,2.5291,1.1113,1.3217,5.3565,-0.3478
2015,10.1932,2.5675,1.1113,1.3913,5.3565,-0.5565
2020,10.1549,2.4525,1.073,1.3217,5.6348,-0.6261
2025,10.0782,2.6058,1.073,1.3913,5.7043,-1.0435
2030,10.0782,2.5291,1.0346,1.3217,5.7739,-1.113
2035,10.0016,2.4908,0.9963,1.3217,5.913,-1.3913
2040,10.0399,2.4908,0.9197,1.5304,6.0522,-1.6
2045,10.1932,2.5291,1.1113,1.8087,6.3304,-1.8087
2050,10.0399,2.6441,0.9963,1.9478,6.6087,-2.0174
2055,10.1166,2.4908,0.8814,2.3652,6.6087,-2.3652
2060,10.0399,2.4908,1.0346,2.7826,6.8174,-2.4348
2065,10.1549,2.6824,0.8814,3.2696,7.0957,-2.713
2070,10.0782,2.5675,0.8814,3.7565,7.3739,-2.8522
2075,10.2315,2.4908,0.9197,4.3826,7.5826,-3.1304
2080,10.2698,2.4908,0.9197,4.8696,7.9304,-3.2696
2085,10.2698,2.5291,0.843,5.3565,8.0696,-3.5478
2090,10.4231,2.5291,0.9197,5.7043,8.1391,-3.8957
2095,10.3465,2.5675,0.8814,6.0522,8.2087,-4.1043
2100,10.5764,2.5291,0.9963,6.5391,8.3478,-4.1043
2105,10.4998,2.5675,1.0346,6.887,8.3478,-4.2435
2110,10.6147,2.6058,0.9197,7.0957,8.4174,-4.1739
2115,10.6914,2.4908,0.9963,7.4435,8.5565,-4.1043
2120,10.6147,2.4908,0.9197,7.8609,8.6261,-4.0348
2125,10.7297,2.4525,0.9963,8.3478,8.9043,-4.0348
2130,10.7297,2.5291,0.843,9.113,9.3913,-4.1739
2135,10.8063,2.5675,0.958,9.9478,9.8087,-4.5217
2140,10.9213,2.4908,0.843,10.7826,10.2261,-4.6609
2145,10.9213,2.4142,0.9197,11.4783,10.6435,-5.0087
2150,10.9979,2.4908,0.958,12.1739,10.9913,-5.4261
2155,10.9213,2.4142,0.9963,12.4522,11.5478,-5.5652
2160,10.9596,2.4142,1.0346,12.5913,11.9652,-5.8435
2165,10.8063,2.4525,1.1113,12.3826,12.1739,-5.8435
2170,10.768,2.4142,1.2263,12.1043,12.5913,-5.9826
2175,10.7297,2.4142,1.2263,11.8261,13.0087,-5.9826
2180,10.6147,2.4525,1.1879,11.6174,13.6348,-6.3304
2185,10.6147,2.4142,1.1496,11.3391,14.1913,-6.6783
2190,10.6147,2.3375,1.073,11.0609,14.887,-7.0957
2195,10.5764,2.4525,1.2646,10.7826,15.513,-7.4435
2200,10.4614,2.4908,1.3029,10.2957,16.2087,-7.9304
2205,10.4231,2.4525,1.3029,9.9478,16.7652,-8.4174
2210,10.1932,2.4525,1.3412,9.6,17.1826,-8.9739
2215,10.1549,2.4908,1.6478,9.5304,17.3913,-9.1826
2220,10.0399,2.4525,1.2263,9.6696,17.6,-9.6696
2225,10.0016,2.4142,1.4179,9.9478,17.7391,-9.8783
2230,9.925,2.4142,1.5328,10.713,17.9478,-10.4348
2235,10.0782,2.2992,1.4562,11.9652,18.2957,-10.9217
2240,10.1166,2.3375,1.3029,13.2174,18.9217,-11.6174
2245,9.925,2.3759,1.2263,14.7478,19.7565,-12.5217
2250,9.925,2.3375,1.2263,16.2783,20.8696,-13.7739
2255,9.81,2.3759,1.1879,17.8783,22.3304,-14.8174
2260,9.9633,2.4142,1.1879,19.4087,23.6522,-16.2087
2265,9.8866,2.3375,1.0346,20.8696,25.4609,-17.8087
2270,9.8866,2.3375,0.9963,22.5391,26.7826,-19.2
2275,9.925,2.3375,0.9963,23.5826,28.0348,-20.1043
2280,9.9633,2.4142,1.1496,24.3478,29.0783,-21.287
2285,9.925,2.5291,0.843,24.5565,29.8435,-21.8435
2290,9.925,2.7207,0.8047,24.0696,30.4,-22.6087
2295,9.9633,2.9123,0.843,23.0261,31.0261,-22.887
2300,10.0399,2.989,0.843,21.4261,31.513,-23.5826
2305,10.1932,3.0656,0.8814,19.4087,32.0696,-23.9304
2310,10.1932,3.2189,0.5748,16.9739,32.5565,-24.6261
2315,10.2698,3.1423,0.7281,14.2609,32.9043,-25.0435
2320,10.2698,3.1806,0.6514,11.6174,33.3217,-25.5304
2325,10.2315,3.2572,0.7281,8.1391,33.9478,-25.6696
2330,10.3082,3.2955,0.6131,5.287,34.5043,-26.0174
2335,10.3465,3.3722,0.6514,2.1565,34.7826,-25.9478
2340,10.3082,3.3722,0.843,-0.8348,34.9217,-26.4348
2345,10.2315,3.3722,0.8047,-3.8957,34.8522,-26.713
2350,10.4231,3.3339,0.958,-6.9565,34.6435,-27.2
2355,10.2315,3.3339,1.073,-9.8087,34.2957,-27.4087
2360,10.2698,3.4105,1.1113,-12.5913,33.8783,-27.8957
2365,10.3082,3.2572,1.1496,-15.0957,33.7391,-28.0348
2370,10.1549,3.2572,1.2646,-17.1826,33.5304,-28.5913
2375,10.2315,3.1039,1.4562,-18.5043,33.3913,-28.8
2380,10.0782,3.1039,1.6478,-18.9217,33.4609,-29.3565
2385,10.0399,3.0273,1.8394,-18.4348,33.8783,-29.4957
2390,9.925,2.874,2.1076,-17.113,34.4348,-29.9826
2395,9.925,2.9507,2.2992,-15.1652,34.9217,-30.3304
2400,9.8483,3.0273,2.4142,-12.6609,35.3391,-31.1652
2405,9.7717,3.0273,2.4142,-9.8087,35.6174,-31.5826
2410,9.8483,3.1039,2.6824,-6.4696,36.1043,-32.5565
2415,9.7717,3.2572,2.7591,-3.2696,36.5913,-33.2522
2420,9.7334,2.7207,2.0693,-0.0696,36.8,-34.2261
2425,9.81,3.2572,2.7591,2.7826,36.8,-34.713
2430,9.7717,3.3339,2.7974,5.3565,36.2435,-35.4783
2435,9.7334,3.4105,2.9507,8.0,35.6174,-35.687
2440,9.81,3.2955,2.5675,9.3217,34.713,-35.8261
2445,9.7717,3.3339,2.5675,10.0174,33.6696,-35.4783
2450,9.925,3.2955,2.3759,9.9478,32.7652,-35.4783
2455,9.9633,3.4488,2.2609,9.3913,31.7913,-35.2696
2460,10.2315,3.2955,2.1459,8.6261,30.9565,-35.3391
2465,10.1549,3.3339,2.1459,7.0261,29.8435,-34.9217
2470,10.2315,3.3339,1.8011,5.1478,28.4522,-35.1304
2475,10.3465,3.2955,1.6861,2.9217,26.6435,-34.9913
2480,10.2698,3.3722,1.6095,0.4174,25.1826,-34.6435
2485,10.2698,3.5255,1.4179,-1.7391,23.513,-34.2957
2490,10.0399,3.5638,1.3412,-3.8957,21.7739,-34.8522
2495,10.0399,3.6021,0.9197,-5.5652,20.4522,-34.6435
2500,9.8866,3.7171,0.958,-8.2783,20.313,-34.3652
2505,9.7717,3.6404,0.6898,-10.8522,20.8696,-34.1565
2510,9.5034,3.9853,0.7281,-12.8,21.3565,-34.8522
2515,9.4268,3.7937,0.7664,-14.6783,22.8174,-34.5043
2520,9.2352,4.0236,0.8814,-17.4609,24.6261,-33.9478
2525,9.0053,3.9853,0.8814,-19.4087,26.2261,-34.6435
2530,8.6987,4.3685,1.0346,-20.4522,27.0609,-36.0348
2535,8.6604,4.2919,1.1496,-21.7043,28.313,-36.3826
2540,8.3921,4.4068,1.5328,-22.2609,29.7739,-36.8696
2545,8.2389,4.4835,1.7627,-22.1913,30.5391,-37.0783
2550,8.0473,4.6368,1.8777,-21.9826,30.6783,-37.1478
2555,8.0089,4.7517,2.2992,-21.8435,30.1913,-37.4261
2560,7.779,4.905,2.3375,-21.1478,29.0087,-37.7739
2565,7.5874,5.0583,2.6058,-20.3826,27.5478,-36.5217
2570,7.779,5.0583,2.7974,-19.9652,26.087,-34.5043
2575,7.8557,5.2116,3.1039,-18.6435,24.2783,-34.5043
2580,7.6257,5.3648,3.0273,-17.3913,22.887,-34.713
2585,7.6641,5.4415,3.2189,-16.2783,21.7043,-34.2261
2590,7.7407,5.4415,3.4871,-15.513,20.2435,-33.3217
2595,7.7407,5.4798,3.4488,-15.0957,18.713,-31.6522
2600,7.8173,5.4798,3.5255,-14.6783,17.0435,-30.1217
2605,7.8557,5.3648,3.5638,-14.1913,15.7913,-28.5217
2610,7.8173,5.3648,3.7937,-13.4261,14.7478,-26.8522
2615,7.894,5.3648,3.7171,-12.2435,13.8435,-25.0435
2620,7.9323,5.2499,3.5638,-10.5739,13.2174,-23.5826
2625,8.0473,5.2882,3.5638,-8.487,12.7304,-22.1913
2630,7.9706,5.3265,3.3722,-6.4,12.1043,-21.0087
2635,8.0089,5.2499,3.3722,-4.4522,11.4087,-19.8957
2640,8.0089,5.2499,3.0656,-2.8522,10.7826,-18.8522
2645,8.0856,5.4032,3.0273,-1.6,10.4348,-18.0174
2650,8.0089,5.2499,2.8357,-0.7652,10.2261,-17.2522
2655,7.779,5.4798,2.5675,-0.2783,9.8087,-16.0
2660,7.779,5.4798,2.6058,0.0696,9.0435,-14.887
2665,7.8557,5.4032,2.4142,0.2783,8.2087,-13.7043
2670,7.5108,5.5564,2.2226,0.487,7.513,-12.5217
2675,7.5491,5.4415,1.9927,0.3478,6.887,-11.4087
2680,7.5108,5.4798,1.7244,-0.1391,6.0522,-10.0174
2685,7.3958,5.5948,1.7244,-0.9739,4.9391,-8.5565
2690,7.3192,5.5948,1.6095,-2.3652,3.4087,-6.6087
2695,7.3192,5.6331,1.6861,-4.0348,1.3913,-4.0348
2700,7.2809,5.7097,1.4945,-5.4957,-1.113,-1.113
2705,7.2809,5.6714,1.8394,-6.5391,-4.0348,2.0174
2710,7.3192,5.6331,1.916,-6.7478,-7.6522,5.9826
2715,7.2809,5.748,1.9927,-6.2609,-10.4348,9.1826
2720,7.3958,5.9013,2.1843,-5.3565,-12.5913,12.1739
2725,7.3958,6.0929,2.3375,-4.1739,-14.2609,14.6783
2730,7.3958,6.3229,2.4525,-3.2696,-15.2348,17.1826
2735,7.3958,6.5528,2.6058,-2.4348,-15.7217,19.4087
2740,7.3575,6.7444,2.7591,-1.6696,-15.7217,21.287
2745,7.3575,6.821,2.6441,-1.113,-15.2348,22.4696
2750,7.2809,6.7444,2.5675,-0.7652,-14.2609,23.7913
2755,7.2042,6.5911,2.4908,-0.6957,-13.287,24.7652
2760,7.3192,6.5528,2.4525,-1.2522,-12.5913,26.087
2765,7.3958,6.2079,2.3375,-2.6435,-12.9391,27.9652
2770,7.3575,5.9396,2.2992,-5.3565,-13.2174,29.5652
2775,7.4341,5.863,2.2226,-7.9304,-12.8,30.6783
2780,7.3958,5.5948,2.5675,-10.5739,-11.8957,31.5826
2785,7.1659,5.6331,2.4525,-12.8,-10.6435,32.1391
2790,7.0509,5.4032,2.6824,-14.8174,-9.6696,33.113
2795,7.0126,5.3648,2.9123,-16.5565,-9.3913,33.9478
2800,6.8977,5.5181,2.9507,-18.1565,-9.2522,35.3391
2805,6.9743,5.4032,3.2189,-19.8261,-9.3217,36.8696
2810,6.936,5.4798,3.1423,-21.0783,-9.3217,38.6783
2815,7.0509,5.3648,3.1806,-22.0522,-9.1826,40.4174
2820,7.2042,5.2499,3.1806,-22.9565,-8.9043,43.2696
2825,7.3958,5.1732,3.1039,-23.4435,-8.2783,45.9826
2830,7.5874,5.1349,2.989,-23.3043,-7.4435,49.1826
2835,7.894,4.9816,2.9123,-22.6783,-5.9826,52.1043
2840,8.2772,4.905,2.8357,-21.1478,-4.313,55.2348
2845,8.6221,4.5601,2.7974,-18.713,-2.087,57.8783
2850,8.9286,4.4068,2.8357,-15.5826,0.0696,60.8696
2855,9.3118,4.3302,2.7591,-11.7565,2.1565,63.3739
2860,9.7334,4.3302,2.8357,-7.7217,4.3826,65.6696
2865,10.0016,4.2152,2.7974,-3.3391,6.4,67.3391
2870,10.3082,4.1003,2.6058,1.0435,8.2087,69.2174
2875,10.5764,3.9853,2.4525,5.3565,9.3217,70.5391
2880,10.883,3.947,2.3759,10.1565,9.6696,71.6522
2885,11.0746,3.9087,2.1843,13.0087,9.3217,72.4174
2890,11.0363,4.062,1.8777,14.8174,8.6261,73.2522
2895,11.2279,4.0236,1.6861,15.5826,7.9304,73.5304
2900,11.2662,3.947,1.3795,15.4435,7.7217,73.7391
2905,11.3045,3.832,1.3029,14.6087,8.0696,73.3217
2910,11.2279,3.9087,1.1113,13.0783,8.9739,73.0435
2915,11.1895,3.832,1.2646,10.7826,10.3652,72.1391
2920,11.0746,3.8704,1.2263,8.1391,12.0348,71.1652
2925,11.0746,3.8704,1.3412,5.4261,14.0522,69.7043
2930,10.9213,3.832,1.3029,2.4348,15.6522,68.2435
2935,10.883,3.7937,1.1496,-0.1391,17.5304,66.087
2940,10.6914,3.832,1.3795,-3.1304,18.8522,64.7652
2945,10.653,3.6787,1.3412,-5.2174,19.687,63.3043
2950,10.5764,3.5638,1.3029,-6.8174,20.4522,62.1913
2955,10.4231,3.4105,1.4945,-8.0696,20.9391,60.7304
2960,10.2315,3.0656,1.4945,-8.9043,21.4261,60.1739
2965,10.2315,2.9123,1.6861,-9.0435,22.1217,59.4087
2970,10.4998,2.7974,1.5328,-8.9043,22.9565,59.2696
2975,10.4998,2.6441,1.6095,-8.9739,24.2087,58.5043
2980,10.3848,2.6058,1.6861,-9.5304,25.6696,57.7391
2985,10.3082,2.5291,1.7244,-10.4348,27.4087,55.7913
2990,10.3465,2.4908,1.9927,-11.8261,29.8435,53.7043
2995,10.5381,2.4142,2.1076,-13.8435,31.9304,51.687
