timestamp,accX,accY,accZ,gyroX,gyroY,gyroZ
0,-0.1533,-8.2772,-5.7097,-6.6087,3.8957,0.2087
5,0.0,-8.3155,-5.5948,-6.2609,3.5478,0.2087
10,0.0,-8.3538,-5.6714,-5.913,3.5478,0.0696
15,0.0,-8.3155,-5.6714,-5.4261,3.2696,0.0696
20,0.0,-8.2772,-5.748,-4.8696,3.4087,0.0
25,-0.0383,-8.2772,-5.6714,-4.313,3.4783,0.1391
30,0.0,-8.3155,-5.7097,-3.8957,3.5478,0.1391
35,0.0,-8.3921,-5.748,-3.4087,3.4783,-0.0696
40,-0.0383,-8.2772,-5.7097,-2.9217,3.6174,-0.2087
45,0.0,-8.2772,-5.7864,-2.5043,3.6174,-0.487
50,0.0,-8.2005,-5.7097,-2.087,3.6174,-0.6957
55,0.0,-8.0856,-5.7864,-1.6696,3.5478,-0.8348
60,0.0,-8.0089,-5.9013,-1.1826,3.6174,-1.0435
65,0.0383,-8.2389,-5.6714,-0.7652,3.6174,-1.0435
70,0.0,-8.1622,-5.7864,-0.3478,3.4783,-1.1826
75,0.0,-8.2005,-5.7864,-0.0696,3.4087,-1.2522
80,0.0,-7.9706,-5.7864,0.3478,3.2696,-1.3913
85,-0.0766,-8.0089,-5.748,0.4174,3.1304,-1.6
90,-0.2682,-8.0856,-5.7097,0.487,3.0609,-1.6696
95,0.0,-8.1239,-5.8247,0.3478,3.0609,-1.8783
100,0.0766,-8.1239,-5.8247,0.487,3.2,-2.1565
105,0.0,-8.0089,-5.8247,0.5565,3.3391,-2.1565
110,0.0,-8.0856,-5.7864,0.6957,3.5478,-2.2261
115,-0.0766,-7.9706,-5.8247,0.9739,3.687,-2.4348
120,0.0,-8.0856,-5.8247,1.113,3.8957,-2.5043
125,0.0383,-8.1239,-5.863,1.5304,3.9652,-2.5739
130,0.0,-8.0473,-5.7864,1.8783,4.1043,-2.5043
135,-0.2682,-8.1239,-5.863,2.2957,4.1043,-2.4348
140,-0.3066,-8.0856,-5.7097,2.713,4.0348,-2.2957
145,-0.2682,-8.0089,-5.7097,3.0609,3.7565,-2.087
150,-0.2682,-8.0856,-5.748,3.5478,3.4087,-1.8783
155,-0.2299,-8.0473,-5.6714,3.8957,2.9913,-1.6
160,-0.2299,-8.0473,-5.748,4.313,2.6435,-1.4609
165,-0.115,-8.0473,-5.6331,4.6609,2.2957,-1.3217
170,-0.0766,-8.0089,-5.7864,4.8,2.2957,-1.1826
175,-0.115,-8.0473,-5.7097,4.9391,2.2261,-1.0435
180,0.0,-8.0856,-5.7097,4.9391,2.2957,-1.0435
185,0.0,-8.0089,-5.6714,4.9391,2.5043,-1.113
190,-0.0383,-7.9706,-5.7097,4.9391,2.8522,-1.1826
195,-0.0383,-8.0473,-5.7097,5.0783,3.4087,-1.1826
200,0.115,-8.0856,-6.0929,5.1478,3.687,-1.1826
205,0.0,-8.1622,-5.7097,5.287,3.9652,-1.3913
210,0.0,-8.0473,-5.5564,5.7043,4.4522,-1.3913
215,0.0766,-8.1622,-5.7864,5.9826,4.7304,-1.4609
220,-0.115,-8.0473,-5.7097,6.1913,4.8696,-1.5304
225,0.0,-8.0089,-5.6331,6.3304,4.9391,-1.4609
230,-0.115,-7.9706,-5.7097,6.2609,4.9391,-1.3913
235,-0.2299,-7.9323,-5.6331,6.0522,4.9391,-1.113
240,-0.0766,-7.9323,-5.748,5.7043,4.8696,-0.9043
245,-0.2299,-7.8173,-5.5564,5.3565,4.8696,-0.6261
250,-0.1916,-7.8173,-5.6714,4.8,4.5913,-0.2783
255,0.0,-7.894,-5.5564,4.313,4.4522,-0.1391
260,0.0,-8.0856,-5.6714,3.8261,4.1739,0.0696
265,0.0,-8.0089,-5.748,3.2,4.1043,0.2087
270,0.0,-7.894,-5.6714,2.8522,4.1739,0.3478
275,0.0383,-7.9323,-5.6714,2.5043,4.4522,0.487
280,0.0,-7.9323,-5.6714,2.5043,5.0087,0.6957
285,-0.0383,-7.8173,-5.7864,2.4348,5.4957,0.6957
290,0.115,-7.9323,-5.5564,2.5739,5.7043,0.5565
295,-0.0383,-7.894,-5.6331,2.713,5.8435,0.6957
300,-0.0766,-7.9323,-5.6714,2.9217,6.1217,0.487
305,-0.115,-7.8557,-5.6714,3.0609,5.9826,0.487
310,0.0,-7.9706,-5.5564,2.9913,5.7739,0.487
315,-0.2299,-7.8557,-5.6331,2.713,5.3565,0.3478
320,-0.115,-7.8557,-5.6714,2.2957,5.2174,0.3478
325,-0.115,-7.9706,-5.6714,1.7391,4.8696,0.3478
330,-0.2682,-7.9323,-5.6714,1.2522,4.5217,0.2087
335,-0.1533,-7.8557,-5.5181,0.7652,4.2435,0.1391
340,-0.1533,-7.894,-5.6331,0.3478,4.1043,0.1391
345,-0.0766,-7.9706,-5.5564,0.0696,3.8957,0.0
350,-0.0383,-8.1239,-5.4798,0.0696,3.8261,-0.1391
355,-0.0766,-8.1622,-5.6331,0.2087,3.7565,-0.2783
360,-0.0383,-8.1239,-5.6714,0.487,3.687,-0.3478
365,-0.0383,-8.0856,-5.7864,0.9043,3.687,-0.4174
370,0.0,-8.2005,-5.748,1.1826,3.7565,-0.4174
375,0.0,-8.0856,-5.6714,1.3217,4.0348,-0.3478
380,-0.0766,-8.0856,-5.5948,1.5304,4.3826,-0.4174
385,0.0,-8.0856,-5.8247,1.3217,4.2435,-0.5565
390,-0.115,-8.0473,-5.6331,1.113,4.2435,-0.2783
395,0.0,-8.0473,-5.748,0.9043,4.3826,-0.1391
400,-0.0766,-8.0473,-5.6331,0.6957,4.313,0.1391
405,0.115,-8.0089,-5.6331,0.4174,4.313,0.2783
410,0.0383,-8.1239,-5.5948,0.2087,4.3826,0.2087
415,-0.0383,-8.0089,-5.2499,0.1391,4.4522,0.4174
420,0.0,-8.0473,-5.5948,0.1391,4.5913,0.2783
425,0.0766,-8.1239,-5.5181,0.1391,4.5913,0.0696
430,0.0,-8.0856,-5.5564,0.2087,4.7304,-0.0696
435,0.0383,-8.0473,-5.5564,0.0696,4.8,-0.4174
440,-0.115,-8.2389,-5.4415,-0.0696,4.9391,-0.5565
445,-0.0766,-8.1239,-5.5948,-0.3478,4.8696,-0.6261
450,-0.1533,-8.1239,-5.5181,-0.7652,4.8696,-0.6261
455,-0.1533,-8.1239,-5.6331,-1.0435,4.8696,-0.6261
460,0.0,-8.2005,-5.5948,-1.3913,4.8,-0.5565
465,-0.0383,-8.0473,-5.5181,-1.7391,4.5217,-0.6261
470,-0.115,-8.2389,-5.6331,-1.8783,4.2435,-0.6261
475,-0.0766,-8.1622,-5.7097,-2.087,4.1739,-0.487
480,-0.0383,-8.1622,-5.6331,-2.1565,3.9652,-0.487
485,-0.1533,-8.2389,-5.6331,-2.2261,3.8261,-0.3478
490,-0.0383,-8.2005,-5.5564,-2.2261,3.687,-0.3478
495,0.0,-8.0856,-5.5564,-2.2261,3.6174,-0.487
500,-0.0383,-8.1622,-5.5564,-2.087,3.4783,-0.6261
505,-0.0383,-8.2005,-5.5948,-1.9478,3.3391,-0.8348
510,0.0,-8.2005,-5.5181,-1.8783,3.3391,-0.9739
515,0.0383,-8.0856,-5.6331,-1.8783,3.4087,-1.0435
520,-0.0766,-8.0856,-5.7864,-1.8087,3.4087,-1.1826
525,-0.0766,-8.0473,-5.5181,-1.6,3.6174,-1.1826
530,0.0766,-8.3155,-5.6714,-1.6696,3.8261,-1.2522
535,-0.0383,-8.1239,-5.6331,-1.5304,4.0348,-1.2522
540,-0.0383,-8.0856,-5.6714,-1.4609,4.1739,-1.2522
545,0.0,-8.1239,-5.6714,-1.1826,4.313,-1.113
550,0.0,-8.1239,-5.6331,-0.9739,4.313,-1.0435
555,0.0,-8.0856,-5.748,-0.6957,4.3826,-0.9739
560,0.0,-7.9706,-5.6331,-0.487,4.313,-0.9043
565,0.0,-8.0473,-5.5948,-0.2783,4.3826,-0.7652
570,0.0383,-8.0856,-5.6714,-0.2087,4.2435,-0.487
575,0.0,-7.9706,-5.7097,-0.0696,4.3826,-0.3478
580,0.0,-8.0089,-5.5948,0.0,4.4522,-0.2087
585,0.0383,-8.0856,-5.6331,-0.2087,4.5913,-0.2087
590,0.0,-8.0856,-5.5948,-0.2783,4.6609,-0.0696
595,0.0,-8.1622,-5.6714,-0.487,4.7304,0.0696
600,0.0383,-8.1239,-5.5564,-0.8348,4.8696,0.2087
605,0.1533,-8.2005,-5.5948,-1.113,5.0783,0.3478
610,0.0383,-8.1622,-5.4798,-1.4609,5.287,0.5565
615,0.0766,-8.2772,-5.5181,-1.6,5.4957,0.6261
620,0.0766,-8.2772,-5.5948,-1.6696,5.5652,0.8348
625,0.0383,-8.2389,-5.5948,-1.6,5.7739,0.9739
630,-0.0766,-8.3538,-5.5181,-1.3913,5.8435,1.1826
635,0.115,-8.3155,-5.5181,-1.1826,5.7043,1.113
640,0.0,-8.5454,-5.5564,-1.113,5.4957,1.2522
645,-0.0766,-8.3155,-5.5564,-0.8348,5.3565,1.4609
650,-0.2299,-8.3155,-5.6331,-0.5565,5.287,1.3913
655,0.0,-8.3921,-5.5564,-0.1391,5.2174,1.4609
660,-0.1916,-8.3921,-5.6331,0.4174,5.0087,1.5304
665,-0.0383,-8.4305,-5.6331,1.0435,5.1478,1.5304
670,-0.0766,-8.3921,-5.6714,1.7391,5.2174,1.3913
675,-0.0383,-8.2005,-5.5948,2.5043,5.2174,1.4609
680,0.0,-8.2005,-5.6714,3.2696,5.287,1.7391
685,-0.2299,-8.0473,-5.6714,4.1043,5.6348,1.4609
690,-0.0383,-8.1622,-5.6714,4.313,5.287,1.1826
695,0.0,-8.3155,-5.5948,4.5217,4.9391,0.9739
700,-0.0383,-8.1239,-5.6331,4.5217,5.0783,0.8348
705,-0.0766,-8.0473,-5.6714,4.3826,5.3565,0.6957
710,0.0,-8.0473,-5.6331,3.9652,5.4957,0.6261
715,0.0,-8.1239,-5.748,3.687,5.8435,0.6957
720,-0.0383,-8.1239,-5.5948,3.3391,6.0522,0.6261
725,0.0,-8.1239,-5.7097,2.9913,5.7043,0.4174
730,-0.115,-8.1239,-5.6331,2.6435,5.5652,0.487
735,-0.0383,-8.0473,-5.7864,2.5739,5.4957,0.3478
740,0.0383,-8.1239,-5.748,2.6435,5.4957,0.487
745,0.0,-8.1622,-5.7097,2.7826,5.4957,0.4174
750,0.0,-8.0856,-5.6331,3.0609,5.4957,0.4174
755,0.0,-8.0089,-5.5564,3.4783,5.3565,0.5565
760,0.0,-8.2005,-5.5948,3.7565,5.4957,0.8348
765,-0.0766,-8.1239,-5.7864,4.2435,5.8435,0.8348
770,-0.0766,-7.9323,-5.5564,4.4522,5.6348,0.6261
775,-0.0766,-8.1239,-5.6331,4.4522,5.287,0.4174
780,0.0,-8.0089,-5.6331,4.313,5.2174,0.4174
785,0.0,-8.0856,-5.7097,4.1739,5.0783,0.2783
790,0.0383,-8.0089,-5.6714,3.7565,5.0783,0.1391
795,0.0383,-8.0856,-5.6714,3.1304,5.1478,0.1391
800,-0.0766,-8.1239,-5.6331,2.6435,5.3565,0.0
805,0.0,-8.0856,-5.7097,2.2957,5.4261,-0.1391
810,-0.0383,-8.1239,-5.6331,2.0174,5.4261,-0.0696
815,-0.0383,-8.2005,-5.6331,1.9478,5.4261,-0.0696
820,0.0,-8.2389,-5.5948,2.1565,5.2174,0.0696
825,-0.115,-8.1622,-5.5948,2.6435,5.0087,0.2783
830,-0.2299,-8.2772,-5.3648,3.1304,4.8,0.2087
835,-0.115,-8.1622,-5.5564,3.4087,4.2435,0.0
840,-0.1916,-8.1239,-5.4798,3.7565,3.7565,-0.1391
845,-0.0383,-8.2772,-5.6331,3.8957,3.6174,-0.2087
850,-0.1533,-8.1622,-5.6331,4.0348,3.3391,-0.3478
855,-0.2299,-8.3538,-5.6331,4.2435,3.4087,-0.487
860,-0.0766,-8.2772,-5.5181,4.3826,3.4783,-0.487
865,-0.1916,-8.3155,-5.5948,4.3826,3.687,-0.487
870,-0.1916,-8.2389,-5.5181,4.3826,3.7565,-0.6957
875,-0.115,-8.2389,-5.6331,4.4522,3.8957,-0.7652
880,-0.115,-8.1239,-5.5564,4.5217,3.8957,-0.9739
885,0.0,-8.0473,-5.5564,4.5913,3.7565,-1.1826
890,0.0,-8.3155,-5.7097,4.5217,3.6174,-1.1826
895,-0.0766,-8.0089,-5.5948,4.3826,3.4087,-1.3217
900,-0.0383,-8.1239,-5.5948,4.313,3.3391,-1.3217
905,0.0,-8.1239,-5.5564,4.0348,3.4087,-1.3913
910,-0.0766,-8.1622,-5.5564,3.8261,3.5478,-1.2522
915,-0.0383,-8.3155,-5.4798,3.6174,3.9652,-1.1826
920,0.0,-8.1622,-5.5181,3.4783,4.0348,-1.113
925,-0.0766,-8.2389,-5.5564,3.6174,4.0348,-1.0435
930,-0.0383,-8.2772,-5.3648,3.6174,4.1043,-1.113
935,-0.0766,-8.1239,-5.4415,3.7565,4.0348,-1.0435
940,-0.1533,-8.1622,-5.3648,4.0348,3.8957,-1.113
945,0.0,-8.2389,-5.5948,4.1739,3.8261,-1.1826
950,-0.115,-8.1622,-5.4415,4.1739,3.8261,-1.2522
955,-0.1916,-8.0473,-5.4798,4.0348,3.687,-1.0435
960,0.0,-8.1239,-5.4798,3.8957,3.6174,-1.0435
965,0.0,-8.2005,-5.5181,3.4783,3.8261,-0.9043
970,-0.115,-8.1239,-5.4415,3.0609,3.8957,-0.9739
975,-0.0383,-8.2389,-5.4032,2.713,3.9652,-0.8348
980,0.0383,-8.2005,-5.3648,2.3652,4.0348,-0.7652
985,0.0,-8.2772,-5.4798,2.1565,4.1043,-0.8348
990,0.0,-8.2772,-5.5181,2.1565,4.0348,-0.7652
995,0.0,-8.2772,-5.4415,2.1565,3.9652,-0.7652
1000,-0.0766,-8.1239,-5.4415,2.5043,3.7565,-0.6957
1005,0.0,-8.1239,-5.5564,2.713,3.687,-0.5565
1010,-0.1533,-8.0856,-5.6331,3.0609,3.7565,-0.487
1015,-0.0383,-8.1622,-5.4798,3.3391,3.7565,-0.487
1020,0.0,-8.1239,-5.5181,3.5478,3.8261,-0.3478
1025,-0.0383,-8.1239,-5.5948,3.5478,3.9652,-0.4174
1030,0.0383,-8.1239,-5.4415,3.4087,4.0348,-0.5565
1035,0.0,-8.0473,-5.5181,3.3391,4.1043,-0.6261
1040,0.0,-8.0473,-5.6331,3.0609,4.313,-0.6261
1045,-0.0766,-8.0856,-5.5181,2.6435,4.4522,-0.8348
1050,-0.0383,-8.1239,-5.5181,2.087,4.8,-0.8348
1055,0.0,-8.0473,-5.4032,1.7391,4.8696,-0.7652
1060,-0.0383,-8.3155,-5.4415,1.5304,4.9391,-0.7652
1065,-0.2299,-8.2005,-5.4032,1.4609,4.8,-0.7652
1070,-0.0383,-8.1622,-5.3648,1.5304,4.4522,-0.6957
1075,0.0,-8.3155,-5.4032,1.6696,4.313,-0.6957
1080,-0.0766,-8.2005,-5.4032,1.8783,3.8957,-0.7652
1085,-0.0766,-8.3155,-5.4032,2.087,3.687,-0.7652
1090,-0.0766,-8.2005,-5.3265,2.087,3.4783,-0.6957
1095,-0.0766,-8.2389,-5.4798,2.0174,3.4087,-0.6261
1100,-0.0383,-8.3155,-5.4032,1.9478,3.3391,-0.6957
1105,-0.115,-8.2389,-5.2882,2.0174,3.4783,-0.487
1110,-0.0383,-8.3155,-5.2882,2.087,3.4783,-0.487
1115,-0.0383,-8.2772,-5.4032,2.2261,3.6174,-0.3478
1120,0.0383,-8.5071,-5.4415,2.2957,3.6174,-0.487
1125,-0.0383,-8.3155,-5.1732,2.5043,3.6174,-0.7652
1130,0.0,-8.3155,-5.4032,2.5043,3.7565,-0.8348
1135,0.0,-8.3538,-5.2499,2.713,3.8261,-0.9739
1140,-0.0383,-8.2772,-5.4415,2.7826,3.8261,-1.0435
1145,-0.0766,-8.2389,-5.3265,3.1304,3.7565,-1.1826
1150,0.0,-8.2772,-5.4415,3.0609,3.687,-1.2522
1155,0.0,-8.1239,-5.3265,3.0609,3.687,-1.3217
1160,0.0,-8.2005,-5.4798,3.0609,3.6174,-1.3217
1165,-0.0766,-8.0856,-5.3648,2.8522,3.6174,-1.4609
1170,0.0,-8.2005,-5.4798,2.5043,3.5478,-1.4609
1175,-0.2682,-8.2772,-5.3648,2.0174,3.4783,-1.3913
1180,0.0,-8.2005,-5.3265,1.6696,3.4783,-1.3217
1185,-0.0383,-8.2005,-5.3265,1.3217,3.4087,-1.3217
1190,0.0,-8.2005,-5.3648,0.8348,3.3391,-1.3913
1195,0.0,-8.3538,-5.3265,0.6261,3.4783,-1.3913
1200,0.0,-8.3921,-5.4415,0.4174,3.3391,-1.2522
1205,-0.1533,-8.3921,-5.3648,0.487,3.2696,-1.3217
1210,0.0,-8.3155,-5.2882,0.5565,3.2696,-1.3913
1215,-0.0383,-8.3155,-5.4415,0.6957,3.2696,-1.2522
1220,-0.1916,-8.2772,-5.4032,0.9739,3.2,-1.2522
1225,-0.0383,-8.3538,-5.4032,1.2522,3.2,-1.3217
1230,-0.0383,-8.2389,-5.4415,1.3913,3.1304,-1.3217
1235,-0.0766,-8.2389,-5.4415,1.6,3.2696,-1.3217
1240,0.0383,-8.3538,-5.3265,1.6,3.4783,-1.3913
1245,-0.0383,-8.3538,-5.2882,1.5304,3.6174,-1.3913
1250,0.0,-8.3155,-5.2882,1.4609,3.7565,-1.3913
1255,0.0,-8.3921,-5.2116,1.3913,3.8261,-1.5304
1260,-0.0383,-8.4305,-5.3265,1.3913,3.8957,-1.5304
1265,-0.0766,-8.3538,-5.2882,1.2522,4.0348,-1.3913
1270,0.0,-8.3538,-5.4032,1.2522,3.9652,-1.3217
1275,-0.115,-8.3155,-5.2499,1.1826,3.8957,-1.3217
1280,-0.0383,-8.2772,-5.3648,1.113,3.7565,-1.3217
1285,0.0,-8.2772,-5.5564,1.113,3.5478,-1.3217
1290,0.0,-8.2389,-5.3265,1.1826,3.2,-1.3913
1295,0.0,-8.2772,-5.3265,1.1826,2.9913,-1.4609
1300,-0.115,-8.2772,-5.4032,1.2522,2.8522,-1.4609
1305,-0.2682,-8.2389,-5.2499,1.2522,2.8522,-1.5304
1310,0.0,-8.4305,-5.2499,1.1826,2.8522,-1.3913
1315,-0.115,-8.3921,-5.3648,1.0435,2.8522,-1.5304
1320,0.0,-8.3921,-5.2499,0.9043,2.9913,-1.3913
1325,0.0,-8.3921,-5.3265,0.7652,3.1304,-1.3913
1330,0.0383,-8.3538,-5.4032,0.6261,3.3391,-1.4609
1335,0.0,-8.3538,-5.3648,0.487,3.4783,-1.5304
1340,0.0383,-8.3538,-5.4032,0.487,3.6174,-1.4609
1345,0.0766,-8.3921,-5.4032,0.6261,3.7565,-1.5304
1350,0.0,-8.3155,-5.2116,0.8348,4.0348,-1.5304
1355,0.0,-8.3155,-5.2499,1.113,4.1043,-1.5304
1360,0.0383,-8.3921,-5.4415,1.3913,4.313,-1.4609
1365,0.0766,-8.3538,-5.4032,1.4609,4.3826,-1.113
1370,0.0,-8.4688,-5.1732,1.8783,4.9391,-0.9043
1375,0.0,-8.3155,-5.3648,1.8087,5.0783,-1.0435
1380,0.0,-8.3921,-5.3265,1.7391,4.8,-0.8348
1385,0.0,-8.2772,-5.3648,1.6696,4.7304,-0.6957
1390,0.0,-8.4305,-5.1732,1.4609,4.7304,-0.5565
1395,-0.0383,-8.3538,-5.0966,1.2522,4.7304,-0.487
1400,0.0,-8.3921,-5.2499,1.1826,4.4522,-0.3478
1405,-0.0766,-8.4305,-5.3648,0.9739,4.1739,-0.2783
1410,-0.0766,-8.4305,-5.3265,0.7652,3.9652,-0.3478
1415,-0.0766,-8.4305,-5.4032,0.7652,3.7565,-0.3478
1420,0.0383,-8.4688,-5.4032,0.6261,3.687,-0.4174
1425,0.0,-8.4688,-5.2882,0.6957,3.5478,-0.2783
1430,0.0,-8.4305,-5.2499,0.9043,3.3391,-0.4174
1435,-0.0766,-8.4688,-5.3648,1.1826,3.3391,-0.4174
1440,-0.0383,-8.4688,-5.4032,1.4609,3.5478,-0.4174
1445,0.0,-8.3921,-5.3265,1.7391,3.4783,-0.6261
1450,-0.0383,-8.4305,-5.3265,2.1565,3.7565,-0.6261
1455,0.0,-8.3921,-5.3265,2.5739,4.0348,-0.6957
1460,0.0,-8.5071,-5.4032,2.8522,4.2435,-0.6261
1465,0.0,-8.5071,-5.2499,3.1304,4.5217,-0.6261
1470,0.0,-8.4305,-5.2499,3.3391,4.7304,-0.6261
1475,0.0,-8.4688,-5.4032,3.5478,4.6609,-0.487
1480,0.0,-8.5454,-5.2499,3.6174,4.7304,-0.4174
1485,-0.0383,-8.3155,-5.3648,3.8957,4.8,-0.2783
1490,-0.0766,-8.3538,-5.2882,4.0348,4.5217,-0.2087
1495,0.0383,-8.3538,-5.4032,4.1043,4.313,-0.1391
1500,0.0,-8.3538,-5.2499,4.1739,4.0348,-0.1391
1505,0.0,-8.2389,-5.2499,4.0348,3.9652,-0.0696
1510,0.0,-8.3155,-5.3648,3.7565,3.9652,-0.0696
1515,0.0,-8.2772,-5.1349,3.4783,3.8261,-0.1391
1520,0.0,-8.2389,-5.2499,2.8522,3.7565,-0.2783
1525,0.0,-8.2772,-5.3265,2.4348,3.7565,-0.6261
1530,0.0383,-8.3538,-5.1732,1.9478,3.8957,-0.6261
1535,-0.115,-8.3155,-5.2116,1.5304,3.9652,-0.8348
1540,-0.1533,-8.4305,-5.2882,1.1826,4.2435,-1.0435
1545,0.0,-8.4688,-5.2882,0.9043,4.3826,-0.9739
1550,0.0,-8.4688,-5.2116,0.9043,4.5913,-0.9739
1555,-0.0766,-8.5071,-5.2882,0.8348,4.5217,-0.8348
1560,-0.2299,-8.4305,-5.2882,1.113,4.4522,-0.7652
1565,-0.0383,-8.4305,-5.1732,1.1826,4.1739,-0.5565
1570,-0.0383,-8.4688,-5.2116,1.6,4.0348,-0.4174
1575,0.0,-8.3921,-5.2116,1.8783,3.687,-0.2783
1580,0.0,-8.3921,-5.2116,1.9478,3.4783,-0.1391
1585,-0.0766,-8.3538,-5.0966,1.8783,3.2,0.0
1590,-0.1533,-8.3538,-5.0583,1.6696,2.9913,0.2783
1595,-0.0766,-8.3538,-5.1349,1.3913,3.0609,0.5565
1600,0.0,-8.4688,-5.1349,1.113,2.9913,0.6957
1605,0.0766,-8.4305,-5.2882,1.113,3.2,0.8348
1610,0.0383,-8.5071,-5.2499,1.2522,3.3391,0.7652
1615,0.0766,-8.4305,-5.0583,1.8087,3.4783,0.7652
1620,0.0,-8.6221,-5.3648,2.2261,3.687,0.6957
1625,0.0,-8.6604,-5.4415,2.5739,3.8261,0.4174
1630,0.0,-8.5071,-5.2882,2.8522,4.1043,0.0696
1635,-0.0766,-8.4305,-5.2499,3.0609,4.1043,-0.2783
1640,0.0,-8.4305,-5.1732,3.2696,4.313,-0.6261
1645,0.0,-8.4305,-5.0583,3.3391,4.6609,-0.7652
1650,-0.0383,-8.3921,-5.1732,3.4783,4.8696,-1.0435
1655,0.0,-8.4688,-5.1349,3.4783,4.6609,-0.9739
1660,-0.0383,-8.4305,-5.1732,3.4783,4.5217,-1.1826
1665,-0.0383,-8.5071,-5.02,3.2,4.5913,-1.0435
1670,0.0,-8.4305,-5.1349,2.9913,4.5217,-0.9739
1675,-0.0766,-8.4305,-5.02,2.9217,4.313,-0.9043
1680,0.0,-8.3921,-5.0583,3.0609,4.1739,-0.8348
1685,-0.115,-8.4688,-5.1732,3.3391,3.8261,-0.7652
1690,-0.0766,-8.5838,-5.0583,3.687,3.5478,-0.6957
1695,-0.115,-8.5454,-5.1349,3.9652,3.2696,-0.6957
1700,-0.0766,-8.5838,-5.1732,4.2435,2.9913,-0.6261
1705,0.0,-8.6987,-5.2499,4.313,2.9913,-0.7652
1710,0.0383,-8.5838,-5.1349,4.4522,2.9913,-0.8348
1715,-0.1533,-8.6987,-5.1732,4.6609,3.1304,-0.9043
1720,0.0,-8.5838,-4.905,4.8,3.2696,-0.9043
1725,-0.0383,-8.6987,-5.02,5.0087,3.3391,-0.8348
1730,-0.0383,-8.6604,-5.0583,5.1478,3.5478,-1.0435
1735,-0.0383,-8.7754,-4.9816,5.2174,3.6174,-0.9739
1740,0.0,-8.6604,-5.2116,5.5652,3.8957,-1.0435
1745,0.0,-8.6987,-5.1732,5.913,3.8957,-0.9739
1750,0.0,-8.6987,-5.1349,6.1217,4.0348,-0.9739
1755,-0.0766,-8.6221,-5.02,6.4,4.0348,-0.9739
1760,0.0,-8.6221,-4.9816,6.6087,4.0348,-0.9043
1765,0.0,-8.6604,-4.905,7.0261,3.8957,-0.7652
1770,-0.0766,-8.6604,-4.9816,7.4435,3.8261,-0.8348
1775,0.0,-8.6221,-5.0966,7.7913,3.687,-0.8348
1780,0.0,-8.4688,-5.0966,7.9304,3.5478,-0.9043
1785,0.0,-8.6604,-4.9816,8.0,3.6174,-0.9739
1790,0.0,-8.6604,-5.1349,7.9304,3.8261,-0.9739
1795,-0.0766,-8.6987,-4.8667,7.7217,3.8957,-0.9043
1800,0.0,-8.6604,-5.0583,7.6522,4.1739,-1.113
1805,-0.0383,-8.737,-5.0583,7.5826,4.4522,-1.2522
1810,-0.115,-8.5838,-4.8667,7.7217,4.5913,-1.3217
1815,0.0,-8.737,-4.8667,8.0,4.6609,-1.3913
1820,0.0383,-8.7754,-4.9433,8.6261,4.5913,-1.4609
1825,0.0,-8.852,-4.9433,9.2522,4.5217,-1.4609
1830,0.0383,-8.852,-4.905,9.9478,4.4522,-1.4609
1835,0.0766,-8.8137,-4.4068,10.7826,4.313,-1.4609
1840,0.0383,-8.852,-4.8667,11.4783,4.1043,-1.4609
1845,-0.0383,-8.7754,-4.9816,11.9652,4.1043,-1.6696
1850,-0.0383,-8.7754,-5.02,12.313,4.1043,-1.7391
1855,0.0383,-8.8137,-4.9816,12.3826,4.313,-1.6
1860,0.0,-8.852,-4.8667,12.4522,4.3826,-1.6696
1865,-0.0766,-8.7754,-4.9816,12.3826,4.5913,-1.7391
1870,0.0,-8.737,-4.8284,12.1043,4.7304,-1.6
1875,-0.0383,-8.737,-4.7134,11.9652,4.8,-1.4609
1880,-0.0383,-8.8903,-4.905,11.9652,4.8696,-1.3913
1885,0.0,-9.0053,-4.7134,12.0348,4.9391,-1.3217
1890,-0.115,-8.8903,-4.6751,12.1043,4.8,-1.3913
1895,-0.0383,-8.9286,-4.8284,12.313,4.7304,-1.2522
1900,0.0,-8.8903,-4.79,12.5217,4.5913,-1.113
1905,-0.0766,-8.8903,-4.6368,13.0087,4.313,-1.1826
1910,-0.0383,-9.1586,-4.6751,13.287,4.1739,-1.113
1915,0.0,-9.0053,-4.7134,13.7739,4.1739,-1.113
1920,0.0766,-9.0819,-4.5984,14.2609,4.313,-1.1826
1925,0.0,-8.967,-4.5984,14.8174,4.5217,-1.1826
1930,0.0,-9.0436,-4.6751,15.4435,4.5913,-1.113
1935,0.115,-9.1202,-4.6751,15.9304,4.8,-1.1826
1940,0.0383,-8.967,-4.7134,16.4174,5.0087,-1.0435
1945,0.0766,-8.967,-4.6368,16.7652,5.0087,-0.9739
1950,0.0383,-9.0053,-4.5984,16.9739,4.9391,-0.8348
1955,0.0383,-9.1202,-4.5984,16.9739,5.0087,-0.6957
1960,0.0,-9.0053,-4.5601,17.0435,5.0087,-0.487
1965,0.0383,-9.0053,-4.6368,16.8348,5.0783,-0.4174
1970,0.0383,-9.1586,-4.4835,16.9043,5.1478,-0.2087
1975,-0.0383,-9.0053,-4.4068,16.9739,5.1478,-0.0696
1980,-0.0383,-9.0436,-4.4068,17.113,5.0783,0.1391
1985,-0.0383,-9.0053,-4.4452,17.1826,4.9391,0.2783
1990,0.0766,-9.1202,-4.3685,17.3913,4.7304,0.3478
1995,0.0,-9.0436,-4.4068,17.6,4.5913,0.487
2000,-0.0383,-8.967,-4.3685,17.9478,4.5913,0.5565
2005,0.0766,-9.0436,-4.3302,18.1565,4.7304,0.6261
2010,0.0,-8.8903,-4.3685,18.4348,5.0783,0.7652
2015,0.0,-9.0053,-4.4068,18.8522,5.4261,0.8348
2020,0.0,-8.7754,-4.2919,19.0609,5.8435,0.9043
2025,0.0,-8.9286,-4.4452,19.2696,5.9826,1.113
2030,-0.0766,-8.8903,-4.1386,19.3391,6.1217,1.3913
2035,0.0,-8.9286,-4.2536,19.4783,6.0522,1.5304
2040,0.0,-9.0436,-4.3685,19.3391,5.8435,1.6
2045,0.0,-9.0053,-4.1386,19.2696,5.4261,1.6696
2050,-0.115,-9.1202,-4.1769,18.9217,5.2174,1.6696
2055,0.0,-9.1586,-4.1386,18.5043,4.9391,1.6
2060,-0.0383,-9.1969,-4.1386,18.2957,4.9391,1.5304
2065,-0.1533,-9.2352,-4.062,17.9478,4.9391,1.2522
2070,-0.1533,-9.5034,-4.062,17.5304,5.2174,1.0435
2075,-0.0766,-9.3502,-4.062,17.1826,5.3565,0.9043
2080,-0.1533,-9.4651,-3.7937,16.6957,5.5652,0.6957
2085,-0.2682,-9.4651,-3.947,16.3478,5.5652,0.5565
2090,-0.3449,-9.4651,-4.062,16.1391,5.4957,0.3478
2095,-0.3832,-9.4651,-3.7937,15.9304,5.2174,0.0
2100,-0.3449,-9.4651,-3.832,15.6522,5.3565,-0.1391
2105,-0.1916,-9.3885,-3.832,15.4435,5.5652,-0.487
2110,-0.2682,-9.4268,-3.832,15.2348,6.0522,-0.487
2115,-0.1916,-9.5034,-3.832,15.1652,6.4,-0.487
2120,-0.2682,-9.4651,-3.8704,15.0261,6.7478,-0.487
2125,-0.115,-9.5034,-3.9087,15.1652,7.0261,-0.4174
2130,0.0,-9.4651,-3.832,15.3739,7.1652,-0.3478
2135,0.0,-9.4651,-3.9087,15.6522,7.4435,-0.2783
2140,0.115,-9.4268,-3.7937,15.8609,7.8609,-0.2783
2145,0.0,-9.5418,-3.7937,16.0696,8.2087,-0.1391
2150,0.0,-9.5034,-3.8704,16.487,8.3478,0.2087
2155,0.0,-9.5418,-3.832,16.6261,8.2087,0.4174
2160,-0.0383,-9.6184,-3.9087,16.8348,7.7913,0.6957
2165,-0.2299,-9.695,-3.947,17.1826,7.0261,0.9043
2170,-0.2299,-9.695,-3.832,17.3217,6.1913,1.1826
2175,-0.2299,-9.81,-3.7554,18.1565,5.4261,1.3217
2180,-0.3449,-9.7717,-3.5638,19.4783,4.4522,1.4609
2185,-0.3832,-9.8866,-3.7554,21.287,3.5478,1.6696
2190,-0.2682,-10.0016,-3.8704,23.4435,2.8522,1.6
2195,-0.2682,-10.0399,-3.6787,25.6,2.2261,1.6
2200,-0.1916,-9.8483,-3.7937,27.5478,1.8783,1.5304
2205,-0.115,-9.6567,-3.6404,29.4261,1.6696,1.5304
2210,-0.1533,-9.81,-3.4871,31.2348,1.5304,1.6
2215,-0.115,-9.7717,-3.6404,33.113,1.3913,1.4609
2220,0.0,-9.695,-3.5255,34.9217,1.3913,1.5304
2225,0.0383,-9.7717,-3.4488,36.313,1.6,1.3913
2230,0.0,-9.7717,-3.3339,37.4957,2.0174,1.3913
2235,0.0,-9.5801,-3.2189,38.7478,2.2261,1.5304
2240,-0.0383,-9.6184,-3.1806,40.0,2.087,1.6
2245,0.0383,-9.6184,-3.1806,40.9043,1.8087,1.7391
2250,0.0,-9.5418,-3.2189,41.7391,1.5304,1.6696
2255,0.0383,-9.5418,-3.1039,42.4348,1.2522,1.6
2260,-0.0766,-9.5418,-3.2572,42.8522,1.113,1.6696
2265,0.0,-9.5418,-3.2189,43.0609,1.3913,1.6696
2270,0.0,-9.4268,-3.1039,43.2696,1.9478,1.4609
2275,-0.0766,-9.5034,-3.1806,43.4783,2.6435,1.2522
2280,0.0,-9.5034,-3.1039,43.7565,3.5478,1.2522
2285,0.0383,-9.5034,-3.2189,44.1739,4.1043,1.2522
2290,-0.0383,-9.4651,-3.2572,44.6609,4.5217,1.0435
2295,0.0,-9.5034,-3.2189,45.2174,4.3826,0.6957
2300,0.0,-9.3502,-3.1039,45.8435,4.3826,0.4174
2305,0.0,-9.5418,-3.1423,46.4,4.6609,0.1391
2310,0.0766,-9.4268,-3.0273,47.0261,4.9391,0.0
2315,0.0,-9.4268,-3.1423,47.1652,5.2174,0.1391
2320,0.0766,-9.4651,-2.989,47.0957,5.3565,0.2783
2325,0.0383,-9.5418,-2.874,46.887,5.0783,0.5565
2330,-0.0766,-9.5034,-2.7974,46.8174,4.5217,0.6261
2335,-0.115,-9.4651,-2.9123,46.6783,3.9652,0.8348
2340,-0.0383,-9.5418,-2.8357,46.6783,3.0609,1.113
2345,-0.1533,-9.4651,-2.9507,46.6783,2.4348,1.2522
2350,-0.1916,-9.5801,-2.874,46.5391,1.6,1.2522
2355,-0.1533,-9.5801,-2.8357,46.5391,0.6957,1.5304
2360,-0.1916,-9.6184,-2.7974,46.887,-0.0696,1.6
2365,-0.3066,-9.5418,-2.7207,47.5826,-0.8348,1.8783
2370,-0.3066,-9.4651,-2.5675,48.2783,-1.6,2.0174
2375,-0.2299,-9.5034,-2.4525,48.7652,-2.5739,2.4348
2380,-0.3832,-9.3118,-2.5291,49.0435,-3.2,2.5739
2385,-0.3449,-9.3502,-2.5291,48.6957,-3.5478,2.4348
2390,-0.4598,-9.3885,-2.4142,48.0696,-3.7565,2.2957
2395,-0.3449,-9.3502,-2.4142,47.0957,-3.7565,2.2261
2400,-0.2299,-9.2735,-2.5291,46.3304,-3.8957,1.8783
2405,-0.4598,-9.2735,-2.6441,45.7043,-4.313,1.8087
2410,-0.4215,-9.2352,-2.5675,45.287,-4.8,1.3217
2415,-0.2682,-9.1969,-2.8357,44.7304,-5.6348,1.1826
2420,-0.3066,-8.967,-2.7591,44.0348,-6.2609,0.9043
2425,-0.1916,-8.8903,-2.7591,43.0609,-6.8174,0.6261
2430,-0.1533,-8.6221,-2.7207,41.8783,-7.3739,0.487
2435,-0.115,-8.5454,-2.6441,40.5565,-7.8609,0.1391
2440,-0.0766,-8.5071,-2.7207,38.8174,-8.1391,-0.2087
2445,0.0,-8.5071,-2.6058,36.8,-8.0696,-0.3478
2450,0.0,-8.5838,-2.4908,34.2957,-7.7217,-0.487
2455,0.0,-8.6604,-2.4142,31.8609,-7.0957,-0.2783
2460,0.1533,-8.9286,-2.3375,29.5652,-6.7478,-0.2087
2465,0.0383,-9.1586,-2.3759,28.0348,-6.9565,-0.0696
2470,0.2299,-9.4651,-2.1076,27.3391,-7.5826,0.2087
2475,0.2299,-9.5034,-2.1076,27.3391,-7.513,0.0
2480,0.1533,-9.5801,-2.1076,28.0348,-6.887,-0.2783
2485,0.1533,-9.695,-2.031,28.8696,-6.4,-0.2783
2490,0.2682,-9.7717,-2.0693,29.7739,-5.913,-0.2087
2495,0.3832,-9.81,-2.0693,30.2609,-5.4957,-0.0696
2500,0.2299,-9.6184,-1.9543,30.3304,-4.5913,-0.1391
2505,0.4215,-9.5034,-1.916,29.9826,-3.3391,-0.2783
2510,0.3449,-9.5801,-1.916,29.1478,-2.0174,-0.4174
2515,0.3832,-9.7334,-1.8394,28.1739,-0.2783,-0.5565
2520,0.1533,-9.6184,-1.6861,27.2,1.1826,-0.9043
2525,0.1916,-9.6184,-1.6861,26.5043,2.2261,-1.1826
2530,0.2299,-9.6184,-1.6478,26.087,2.9913,-1.5304
2535,0.0766,-9.81,-1.6861,25.7391,3.7565,-1.7391
2540,0.0,-9.81,-1.7244,25.4609,4.5217,-1.8783
2545,0.0,-9.695,-1.6478,25.3217,5.4957,-2.1565
2550,0.0,-9.7717,-1.8011,25.4609,6.3304,-2.4348
2555,-0.115,-9.7717,-1.8011,25.9478,7.7913,-2.4348
2560,-0.1916,-9.8866,-1.8011,26.3652,9.4609,-2.6435
2565,-0.1916,-9.81,-1.6861,26.9217,10.9913,-2.5739
2570,-0.3449,-9.7334,-1.8394,27.687,12.3826,-2.5043
2575,-0.4598,-9.7334,-1.7627,28.5913,13.4957,-2.5739
2580,-0.4598,-9.6567,-1.8777,29.5652,14.4,-2.3652
2585,-0.3449,-9.5034,-1.8394,30.2609,14.887,-2.2957
2590,-0.2299,-9.7717,-1.8011,30.7478,15.0957,-2.3652
2595,-0.4598,-9.5801,-1.9543,30.5391,15.2348,-2.5043
2600,-0.5365,-9.6184,-1.6478,30.1913,15.6522,-2.1565
2605,-0.4982,-9.5801,-1.6095,30.1217,15.6522,-1.6696
2610,-0.5365,-9.4651,-1.6478,29.8435,15.0957,-1.1826
2615,-0.4598,-9.5034,-1.6861,29.287,14.4696,-0.487
2620,-0.5365,-9.4651,-1.6095,28.3826,14.2609,0.0696
2625,-0.5365,-9.5034,-1.5328,27.3391,14.1217,0.7652
2630,-0.4982,-9.4651,-1.4945,26.3652,14.0522,1.113
2635,-0.4598,-9.5801,-1.3795,25.2522,13.913,1.2522
2640,-0.4982,-9.5801,-1.3412,24.1391,13.287,1.6
2645,-0.6131,-9.7334,-1.2646,22.9565,12.8696,1.8783
2650,-0.6131,-9.6567,-1.3412,22.1217,12.5217,2.087
2655,-0.6131,-9.8483,-1.1496,21.7043,12.1739,2.087
2660,-0.6898,-9.81,-1.1113,21.7739,11.9652,2.2261
2665,-0.6514,-9.9633,-1.2263,22.1217,11.7565,2.4348
2670,-0.7664,-9.81,-1.1879,22.6087,11.4087,2.713
2675,-0.7664,-9.6567,-1.2646,22.887,10.9913,2.8522
2680,-0.7281,-9.695,-1.1879,23.0957,10.713,3.1304
2685,-0.6898,-9.7334,-1.2646,23.3739,10.2957,3.4783
2690,-0.7281,-9.5418,-1.1113,23.5826,9.8087,3.7565
2695,-0.7281,-9.5801,-1.1879,23.6522,9.3217,3.8261
2700,-0.6514,-9.5801,-1.1496,23.4435,8.5565,3.8957
2705,-0.4215,-9.5034,-1.073,22.7478,7.7913,3.8261
2710,-0.4598,-9.5418,-0.9963,21.6348,7.2348,3.8957
2715,-0.4598,-9.5801,-0.9197,20.5913,6.6783,4.0348
2720,-0.3449,-9.695,-1.0346,19.687,6.1913,4.0348
2725,-0.3832,-9.7717,-0.8047,19.0609,5.8435,4.1739
2730,-0.2299,-9.8483,-0.9197,18.8522,5.4957,4.1043
2735,-0.1533,-9.8866,-0.843,18.9217,5.287,3.8261
2740,-0.2682,-9.9633,-0.8047,19.4783,5.2174,3.7565
2745,-0.1533,-9.7717,-0.8814,20.1043,5.2174,3.687
2750,-0.115,-9.81,-0.8047,20.6609,5.1478,3.687
2755,-0.0383,-9.6184,-0.7664,21.0087,5.0783,3.687
2760,-0.0766,-9.6567,-0.8047,21.1478,5.0783,3.8957
2765,0.0,-9.695,-0.843,20.8696,5.1478,3.8957
2770,-0.115,-9.6567,-0.8814,20.5913,5.4261,3.8261
2775,-0.0383,-9.7334,-0.7281,20.5217,5.7043,3.8261
2780,-0.0766,-9.6567,-0.7281,20.5217,5.5652,3.8957
2785,0.0383,-9.695,-0.843,20.3826,5.3565,3.8261
2790,0.0,-9.6567,-0.7281,20.2435,5.287,3.7565
2795,0.0,-9.695,-0.7281,19.8957,5.3565,3.5478
2800,0.0,-9.6567,-0.8047,19.2,5.6348,3.4783
2805,0.0383,-9.7334,-0.8814,18.5739,6.1217,3.4087
2810,0.0766,-9.7334,-0.843,18.087,6.4696,3.3391
2815,0.1916,-10.0016,-0.843,17.8087,6.887,3.0609
2820,0.0383,-9.5418,-0.7281,17.6,7.0261,2.7826
2825,0.0,-9.6184,-0.7281,17.3913,6.9565,2.6435
2830,0.0383,-9.5801,-0.7281,17.1826,6.887,2.5043
2835,0.0,-9.7334,-0.6898,17.1826,7.0261,2.3652
2840,0.0,-9.7334,-0.7664,17.6,7.2348,2.2957
2845,0.0,-9.7717,-0.6898,18.1565,7.1652,2.087
2850,-0.0383,-9.81,-0.6898,18.5043,7.3043,1.9478
2855,0.0,-9.7717,-0.7281,18.7826,7.5826,1.6
2860,-0.0766,-9.695,-0.6514,18.8522,7.9304,1.1826
2865,0.0383,-9.695,-0.7664,18.9217,8.3478,1.3217
2870,0.0383,-9.7334,-0.6131,18.7826,8.9739,1.5304
2875,0.0,-9.6184,-0.7281,18.5739,9.1826,1.8087
2880,0.0,-9.6567,-0.6131,18.1565,9.2522,1.8783
2885,0.0,-9.5418,-0.6131,17.4609,9.1826,1.7391
2890,-0.1533,-9.7717,-0.6131,16.8348,9.2522,1.6696
2895,-0.2682,-9.6184,-0.6898,16.2783,9.3913,1.5304
2900,-0.1916,-9.6567,-0.5748,16.2087,9.5304,1.4609
2905,-0.1916,-9.81,-0.4215,16.4174,9.2522,1.3913
2910,-0.3066,-9.7717,-0.5365,16.6261,9.113,1.2522
2915,-0.2682,-9.81,-0.3832,16.487,9.0435,1.113
2920,-0.1533,-9.81,-0.3832,16.2783,9.3913,0.9043
2925,-0.1533,-9.925,-0.3832,16.3478,9.6,0.9739
2930,-0.1916,-10.0016,-0.1533,16.9043,10.0174,1.3217
2935,-0.2682,-9.8866,-0.1533,17.6,10.1565,1.6
2940,-0.2299,-9.9633,-0.0766,18.3652,9.8783,1.7391
2945,-0.3066,-10.0016,-0.2299,18.5043,9.5304,1.8087
2950,-0.3066,-9.695,-0.0766,18.4348,8.9739,1.7391
2955,-0.3066,-9.7717,-0.0766,18.0174,8.5565,1.8783
2960,-0.3832,-9.8483,0.0,17.4609,8.2087,1.8087
2965,-0.4598,-9.8483,-0.2299,17.3217,7.7913,1.8087
2970,-0.3832,-9.81,-0.2682,16.9739,7.5826,1.8087
2975,-0.2299,-9.81,-0.1916,16.5565,7.9304,1.6
2980,-0.3449,-9.81,-0.1533,16.4174,8.3478,1.6696
2985,-0.3449,-9.8483,-0.2299,16.7652,8.8348,1.7391
2990,-0.4215,-9.695,-0.3066,17.1826,9.113,1.8087
2995,-0.3066,-9.8483,-0.1916,17.3217,9.0435,1.6696
