timestamp,accX,accY,accZ,gyroX,gyroY,gyroZ
0,1.073,-8.2389,-3.2955,3.3391,23.7913,4.313
5,0.9963,-8.0856,-3.1423,2.2261,25.3913,4.3826
10,0.9963,-7.8557,-2.9123,1.1826,26.3652,4.3826
15,0.8047,-7.8557,-3.1039,0.2087,26.6435,4.313
20,0.6898,-7.7407,-2.874,-1.0435,26.2957,3.8957
25,0.5748,-7.9323,-2.9507,-2.4348,25.3217,3.4087
30,0.5365,-8.1239,-2.8357,-3.8957,23.8609,2.7826
35,0.4215,-8.3538,-2.7974,-4.5217,22.4,2.2261
40,0.3832,-8.5454,-2.5675,-4.5913,20.8696,1.8783
45,0.3832,-9.1202,-2.6824,-4.3826,19.5478,1.3913
50,0.2299,-9.2735,-2.4908,-3.6174,18.1565,0.6957
55,0.0766,-9.3502,-2.6058,-2.2957,16.9043,0.2087
60,0.0383,-9.5034,-2.4908,-0.6261,15.7913,-0.2783
65,0.0766,-9.7717,-2.5675,1.113,14.5391,-0.5565
70,0.0,-9.7334,-2.7207,2.8522,13.1478,-0.6957
75,-0.0383,-9.81,-2.874,4.7304,11.687,-0.9739
80,0.0,-9.7717,-2.874,6.4,10.087,-1.0435
85,-0.115,-10.0016,-2.874,7.7913,8.6261,-1.3217
90,-0.0383,-9.9633,-2.874,9.0435,7.0957,-1.7391
95,-0.2299,-9.9633,-2.9507,10.3652,5.6348,-2.0174
100,-0.3066,-9.925,-3.0656,11.8261,4.1043,-2.5739
105,-0.3449,-9.8866,-2.989,12.9391,2.3652,-3.2
110,-0.1533,-9.925,-2.989,13.7043,1.0435,-3.7565
115,-0.3066,-9.8866,-2.989,14.1913,-0.4174,-4.313
120,0.0,-9.7717,-2.9123,14.9565,-1.3913,-4.3826
125,0.115,-9.6567,-2.9507,15.7913,-1.8087,-4.3826
130,0.3066,-9.5034,-3.0656,16.7652,-1.9478,-4.1739
135,0.7281,-9.4651,-3.2572,17.2522,-1.9478,-3.9652
140,0.8814,-8.967,-3.2955,17.0435,-1.8783,-3.7565
145,1.1496,-8.7754,-3.2572,16.1391,-1.8087,-3.4087
150,1.3795,-8.7754,-3.1806,14.4696,-1.8783,-2.9913
155,1.6478,-8.737,-2.989,12.5913,-1.9478,-2.6435
160,1.916,-8.737,-3.0273,10.6435,-1.8087,-2.3652
165,1.8011,-8.6987,-3.2189,8.9739,-1.3913,-2.4348
170,1.9543,-8.8137,-3.2189,7.7913,-0.9043,-2.5043
175,2.1459,-8.9286,-3.2955,6.8174,-0.5565,-2.3652
180,2.031,-8.737,-3.1806,6.0522,-0.4174,-2.3652
185,1.8777,-8.8903,-3.2572,5.0087,-0.5565,-2.3652
190,1.6861,-8.7754,-3.3339,3.8957,-0.7652,-2.5043
195,1.6478,-9.0053,-3.6404,2.6435,-1.1826,-2.713
200,1.3795,-8.8903,-3.2955,1.4609,-1.4609,-2.8522
205,1.1496,-8.967,-3.2955,0.3478,-1.4609,-2.9217
210,1.0346,-8.967,-3.4488,-0.7652,-1.3913,-3.0609
215,0.8047,-8.9286,-3.2572,-1.6696,-1.3217,-2.9913
220,0.5365,-9.0436,-3.3339,-2.2261,-1.113,-2.9217
225,0.4598,-9.0053,-3.2572,-2.9913,-1.0435,-2.6435
230,0.3832,-9.0436,-3.2572,-3.6174,-1.1826,-2.5043
235,0.3449,-9.0053,-3.1806,-3.8957,-1.2522,-2.2957
240,0.6131,-8.9286,-3.3339,-4.1043,-1.3913,-2.087
245,0.5748,-9.1586,-3.2189,-4.313,-1.113,-1.8783
250,0.6131,-9.1202,-3.1423,-4.313,-0.6957,-1.9478
255,0.8047,-9.1586,-3.2955,-4.1739,-0.2087,-1.8783
260,0.9197,-9.0819,-3.4488,-4.1043,0.4174,-1.9478
265,1.1113,-9.1586,-3.5255,-4.313,0.8348,-2.1565
270,1.2646,-9.1969,-3.5638,-5.0087,1.2522,-2.4348
275,1.2263,-9.1202,-3.5638,-5.7739,1.7391,-2.7826
280,1.3029,-9.2352,-3.7937,-5.9826,2.0174,-2.9913
285,1.3412,-9.3502,-3.7171,-5.8435,2.7826,-3.0609
290,1.4945,-9.3502,-3.832,-5.3565,3.4087,-3.4087
295,1.4562,-9.3118,-3.9087,-4.7304,4.1739,-3.7565
300,1.3795,-9.1969,-3.9853,-3.8957,4.8,-3.2
305,1.2263,-9.3502,-3.6404,-2.7826,5.0783,-2.4348
310,1.1113,-9.2352,-3.7554,-1.9478,5.1478,-1.6696
315,1.1113,-9.2735,-3.832,-2.0174,4.9391,-1.2522
320,0.9963,-9.3118,-3.6021,-2.713,4.5217,-1.4609
325,0.9197,-9.5034,-3.6404,-3.4087,4.0348,-1.4609
330,0.7664,-9.4651,-3.6404,-3.8957,4.0348,-1.3217
335,0.7664,-9.5801,-3.5255,-3.8261,4.5217,-0.9739
340,0.8047,-9.7717,-3.4488,-3.1304,5.6348,-0.6261
345,0.8047,-9.6567,-3.3339,-2.087,6.6087,-0.3478
350,0.7664,-9.6567,-3.3339,-0.6957,7.7217,0.2087
355,0.8047,-9.5801,-3.2572,0.7652,8.3478,0.6261
360,0.843,-9.6184,-3.2955,1.5304,8.487,0.8348
365,0.958,-9.5801,-3.5255,1.7391,8.0696,0.9739
370,1.1496,-9.4268,-3.4871,1.8087,7.6522,1.1826
375,1.1879,-9.1969,-3.6021,1.7391,7.5826,1.6
380,1.2646,-9.0819,-3.5638,1.5304,7.5826,2.0174
385,1.3029,-8.967,-3.6404,1.3913,8.0696,2.2261
390,1.5328,-8.9286,-3.6021,1.113,8.9043,2.6435
395,1.5711,-8.8137,-3.4871,0.7652,10.0174,2.9217
400,1.7244,-8.9286,-3.3339,0.1391,11.3391,3.1304
405,1.7244,-8.852,-3.4105,-0.6261,12.5913,3.3391
410,1.7627,-9.0053,-3.2572,-1.113,13.7043,3.2696
415,1.6478,-8.9286,-3.2572,-1.3913,14.6783,2.8522
420,1.6478,-8.967,-3.2572,-1.4609,15.0261,2.6435
425,1.4179,-8.8903,-3.2572,-1.3913,15.2348,2.4348
430,1.4562,-9.1202,-3.2572,-1.3913,15.2348,2.1565
435,1.3795,-9.1586,-3.2955,-1.2522,15.2348,1.9478
440,1.3029,-8.967,-3.3722,-1.3913,15.3043,1.9478
445,1.3795,-9.1202,-3.5255,-1.9478,15.5826,1.9478
450,1.0346,-9.0053,-3.4105,-2.5043,16.0,2.0174
455,1.073,-9.0819,-3.6404,-2.9913,16.2087,2.087
460,0.9963,-9.1586,-3.5255,-3.4087,16.4174,2.2261
465,1.0346,-9.3118,-3.5255,-3.687,16.5565,2.1565
470,0.8814,-9.3502,-3.4105,-3.6174,16.7652,2.1565
475,0.6898,-9.2352,-3.4488,-3.4783,16.7652,2.1565
480,0.8047,-9.3885,-3.4488,-3.0609,17.0435,2.2957
485,0.7664,-9.3885,-3.4105,-2.7826,17.4609,2.3652
490,0.9197,-9.3118,-3.4105,-2.4348,17.9478,2.4348
495,0.843,-9.4268,-3.3339,-2.2261,18.713,2.6435
500,0.8814,-9.4651,-3.4871,-2.4348,19.6174,2.6435
505,0.958,-9.4268,-3.4488,-2.4348,20.5217,2.5739
510,0.9197,-9.5034,-3.4871,-2.5043,21.287,2.5739
515,0.958,-9.4651,-3.6021,-2.2261,21.913,2.4348
520,1.2263,-9.3885,-3.4488,-2.0174,22.4,2.2957
525,0.9197,-9.4268,-3.4871,-1.8087,22.7478,2.087
530,0.7281,-9.3502,-3.3722,-1.5304,22.7478,2.087
535,0.9963,-9.4268,-3.4105,-1.2522,22.1913,1.9478
540,0.843,-9.3885,-3.2955,-0.9739,21.6348,2.0174
545,0.843,-9.3118,-3.2572,-0.6957,21.0087,2.1565
550,0.8814,-9.3502,-3.1806,-0.3478,20.313,2.2261
555,0.7281,-9.2735,-3.0656,-0.1391,19.3391,2.2261
560,0.7281,-9.2735,-3.2189,0.0,18.2957,2.2261
565,0.7281,-9.3118,-3.2189,0.0,17.4609,2.5043
570,0.6898,-9.3118,-3.1806,-0.1391,16.6261,2.5739
575,0.7664,-9.2735,-3.2572,-0.2783,15.8609,2.6435
580,0.8047,-9.2735,-3.2572,-0.487,15.0261,2.713
585,0.843,-9.2735,-3.2955,-0.6261,14.1913,2.713
590,0.8047,-9.2735,-3.2572,-0.7652,13.4957,2.713
595,0.6898,-9.2352,-3.1806,-0.8348,12.8,2.5739
600,0.8047,-9.1202,-3.2189,-0.9043,12.313,2.4348
605,0.8047,-9.3118,-3.2189,-0.8348,11.8261,2.2957
610,0.8047,-9.2735,-3.3339,-0.8348,11.5478,2.1565
615,0.8047,-9.0436,-3.3722,-0.9043,11.4087,1.9478
620,0.958,-9.2735,-3.2189,-1.113,11.3391,1.8783
625,0.8814,-8.967,-3.3722,-1.4609,11.0609,1.7391
630,0.7664,-9.1586,-3.2189,-1.8783,10.8522,1.6696
635,0.8814,-9.1202,-3.2189,-2.2261,10.5739,1.4609
640,0.8814,-9.2352,-3.2189,-2.6435,10.4348,1.3913
645,0.958,-9.3118,-3.3722,-2.8522,10.2261,1.2522
650,0.9197,-9.3118,-3.4488,-3.2696,10.4348,1.0435
655,0.958,-9.3885,-3.2955,-3.5478,10.5739,0.7652
660,0.9963,-9.3502,-3.2955,-3.8957,10.8522,0.487
665,1.1113,-9.2352,-3.2189,-4.1739,11.1304,0.2783
670,1.1113,-9.3885,-3.2189,-4.1739,11.4783,-0.0696
675,1.0346,-9.3118,-3.1806,-3.9652,11.5478,-0.3478
680,1.073,-9.3885,-2.989,-3.4783,11.5478,-0.6261
685,0.9963,-9.4268,-3.1039,-2.9217,11.3391,-0.7652
690,0.958,-9.5034,-3.0656,-2.3652,11.0609,-0.9043
695,0.8814,-9.4651,-3.1806,-1.8087,10.713,-1.0435
700,0.843,-9.5418,-3.1806,-1.3913,10.5043,-1.0435
705,0.8814,-9.5418,-3.1806,-1.2522,10.0174,-1.0435
710,0.7664,-9.5034,-3.2189,-1.2522,9.6696,-1.0435
715,0.7281,-9.5034,-3.1423,-1.2522,9.1826,-0.9043
720,0.7664,-9.5418,-3.2572,-1.3217,8.7652,-0.9739
725,0.843,-9.4268,-3.2572,-1.2522,8.4174,-0.8348
730,0.843,-9.3885,-3.2189,-1.0435,8.1391,-0.7652
735,0.9197,-9.4651,-3.2572,-0.7652,7.7217,-0.7652
740,0.8814,-9.4651,-3.2189,-0.4174,7.3043,-0.7652
745,0.8814,-9.3118,-3.2189,-0.1391,6.9565,-0.5565
750,0.9197,-9.3502,-3.1039,0.0696,6.2609,-0.4174
755,0.9963,-9.3885,-3.2189,0.2783,5.7739,-0.4174
760,0.8814,-9.3118,-3.1423,0.6957,5.287,-0.3478
765,0.9197,-9.3118,-3.1039,0.9739,5.0087,-0.3478
770,0.958,-9.3118,-3.2189,1.113,4.8696,-0.3478
775,0.9197,-9.3502,-3.1039,1.113,4.8,-0.4174
780,0.9963,-9.2735,-3.1423,0.9043,4.7304,-0.5565
785,1.073,-9.1969,-3.1423,0.6957,4.5913,-0.487
790,0.9963,-9.2735,-3.2189,0.3478,4.6609,-0.4174
795,0.9963,-9.3502,-3.2189,-0.0696,4.6609,-0.3478
800,1.073,-9.2735,-3.1806,-0.3478,4.6609,-0.3478
805,0.958,-9.3118,-3.1039,-0.6261,4.6609,-0.2783
810,1.073,-9.4268,-3.2189,-0.7652,4.5913,-0.2087
815,0.9963,-9.3502,-3.1806,-0.7652,4.4522,-0.2087
820,1.0346,-9.3502,-3.1806,-0.7652,4.313,-0.1391
825,1.0346,-9.3502,-3.2189,-0.7652,4.313,0.0
830,1.0346,-9.4651,-3.1806,-0.6261,4.2435,-0.1391
835,1.073,-9.3885,-3.2189,-0.4174,4.313,-0.2783
840,0.958,-9.3118,-3.1423,-0.0696,4.3826,-0.2783
845,0.958,-9.4651,-3.1039,-0.0696,4.3826,-0.3478
850,0.8814,-9.2735,-3.2572,-0.1391,4.5217,-0.4174
855,0.958,-9.3118,-3.2955,-0.2783,4.5913,-0.4174
860,0.9963,-9.2735,-3.3722,-0.4174,4.6609,-0.3478
865,0.9197,-9.1969,-3.3339,-0.6957,5.0087,-0.487
870,0.958,-9.2352,-3.3722,-0.7652,5.1478,-0.487
875,0.8814,-9.2352,-3.3339,-1.0435,5.287,-0.487
880,1.073,-9.2352,-3.3339,-1.113,5.4261,-0.487
885,1.0346,-9.2735,-3.2955,-1.113,5.6348,-0.5565
890,0.9963,-9.1969,-3.3722,-1.0435,5.7043,-0.6261
895,1.0346,-9.2352,-3.2955,-1.113,5.7043,-0.5565
900,0.9963,-9.1969,-3.3722,-1.2522,5.5652,-0.6261
905,1.073,-9.2735,-3.2955,-1.5304,5.7043,-0.6261
910,1.073,-9.3502,-3.1806,-1.8783,5.7043,-0.6957
915,1.0346,-9.2352,-3.2955,-2.2261,5.7739,-0.5565
920,1.1113,-9.3885,-3.2572,-2.3652,5.7043,-0.6261
925,1.0346,-9.2352,-3.2189,-2.5043,5.7043,-0.6261
930,1.1113,-9.4268,-3.1806,-2.3652,5.5652,-0.6261
935,0.9963,-9.3885,-3.1423,-2.1565,5.3565,-0.6261
940,0.958,-9.2735,-3.2572,-1.8783,5.0783,-0.5565
945,0.843,-9.3118,-3.2189,-1.3913,4.8696,-0.6261
950,0.9197,-9.3502,-3.1806,-1.113,4.6609,-0.487
955,1.1879,-9.1586,-3.2189,-0.9043,4.4522,-0.5565
960,0.958,-9.3118,-3.2572,-0.7652,4.5217,-0.3478
965,0.8814,-9.3502,-3.1039,-0.9043,4.313,-0.4174
970,0.9963,-9.3118,-3.1039,-1.1826,4.313,-0.487
975,0.9963,-9.1969,-3.1806,-1.4609,4.2435,-0.5565
980,0.958,-9.2735,-3.1423,-1.7391,4.1739,-0.6957
985,0.9963,-9.2352,-3.2189,-1.9478,4.2435,-0.6957
990,0.9197,-9.2735,-3.2189,-2.087,4.1043,-0.7652
995,1.0346,-9.2352,-3.2189,-2.2261,4.1043,-0.7652
1000,0.9963,-9.2735,-3.2572,-2.4348,3.9652,-0.7652
1005,0.9197,-9.2352,-3.2189,-2.713,3.8261,-0.9043
1010,0.9963,-9.2735,-3.1806,-2.8522,3.6174,-0.9043
1015,0.958,-9.3502,-3.1806,-3.0609,3.4783,-0.9739
1020,0.9197,-9.2735,-3.1806,-3.1304,3.3391,-1.1826
1025,1.0346,-9.3885,-3.1423,-3.3391,3.2,-1.113
1030,0.958,-9.2735,-3.1806,-3.2,2.9217,-1.1826
1035,0.958,-9.3885,-3.1806,-3.1304,2.5739,-1.0435
1040,1.0346,-9.3502,-3.2955,-2.9913,2.2261,-0.9739
1045,0.843,-9.3118,-3.1423,-2.9217,2.1565,-1.0435
1050,0.9197,-9.3118,-3.2955,-2.9217,2.0174,-0.9739
1055,0.9963,-9.2735,-3.2572,-2.9913,2.1565,-1.0435
1060,1.073,-9.2735,-3.3339,-3.1304,2.4348,-1.113
1065,1.073,-9.2352,-3.3722,-3.2,2.5739,-1.2522
1070,1.1879,-9.3118,-3.2955,-3.4087,2.9217,-1.3913
1075,1.1113,-9.3118,-3.2955,-3.7565,3.0609,-1.3217
1080,1.073,-9.2352,-3.2189,-4.1739,3.2,-1.3217
1085,1.073,-9.2352,-3.2955,-4.5217,3.2696,-1.3913
1090,1.073,-9.1586,-3.1806,-4.8,3.4087,-1.3913
1095,1.1496,-9.3118,-3.1806,-4.9391,3.5478,-1.3217
1100,1.1496,-9.3502,-3.1806,-4.8696,3.5478,-1.1826
1105,1.0346,-9.3885,-3.1423,-4.5217,3.5478,-1.113
1110,1.0346,-9.2735,-3.1423,-4.2435,3.4783,-0.9739
1115,0.958,-9.5418,-3.0273,-3.687,3.4087,-0.9043
1120,0.9963,-9.4268,-3.1039,-3.1304,3.3391,-0.7652
1125,1.0346,-9.4268,-3.1423,-2.6435,3.2696,-0.7652
1130,1.073,-9.4268,-3.1806,-2.2261,3.4087,-0.6261
1135,1.0346,-9.3502,-3.1039,-1.7391,3.3391,-0.4174
1140,1.073,-9.3502,-3.2189,-1.3217,3.2696,-0.2087
1145,0.9963,-9.3502,-3.1039,-1.0435,3.1304,0.0
1150,0.9963,-9.3118,-3.2572,-0.9043,3.0609,0.0696
1155,1.0346,-9.1586,-3.1806,-0.8348,2.9217,-0.0696
1160,1.1113,-9.3118,-3.2572,-1.2522,2.7826,-0.1391
1165,1.1113,-9.4651,-3.2189,-1.7391,2.6435,-0.1391
1170,1.0346,-9.3118,-3.1806,-2.3652,2.5739,-0.2783
1175,1.1879,-9.4268,-3.2955,-2.9913,2.5739,-0.487
1180,1.0346,-9.2352,-3.3722,-3.5478,2.5043,-0.4174
1185,1.0346,-9.2352,-3.3339,-3.9652,2.6435,-0.487
1190,1.1113,-9.2352,-3.3722,-4.0348,2.713,-0.5565
1195,1.2263,-9.3118,-3.2189,-3.9652,2.9217,-0.5565
1200,1.1113,-9.3118,-3.2955,-3.7565,3.1304,-0.5565
1205,1.1113,-9.4268,-3.4488,-3.5478,3.4783,-0.487
1210,1.073,-9.3885,-3.3722,-3.2696,3.8261,-0.4174
1215,1.073,-9.3118,-3.4105,-2.9913,4.2435,-0.3478
1220,1.2263,-9.3502,-3.3339,-2.6435,4.6609,-0.2087
1225,1.0346,-9.4268,-3.4488,-2.2261,5.0783,-0.0696
1230,1.2263,-9.4651,-3.3339,-1.8783,5.4261,0.2087
1235,1.1113,-9.4268,-3.4488,-1.3217,5.8435,0.2087
1240,1.1496,-9.4268,-3.3722,-0.6957,6.1217,0.3478
1245,1.1113,-9.4651,-3.5255,-0.1391,6.4696,0.3478
1250,1.073,-9.4268,-3.4488,0.3478,6.8174,0.3478
1255,1.073,-9.3885,-3.3722,0.6261,6.9565,0.3478
1260,1.073,-9.3502,-3.3339,0.9043,7.1652,0.4174
1265,1.1496,-9.3885,-3.4105,1.0435,7.3739,0.3478
1270,1.1496,-9.2735,-3.4871,1.113,7.3739,0.4174
1275,1.1113,-9.2735,-3.3722,1.3913,7.3043,0.487
1280,1.1879,-9.3885,-3.2572,1.6696,7.1652,0.487
1285,1.073,-9.2352,-3.2189,2.087,7.3043,0.487
1290,1.0346,-9.2352,-3.2189,2.0174,7.1652,0.5565
1295,0.9963,-9.2352,-3.2955,2.0174,7.0957,0.8348
1300,0.9963,-9.3118,-3.2189,1.8087,6.8174,0.9043
1305,0.958,-9.2735,-3.2572,1.3913,6.5391,1.0435
1310,0.8814,-9.4268,-3.1806,1.113,6.2609,1.0435
1315,0.9197,-9.3885,-3.3339,0.7652,6.0522,1.1826
1320,0.9963,-9.3502,-3.2572,0.5565,5.913,1.0435
1325,0.958,-9.3502,-3.2955,0.4174,5.8435,1.0435
1330,1.1113,-9.3118,-3.3339,0.4174,6.0522,0.9739
1335,1.073,-9.3118,-3.2572,0.4174,6.4,0.9043
1340,1.073,-9.3118,-3.4105,0.6957,6.6783,0.6957
1345,0.9963,-9.2735,-3.3339,0.9043,6.8174,0.6261
1350,0.9963,-9.3502,-3.4105,1.0435,7.0261,0.4174
1355,0.9963,-9.2735,-3.3722,1.2522,7.3043,0.3478
1360,0.9963,-9.3502,-3.2189,1.3913,7.513,0.3478
1365,1.1496,-9.3885,-3.4105,1.5304,7.7913,0.4174
1370,0.958,-9.2352,-3.2572,1.6696,7.9304,0.487
1375,1.1496,-9.2352,-3.3339,1.6,8.0,0.4174
1380,0.958,-9.3118,-3.2189,1.5304,8.1391,0.487
1385,1.073,-9.3118,-3.2189,1.4609,8.2783,0.5565
1390,1.073,-9.2735,-3.2572,1.4609,8.3478,0.6957
1395,1.1879,-9.3118,-3.2955,1.4609,8.4174,0.7652
1400,1.1496,-9.3502,-3.2955,1.2522,8.6261,0.6957
1405,1.1496,-9.3118,-3.3722,1.0435,8.6957,0.6957
1410,1.1879,-9.3118,-3.1806,0.9043,8.6261,0.6957
1415,1.073,-9.2735,-3.2189,0.9043,8.8348,0.6957
1420,1.073,-9.1586,-3.1806,0.8348,8.9043,0.9739
1425,1.0346,-9.2352,-3.2189,0.7652,8.8348,0.9043
1430,1.1113,-9.3885,-3.1806,0.6957,8.6261,0.8348
1435,1.0346,-9.3118,-3.2189,0.6957,8.2087,0.9043
1440,0.9963,-9.1969,-3.1806,0.6261,7.7217,0.9043
1445,0.8814,-9.1969,-3.1039,0.487,7.4435,0.9739
1450,1.0346,-9.1969,-3.1806,0.2087,7.2348,1.113
1455,0.958,-9.0436,-3.2189,0.0696,7.0261,1.2522
1460,1.073,-9.0053,-3.1806,-0.3478,6.9565,1.4609
1465,1.1113,-9.0053,-3.1039,-0.6957,7.0957,1.6696
1470,1.1496,-8.967,-3.1423,-1.113,7.4435,1.9478
1475,1.1496,-8.967,-3.2189,-1.7391,8.0696,2.2261
1480,1.3795,-8.8903,-3.2955,-2.713,8.9739,2.713
1485,1.3795,-8.967,-3.4488,-3.8957,10.3652,2.9913
1490,1.4562,-8.9286,-3.3339,-5.2174,12.0348,3.2696
1495,1.6095,-8.9286,-3.5255,-6.4,13.913,3.4783
1500,1.7627,-9.0436,-3.6404,-7.3739,16.3478,3.687
1505,1.8011,-9.1202,-3.7171,-8.4174,19.1304,3.9652
1510,1.9543,-9.2735,-3.8704,-8.9739,22.3304,4.1043
1515,1.916,-9.3118,-3.947,-9.6696,25.7391,4.2435
1520,2.031,-9.1586,-4.0236,-10.4348,29.3565,4.313
1525,2.2226,-9.3118,-4.1386,-11.1304,32.8348,4.4522
1530,2.1076,-9.3885,-4.0236,-11.6174,35.7565,4.7304
1535,2.1076,-9.3118,-4.062,-12.0348,38.2609,5.0087
1540,1.9927,-9.2735,-4.0236,-12.313,40.2783,5.4957
1545,1.8777,-9.1586,-4.1003,-12.5217,41.6,6.1217
1550,1.7244,-9.1202,-3.832,-12.5913,42.4348,6.887
1555,1.6095,-9.0436,-3.7171,-12.7304,42.4348,7.6522
1560,1.3412,-8.8903,-3.7554,-12.8696,41.3913,8.3478
1565,1.1113,-8.967,-3.6021,-12.8,39.6522,8.9739
1570,0.958,-9.0819,-3.6021,-12.8696,37.4261,9.6
1575,0.8047,-9.1202,-3.4871,-12.8696,34.9217,9.8783
1580,0.4598,-9.0819,-3.4871,-12.6609,32.5565,10.087
1585,0.4598,-9.3118,-3.3722,-12.1739,30.5391,10.2261
1590,0.115,-9.1202,-3.6021,-11.5478,29.2174,10.2957
1595,0.2299,-9.2352,-3.3339,-10.7826,27.8957,10.2957
1600,0.1916,-9.3118,-3.1806,-10.2261,27.2,10.1565
1605,0.0766,-9.3885,-3.1806,-9.8087,26.5739,9.7391
1610,0.3832,-9.5034,-3.1806,-9.5304,26.2957,9.3217
1615,0.3449,-9.4651,-3.1039,-9.2522,26.0174,8.7652
1620,0.3066,-9.6184,-3.1039,-9.113,25.7391,8.0696
1625,0.4982,-9.6567,-3.0273,-8.6957,25.6696,7.3043
1630,0.5748,-9.81,-3.1806,-8.2783,25.6,6.4
1635,0.4598,-9.81,-3.2572,-7.7913,25.6696,5.7043
1640,0.4598,-9.8866,-3.2189,-7.0957,25.3913,4.9391
1645,0.5365,-9.81,-3.3339,-6.1913,24.9739,4.313
1650,0.5748,-9.9633,-3.3339,-5.0783,24.3478,3.5478
1655,0.6898,-10.0016,-3.3722,-3.8261,23.2348,2.9913
1660,0.5365,-9.8866,-3.3722,-2.2957,21.7739,2.5043
1665,0.4215,-9.6567,-3.4105,-0.6261,20.1043,2.1565
1670,0.3066,-9.5034,-3.4871,1.113,18.2957,1.7391
1675,0.3832,-9.4651,-3.3339,2.6435,16.2783,1.3913
1680,0.4215,-9.3885,-3.3722,3.7565,13.913,0.8348
1685,0.3066,-9.1969,-3.3339,4.6609,11.2696,0.2783
1690,0.4215,-9.3118,-3.2955,5.4957,8.6957,-0.1391
1695,0.2682,-9.1969,-3.3339,6.1217,6.2609,-0.6261
1700,0.3066,-9.1202,-3.4488,6.4696,3.8957,-1.1826
1705,0.2682,-9.0819,-3.5638,6.6087,1.5304,-1.6
1710,0.3832,-9.1969,-3.4105,6.5391,-0.6261,-2.2261
1715,0.4598,-9.0819,-3.4488,6.4,-2.5739,-2.4348
1720,0.2682,-9.1969,-3.4871,6.1913,-4.0348,-2.6435
1725,0.5365,-9.2735,-3.4488,6.1913,-5.2174,-2.8522
1730,0.6131,-9.3502,-3.5255,6.1913,-5.9826,-2.9913
1735,0.5748,-9.3502,-3.4105,6.1913,-6.6087,-3.2
1740,0.6131,-9.4651,-3.1423,5.9826,-7.2348,-3.4087
1745,0.6898,-9.5034,-3.1423,5.913,-7.7913,-3.5478
1750,0.8047,-9.5418,-3.1039,6.1217,-8.6261,-3.6174
1755,0.8047,-9.5801,-2.989,6.6087,-9.6,-3.8957
1760,0.958,-9.6184,-2.8357,6.8174,-10.713,-4.1739
1765,0.958,-9.6184,-3.0656,6.8174,-11.7565,-4.313
1770,1.0346,-9.5801,-2.989,6.3304,-13.0783,-4.3826
1775,0.958,-9.4651,-2.9123,5.8435,-14.6783,-4.2435
1780,0.9963,-9.4651,-3.0273,5.6348,-16.5565,-3.9652
1785,0.7281,-9.3118,-2.9123,5.4261,-18.5739,-3.4783
1790,0.6898,-9.0819,-3.0273,5.2174,-20.8,-2.9217
1795,0.7281,-8.967,-2.9123,4.4522,-22.887,-2.6435
1800,0.6514,-8.737,-2.7974,3.0609,-25.1826,-2.2957
1805,0.5748,-8.4305,-2.6441,0.9043,-27.5478,-2.2957
1810,0.5365,-8.2389,-2.874,-2.1565,-29.9826,-2.087
1815,0.5365,-7.9706,-3.0656,-5.9826,-32.5565,-2.6435
1820,0.4982,-7.779,-3.1423,-10.6435,-35.2,-3.4783
1825,0.2682,-7.2809,-3.0656,-15.7217,-37.9826,-4.2435
1830,0.5365,-7.2809,-3.5255,-21.0783,-40.8348,-4.5913
1835,0.4598,-6.9743,-3.7937,-26.9217,-42.9217,-4.9391
1840,0.6131,-6.7444,-4.1386,-32.9739,-44.8,-5.2174
1845,0.7664,-6.5145,-4.4068,-39.1652,-46.8174,-5.7739
1850,0.7664,-6.2079,-4.8284,-45.287,-48.6957,-6.3304
1855,0.8814,-6.0163,-5.0966,-51.3391,-50.2957,-7.1652
1860,1.0346,-5.9013,-5.2116,-57.7391,-51.5478,-8.6261
1865,1.1113,-5.8247,-5.5181,-64.0,-52.3826,-10.713
1870,1.3412,-5.8247,-5.5181,-70.2609,-52.3826,-13.2174
1875,1.6861,-5.7864,-5.5948,-75.687,-51.4783,-15.7217
1880,1.916,-5.8247,-5.6714,-79.7913,-48.9739,-18.4348
1885,2.2609,-5.9396,-5.4798,-82.0174,-44.5217,-20.1739
1890,2.3375,-5.863,-5.2499,-81.8087,-38.2609,-21.5652
1895,2.4142,-5.8247,-4.905,-78.887,-31.0957,-22.6087
1900,2.4142,-5.7097,-4.4452,-74.0174,-24.0,-22.8174
1905,2.3759,-5.3265,-4.0236,-66.5739,-18.0174,-22.7478
1910,1.9543,-4.7517,-3.5638,-57.3217,-12.9391,-21.9826
1915,1.9543,-4.3302,-2.9507,-46.887,-9.0435,-20.313
1920,1.2646,-3.7554,-2.1076,-36.1043,-6.4,-19.0609
1925,0.4982,-3.1039,-1.3029,-25.0435,-4.5913,-16.6957
1930,-0.2682,-2.4908,-0.5365,-14.7478,-3.6174,-13.0087
1935,-1.2263,-2.2992,0.115,-5.8435,-3.5478,-8.7652
1940,-1.916,-1.7627,1.4179,2.7826,-5.2174,-5.4261
1945,-2.4908,-1.4179,1.9927,11.8261,-8.6957,-2.713
1950,-2.7974,-1.3795,2.6058,19.9652,-13.7043,-0.2783
1955,-2.7207,-1.5711,2.5675,26.3652,-19.5478,0.7652
1960,-2.4142,-1.6861,2.1459,31.0957,-25.3913,-0.4174
1965,-1.8394,-1.9927,1.8011,34.7826,-30.4,-2.8522
1970,-0.9963,-2.1843,1.5328,38.0522,-34.2957,-6.0522
1975,-0.5365,-2.4525,1.2263,41.3913,-35.8957,-10.087
1980,0.0383,-2.874,0.6131,44.1043,-35.2,-13.7739
1985,0.5365,-3.1806,0.0383,44.3826,-32.487,-16.5565
1990,1.4562,-3.947,-1.2646,42.5739,-27.5478,-19.2696
1995,1.9927,-4.5984,-3.1806,37.1478,-20.8,-22.0522
2000,2.2992,-5.3265,-5.7097,27.1304,-13.0783,-25.7391
2005,2.5675,-6.3995,-8.737,12.1043,-6.1217,-31.0261
2010,2.9123,-7.3958,-12.0709,-6.2609,-2.2957,-38.7478
2015,3.2955,-8.3155,-15.2515,-25.8087,-1.9478,-47.0957
2020,3.832,-10.0782,-16.8993,-43.3391,-6.4,-53.4957
2025,4.8667,-13.2588,-15.4048,-50.8522,-7.1652,-54.6087
2030,5.5181,-17.6657,-10.0399,-35.3391,8.6957,-48.4174
2035,5.9396,-23.1455,-2.6058,7.9304,39.0957,-34.9217
2040,5.9396,-27.8589,2.874,63.3043,58.4348,-23.1652
2045,4.9433,-30.7712,3.2955,102.4696,45.8435,-21.4957
2050,3.6787,-32.1124,1.6095,111.3739,10.8522,-24.7652
2055,3.2189,-33.9901,-2.3375,94.4,-20.313,-18.5739
2060,4.0236,-37.324,-6.0929,61.8435,-37.3565,4.2435
2065,6.2845,-43.4169,-7.9706,24.6957,-48.7652,39.0261
2070,8.5838,-49.6248,-8.2005,-0.0696,-59.1304,69.6348
2075,8.8903,-51.924,-10.1549,0.0696,-63.0261,82.8522
2080,7.2809,-51.9623,-12.1092,20.1739,-50.2261,79.4435
2085,5.1732,-50.8511,-12.2625,43.8957,-21.1478,68.4522
2090,1.9543,-45.7161,-9.3885,65.7391,8.9739,52.1043
2095,-0.0383,-40.9644,-7.5874,89.113,27.687,38.7478
2100,-1.1879,-37.1707,-7.2042,103.0261,33.1826,31.7913
2105,-1.9927,-34.4116,-6.0546,98.0174,30.1913,25.8087
2110,-2.1076,-32.4573,-5.4415,80.487,22.0522,19.2696
2115,-1.1113,-31.461,-5.5948,66.7826,11.8957,11.8957
2120,-0.115,-30.3497,-5.4798,62.3304,6.6087,-0.7652
2125,-1.6095,-29.0468,-6.4378,61.5652,4.1043,-16.6957
2130,-2.1076,-28.2038,-5.978,52.9391,-1.9478,-23.5826
2135,-1.3412,-26.9392,-5.978,48.0,-9.3913,-21.287
2140,-0.4215,-25.2531,-5.9013,50.713,-14.0522,-18.2261
2145,0.6514,-22.5707,-5.5564,58.1565,-12.8696,-17.2522
2150,1.5711,-19.0452,-5.7097,67.4783,-7.0261,-17.9478
2155,1.8777,-14.4851,-6.4761,70.6783,-3.8957,-19.687
2160,2.6824,-10.0399,-6.7444,64.4174,-4.3826,-20.313
2165,3.2955,-5.863,-6.6677,52.5913,-0.2087,-23.5826
2170,3.5255,-1.6095,-5.2116,38.2609,6.4696,-26.5043
2175,3.4871,2.7207,-4.0236,26.2261,8.6261,-26.5739
2180,2.7207,5.9013,-3.2189,13.5652,2.1565,-26.8522
2185,2.2992,7.5108,-3.0273,-2.5739,-14.6087,-24.9739
2190,2.2609,8.1622,-2.3759,-17.6,-34.4348,-22.3304
2195,1.7627,8.2772,-2.874,-22.3304,-47.1652,-21.913
2200,0.6898,8.2005,-4.2536,-17.6696,-48.5565,-20.5217
2205,-0.4982,8.5071,-5.5181,-10.2261,-41.6696,-15.8609
2210,-1.0346,8.7754,-7.0126,-2.4348,-31.9304,-11.5478
2215,-2.3375,9.4268,-8.5071,4.5217,-23.6522,-11.6174
2220,-3.4488,9.81,-9.3502,11.8261,-18.6435,-13.7739
2225,-4.1769,9.8866,-9.925,13.0783,-18.9913,-13.5652
2230,-4.2919,8.3155,-10.0016,5.5652,-22.0522,-8.3478
2235,-3.2189,4.7134,-9.0436,-9.113,-24.3478,2.4348
2240,-1.3795,-0.3066,-6.8977,-24.8348,-24.7652,14.6783
2245,-0.1533,-4.5601,-4.5601,-32.487,-23.5826,18.6435
2250,0.6898,-6.5911,-2.0693,-23.7217,-19.1304,12.6609
2255,1.2646,-7.0893,0.1533,-0.4174,-10.9217,2.6435
2260,1.3412,-6.2079,1.5711,29.0783,0.0,-6.5391
2265,1.7627,-4.8284,3.1423,56.487,10.9913,-13.0087
2270,2.2226,-3.4105,3.8704,75.4087,19.4087,-17.0435
2275,2.7591,-1.916,4.1769,83.4087,24.8348,-19.2696
2280,3.2955,-0.3832,4.1769,81.8783,28.8696,-19.6174
2285,3.3339,0.9197,3.7171,72.8348,31.7913,-19.687
2290,2.989,2.4525,2.5291,57.8087,33.8783,-18.8522
2295,2.4525,3.4488,1.6861,38.2609,35.2,-17.113
2300,2.1843,4.062,0.7281,16.6261,35.9652,-14.0522
2305,1.3795,4.6751,0.3066,-3.3391,34.713,-10.8522
2310,0.4982,4.5218,-0.0766,-18.7826,30.1913,-7.3739
2315,-0.1916,3.5255,-0.4215,-28.7304,22.5391,-5.287
2320,-0.5748,2.874,-0.6131,-33.3913,14.1913,-5.3565
2325,-0.5748,2.3375,-1.1496,-33.1826,8.8348,-6.4
2330,-0.6131,2.2609,-1.4945,-30.0522,8.1391,-6.7478
2335,-0.6131,1.6478,-1.8777,-26.7826,11.4783,-5.9826
2340,-0.3832,1.1113,-2.4142,-26.2957,16.4174,-4.313
2345,-0.4215,0.8047,-2.8357,-27.6174,21.6348,-2.2261
2350,-0.4982,0.4598,-3.3339,-29.8435,26.5043,0.3478
2355,-0.5748,0.4982,-3.4871,-30.6783,29.913,3.4087
2360,-0.4982,0.8047,-3.6787,-29.3565,33.0435,6.1217
2365,-0.5748,0.9197,-3.5638,-26.5043,35.6174,8.4174
2370,-0.4598,1.3412,-3.3722,-24.1391,37.7043,9.9478
2375,-0.4598,1.4562,-3.1806,-23.0261,39.5826,10.9217
2380,-0.3449,1.2263,-2.5675,-23.9304,40.6957,10.5043
2385,-0.3832,1.073,-2.031,-26.1565,41.113,9.0435
2390,-0.3066,0.9197,-1.4562,-28.4522,40.9043,6.9565
2395,-0.2299,0.958,-0.958,-29.2174,40.6957,4.7304
2400,-0.1916,0.8814,-0.6514,-28.4522,40.8348,2.6435
2405,-0.115,0.7664,-0.7281,-26.4348,41.3913,0.7652
2410,-0.2299,1.0346,-0.4982,-23.9304,42.0174,-1.2522
2415,-0.115,0.9963,-0.6131,-21.4261,42.3652,-2.9217
2420,-0.4598,1.1879,-0.7664,-19.5478,41.8087,-4.2435
2425,-0.5748,1.2646,-0.843,-18.5739,40.0696,-5.6348
2430,-0.7281,1.1879,-0.958,-18.5043,37.3565,-6.8174
2435,-0.8814,1.1879,-1.2263,-19.2696,33.8087,-7.6522
2440,-0.8814,0.843,-1.3412,-20.8,29.9826,-8.1391
2445,-1.2263,0.7664,-1.3412,-22.7478,26.5043,-8.3478
2450,-1.3029,0.4598,-1.3412,-24.6261,23.513,-8.1391
2455,-1.3029,0.0766,-1.3795,-26.1565,21.3565,-7.7913
2460,-1.2263,-0.0766,-1.0346,-27.5478,20.1739,-7.0261
2465,-1.1496,-0.5365,-0.958,-28.313,19.9652,-6.3304
2470,-0.958,-0.7664,-0.7664,-28.3826,20.5913,-5.4957
2475,-0.843,-0.8047,-0.7281,-27.9652,21.3565,-4.5217
2480,-0.4982,-0.958,-0.7281,-27.6174,22.5391,-3.4087
2485,-0.2682,-0.958,-0.6131,-27.7565,24.3478,-2.087
2490,-0.0383,-1.1496,-0.2682,-27.8957,26.2957,-0.9739
2495,0.0,-1.0346,-0.2682,-27.5478,27.5478,-0.1391
2500,0.0383,-0.9197,-0.115,-27.4087,28.5913,0.5565
2505,0.0383,-0.5748,-0.1533,-27.1304,28.7304,0.6957
2510,0.0,-0.1916,-0.2299,-26.9217,28.2435,0.6261
2515,0.0,0.2299,-0.3066,-27.1304,27.0609,1.0435
2520,-0.4215,0.115,-0.8047,-27.4087,24.8348,1.6
2525,-0.3832,-0.1533,-1.3795,-27.4087,21.8435,2.2957
2530,0.0,-0.8047,-1.916,-25.8783,19.8957,4.1043
2535,0.6898,-1.4179,-2.2609,-22.3304,21.1478,6.5391
2540,0.6898,-1.9927,-3.3339,-16.0,25.8783,8.7652
2545,0.7281,-3.1039,-4.4068,-8.6957,32.7652,10.713
2550,0.4215,-3.7171,-5.3648,-5.287,40.487,12.313
2555,0.4982,-4.4452,-7.2042,-9.3217,48.1391,13.7043
2560,0.5748,-5.02,-8.0856,-20.313,54.3304,15.3739
2565,0.6898,-7.0126,-8.7754,-33.3913,57.9478,18.0174
2570,1.0346,-9.2735,-8.3921,-42.4348,57.4609,21.1478
2575,1.4562,-12.2625,-8.5454,-43.7565,49.2522,23.0957
2580,1.9927,-15.6347,-9.925,-40.0696,30.8174,23.3043
2585,2.2609,-18.0489,-10.1166,-35.4783,9.9478,24.3478
2590,2.8357,-22.2258,-9.5418,-31.1652,-3.1304,29.4261
2595,3.5638,-26.9392,-9.2735,-23.0261,-4.1739,38.1217
2600,4.2919,-31.7292,-9.7334,-12.7304,1.1826,49.5304
2605,4.9816,-38.0138,-10.6914,-4.1043,7.4435,64.9043
2610,5.5564,-43.302,-11.2662,6.5391,14.4696,85.287
2615,6.7444,-48.7051,-13.3355,27.1304,21.5652,105.9478
2620,6.7827,-50.8511,-15.3664,49.1826,25.8783,112.4174
2625,7.3958,-54.5681,-15.2132,56.1391,29.9826,99.4087
2630,7.3192,-56.2159,-9.0053,33.3913,33.7391,71.0261
2635,3.8704,-46.0227,-1.2646,28.0348,33.4609,25.4609
2640,1.0346,-37.8221,1.0346,78.6783,24.6957,-1.3913
2645,1.4179,-32.4956,1.3412,125.7739,16.8348,0.0
2650,1.4945,-26.4027,0.3449,138.087,14.1913,4.0348
2655,2.4142,-21.8043,-2.2609,120.9043,18.5739,1.113
2660,1.9927,-18.777,-2.6824,91.3391,31.0957,-4.0348
2665,2.2992,-17.2825,-1.8777,72.9739,41.6,-3.687
2670,1.6861,-15.7496,-0.1916,59.4087,43.4087,-1.3913
2675,1.3029,-14.6384,0.3449,58.2261,41.8087,0.6957
2680,0.6514,-13.7953,-0.6514,62.4696,43.2,3.8957
2685,0.0383,-13.4504,-1.8777,60.4522,44.5913,8.6261
2690,-0.7281,-12.7223,-2.5291,47.4435,40.8348,13.6348
2695,-1.0346,-11.6494,-2.6058,32.5565,32.7652,15.0957
2700,-0.9197,-10.0782,-3.3339,21.5652,26.087,13.7739
2705,-0.958,-8.2389,-3.7554,12.5913,21.5652,11.8957
2710,-0.6514,-6.8977,-3.7937,4.1739,18.3652,9.6696
2715,-0.3066,-5.2116,-3.4871,-5.0087,15.0261,6.3304
2720,-0.0383,-4.1003,-3.9087,-15.3043,10.0174,2.9913
2725,0.2682,-3.4105,-4.3685,-26.9217,3.4783,0.9043
2730,0.843,-2.4525,-5.0966,-40.6957,-4.5217,0.7652
2735,1.3795,-3.3722,-5.5181,-56.1391,-12.4522,0.9739
2740,1.7627,-3.7937,-5.7864,-73.113,-19.4783,-1.0435
2745,1.4562,-4.3302,-5.5564,-90.2261,-25.9478,-5.7043
2750,1.1879,-4.8667,-4.905,-103.0261,-31.0261,-10.8522
2755,0.7281,-5.748,-3.7554,-107.3391,-33.8087,-13.9826
2760,0.1533,-6.0929,-3.1039,-102.6087,-34.7826,-14.1217
2765,-0.115,-6.7061,-2.031,-90.0174,-34.8522,-11.4087
2770,-0.3832,-7.7024,-2.0693,-72.9043,-35.0609,-8.2783
2775,-0.0383,-7.5108,-1.3795,-53.9826,-36.2435,-7.7217
2780,0.958,-7.5874,-1.3795,-35.8261,-37.913,-10.5739
2785,1.1879,-7.3575,-1.7244,-19.2,-39.3739,-15.7913
2790,1.5328,-7.5108,-1.9543,-5.2174,-40.4174,-21.6348
2795,0.843,-6.8977,-2.7974,5.0087,-40.5565,-24.8348
2800,0.1533,-7.1659,-3.0656,11.4087,-39.3739,-26.3652
2805,0.115,-7.1659,-3.1806,13.8435,-37.2174,-26.3652
2810,-0.8814,-7.1276,-3.4871,13.1478,-34.6435,-24.6957
2815,-1.1879,-7.1659,-3.4871,10.6435,-32.2087,-21.4957
2820,-1.5711,-7.0893,-3.2572,8.0696,-29.5652,-18.087
2825,-1.8011,-6.936,-3.2189,6.7478,-26.5739,-14.8174
2830,-1.8394,-6.7444,-2.9507,5.9826,-24.2783,-11.2
2835,-1.5711,-6.7444,-3.6404,4.8,-23.7217,-7.3739
2840,-1.9927,-6.3995,-3.2572,3.4087,-24.0,-5.0087
2845,-0.7664,-6.2462,-3.947,2.087,-25.4609,-3.7565
2850,-0.5748,-6.3995,-3.6021,0.7652,-27.2,-2.8522
2855,0.0383,-6.936,-3.7937,-0.5565,-28.8,-2.2957
2860,0.4982,-7.0126,-4.1003,-2.2261,-29.913,-1.4609
2865,1.1879,-7.0893,-3.4871,-3.6174,-30.4,-1.2522
2870,1.7627,-7.2809,-3.7171,-4.5217,-30.7478,-1.6
2875,2.3759,-7.4725,-3.5638,-5.287,-31.3043,-2.4348
2880,2.874,-7.0509,-3.4488,-6.4696,-32.2087,-3.3391
2885,3.5638,-7.7024,-3.2189,-8.3478,-33.2522,-4.8696
2890,4.1003,-7.8557,-3.1039,-10.4348,-34.4348,-6.887
2895,4.5984,-8.2005,-3.1806,-12.8696,-35.2,-8.9739
2900,5.02,-8.5454,-3.2955,-15.4435,-35.2696,-10.5043
2905,5.1732,-9.1586,-3.4488,-18.1565,-33.8783,-11.7565
2910,5.4032,-9.5418,-3.2955,-19.687,-30.6087,-12.5217
2915,5.2499,-10.2698,-3.3339,-18.7826,-25.6,-12.8
2920,5.3648,-10.883,-3.4105,-15.5826,-19.4783,-12.5217
2925,5.02,-11.2279,-3.2189,-11.2,-12.8696,-11.8261
2930,4.7517,-11.726,-3.0656,-7.0261,-6.3304,-10.8522
2935,3.9087,-11.7643,-3.6021,-4.0348,-0.4174,-9.0435
2940,2.6824,-11.9176,-3.3722,-2.4348,4.8696,-6.7478
2945,2.4525,-11.726,-3.4488,-2.087,8.9739,-4.1043
2950,1.5328,-11.5344,-3.0656,-2.3652,12.1739,-1.3913
2955,0.8047,-10.9213,-3.1039,-2.5043,13.8435,1.113
2960,0.5748,-10.9213,-2.9123,-1.8783,14.5391,2.9217
2965,0.3449,-10.6147,-2.7974,-0.8348,14.4696,4.3826
2970,0.0383,-10.1932,-2.9123,0.7652,13.7043,5.4261
2975,-0.0383,-9.5801,-2.989,2.5739,12.5217,6.3304
2980,0.1916,-9.0436,-3.2955,4.1739,11.2696,6.7478
2985,-0.1916,-8.8903,-3.1423,5.0783,10.2261,6.4
2990,0.0,-8.6221,-3.5638,5.7043,9.3217,6.0522
2995,0.2682,-8.5838,-3.0273,5.913,8.7652,5.6348
