timestamp,accX,accY,accZ,gyroX,gyroY,gyroZ
0,2.2226,-9.6567,-0.3832,3.3391,3.687,2.713
5,5.3648,-10.2315,0.2682,2.5043,5.0087,1.4609
10,0.3832,-9.2352,-0.3832,0.0,2.2261,-8.3478
15,0.9197,-9.5418,-1.2646,-0.3478,3.687,-1.1826
20,1.8777,-9.5801,-1.1496,0.2087,3.5478,3.9652
25,2.1843,-9.7717,-1.073,0.8348,2.9217,5.7043
30,2.1843,-9.7334,-0.9197,1.2522,3.3391,6.1217
35,2.1076,-9.5418,-0.958,1.8783,3.687,6.1913
40,2.1459,-9.5418,-1.1496,2.4348,3.4783,6.2609
45,2.2226,-9.5418,-1.4562,2.713,2.7826,6.1913
50,2.4142,-9.5418,-1.4179,2.5739,1.8783,5.9826
55,1.6478,-9.2735,-2.7207,2.087,0.9043,1.1826
60,0.3449,-9.1202,-2.2609,0.0,-1.2522,-2.5043
65,2.1459,-9.4268,-1.6478,-1.2522,-0.6261,2.5043
70,2.2609,-9.5034,-1.3795,-2.2261,-0.1391,3.4087
75,2.3759,-9.3118,-1.8011,-2.9217,1.7391,2.7826
80,2.0693,-9.1586,-1.9543,-3.5478,2.8522,1.6696
85,1.9927,-9.3502,-2.0693,-4.0348,3.5478,0.7652
90,2.0693,-9.4651,-2.1459,-4.5217,4.1043,0.0
95,1.8394,-9.2352,-1.916,-4.8,4.5217,-0.6957
100,1.8777,-9.2735,-1.8394,-5.0087,5.0087,-1.3217
105,1.5711,-9.3502,-2.031,-5.0087,5.287,-1.8783
110,1.4945,-9.2735,-1.8777,-5.2174,5.3565,-2.4348
115,1.4945,-9.3502,-2.031,-5.5652,5.4957,-2.8522
120,1.4562,-9.4268,-1.916,-6.1913,5.5652,-3.2696
125,1.5711,-9.5034,-2.031,-6.7478,5.3565,-3.687
130,1.1879,-9.1202,-2.6824,-7.6522,4.3826,-9.0435
135,-0.6898,-9.0819,-2.4142,-9.9478,2.9913,-10.5739
140,1.1879,-9.4651,-2.031,-10.713,3.1304,-5.1478
145,1.3412,-9.4651,-1.8394,-10.9913,2.713,-4.0348
150,1.2646,-9.5801,-1.7627,-11.2696,3.4087,-3.8261
155,1.2646,-9.6567,-1.9543,-11.7565,3.9652,-3.9652
160,1.1113,-9.5801,-2.0693,-12.1043,4.1739,-4.0348
165,1.3029,-9.8483,-2.1843,-12.5217,4.2435,-4.1739
170,1.2646,-9.8483,-1.9543,-13.2174,4.4522,-4.3826
175,1.4179,-9.8866,-1.916,-13.5652,4.6609,-4.5217
180,1.3795,-9.7717,-1.7627,-13.913,5.0087,-4.7304
185,1.3795,-10.1166,-1.9927,-13.9826,5.3565,-5.0087
190,1.3412,-10.1549,-2.031,-13.9826,5.7043,-5.3565
195,1.3412,-10.1549,-1.916,-13.9826,6.1217,-5.4261
200,1.3412,-10.3082,-1.7627,-13.7739,6.5391,-5.7043
205,1.3412,-10.4231,-1.7244,-13.287,6.887,-5.8435
210,1.4562,-10.5381,-1.7627,-12.9391,7.2348,-5.9826
215,1.4562,-10.4998,-1.6478,-12.1739,7.513,-5.9826
220,1.4945,-10.4998,-1.5711,-11.4087,7.7217,-6.0522
225,1.4562,-10.6147,-1.7244,-10.3652,8.0,-5.9826
230,1.4179,-10.5381,-1.6095,-9.4609,8.2087,-5.8435
235,1.4945,-10.4998,-1.7244,-8.487,8.3478,-5.6348
240,1.4179,-10.3848,-1.5328,-7.513,8.4174,-5.4261
245,1.3412,-10.3465,-1.3795,-6.6087,8.2783,-5.1478
250,1.4562,-10.4231,-1.4945,-5.7043,7.9304,-4.9391
255,1.3412,-10.3082,-1.2646,-4.7304,7.4435,-4.6609
260,1.4179,-10.4231,-1.3029,-4.0348,6.887,-4.4522
265,1.4562,-10.4231,-1.3029,-3.4783,6.1217,-4.3826
270,1.5328,-10.2315,-1.1879,-2.9217,5.3565,-4.313
275,1.5328,-10.3465,-1.2646,-2.4348,4.5913,-4.1739
280,1.5711,-10.2315,-1.2263,-1.9478,3.687,-4.1739
285,1.3412,-10.2698,-1.4179,-1.1826,2.9913,-4.1043
290,1.6478,-10.3465,-1.1879,-0.487,2.3652,-4.1043
295,1.7627,-10.3848,-1.1496,0.1391,1.6696,-3.9652
300,1.8011,-10.3082,-1.2646,0.7652,1.1826,-3.8957
305,1.8777,-10.2698,-1.1113,1.2522,0.7652,-3.687
310,1.916,-10.1549,-1.1113,1.7391,0.4174,-3.687
315,1.8394,-10.0782,-1.1879,2.1565,0.3478,-3.5478
320,1.7627,-10.0782,-1.2646,2.5043,0.2087,-3.4783
325,1.7627,-10.0016,-1.2646,2.713,0.4174,-3.3391
330,1.8394,-9.925,-1.2263,2.6435,0.4174,-3.2
335,1.8394,-10.0399,-1.1496,2.3652,0.487,-3.2
340,2.1459,-9.8866,-1.4562,1.8783,0.7652,-3.1304
345,1.916,-9.9633,-1.1879,1.5304,0.9739,-3.1304
350,1.8777,-9.9633,-1.2646,1.113,1.1826,-2.8522
355,1.8011,-9.8866,-1.3795,0.6261,1.3217,-2.7826
360,1.8394,-9.925,-1.4179,0.1391,1.4609,-2.5739
365,1.8777,-10.0016,-1.4179,-0.0696,1.6696,-2.5043
370,1.8011,-9.8866,-1.4562,-0.487,1.6,-2.2957
375,1.7244,-9.8866,-1.4562,-0.7652,1.6696,-2.087
380,1.6478,-9.925,-1.5328,-0.9739,1.6696,-1.8783
385,1.8394,-10.0016,-1.5328,-1.0435,1.8087,-1.8087
390,1.7244,-9.9633,-1.5328,-1.2522,1.9478,-1.4609
395,1.6478,-9.8483,-1.9543,-1.3913,2.0174,-1.3217
400,1.7244,-9.9633,-1.6095,-1.4609,2.087,-1.2522
405,1.7244,-9.925,-1.6095,-1.5304,2.087,-1.1826
410,1.7244,-10.0016,-1.6478,-1.7391,2.0174,-1.1826
415,1.8394,-10.0016,-1.4945,-1.9478,2.0174,-1.113
420,1.8011,-9.925,-1.7244,-2.2261,2.087,-0.9739
425,1.8394,-10.0399,-1.7244,-2.3652,1.9478,-0.9043
430,1.8394,-9.925,-1.6861,-2.5739,1.8783,-0.8348
435,1.6478,-9.8483,-1.7627,-2.6435,1.6,-0.8348
440,1.8394,-9.9633,-1.6095,-2.8522,1.4609,-0.9043
445,1.7244,-10.0399,-1.7627,-2.6435,1.1826,-0.9739
450,1.8394,-10.0399,-1.6095,-2.3652,1.0435,-0.9043
455,1.6861,-10.0016,-1.6861,-2.2261,0.9739,-0.9739
460,1.6478,-10.0016,-1.6861,-1.8783,0.9739,-0.8348
465,1.7244,-9.925,-1.7627,-1.4609,0.8348,-0.8348
470,1.6478,-10.0782,-1.7244,-1.0435,0.6261,-0.7652
475,1.6861,-10.0399,-1.6861,-0.6261,0.5565,-0.6957
480,1.4562,-10.0399,-1.7244,-0.4174,0.5565,-0.5565
485,1.5711,-9.8866,-1.5328,-0.3478,0.487,-0.487
490,1.5711,-10.0399,-1.6095,-0.2087,0.487,-0.487
495,1.5711,-9.925,-1.6861,-0.1391,0.487,-0.487
500,1.6095,-9.9633,-1.5328,-0.0696,0.6261,-0.4174
505,1.5328,-9.8866,-1.5328,0.2087,0.5565,-0.4174
510,1.5711,-10.0016,-1.7627,0.1391,0.487,-0.4174
515,1.5711,-10.0016,-1.6861,0.3478,0.4174,-0.4174
520,1.4945,-9.8866,-1.6095,0.4174,0.3478,-0.487
525,1.5711,-10.0016,-1.5328,0.6957,0.2783,-0.4174
530,1.5328,-9.8483,-1.5328,0.9043,0.0696,-0.5565
535,1.6861,-9.925,-1.4562,1.2522,-0.0696,-0.5565
540,1.7244,-10.0399,-1.4179,1.3913,-0.1391,-0.6261
545,1.6861,-9.925,-1.4179,1.6696,-0.3478,-0.7652
550,1.7627,-10.0399,-1.3412,1.8087,-0.4174,-0.9739
555,1.7244,-9.8483,-1.1879,2.087,-0.5565,-1.3217
560,1.6478,-9.9633,-1.4179,2.2957,-0.6957,-1.5304
565,1.6861,-9.925,-1.3412,2.2957,-0.7652,-1.7391
570,1.6095,-10.1166,-1.4945,2.4348,-0.9043,-2.087
575,1.6861,-9.925,-1.3795,2.5043,-1.0435,-2.3652
580,1.6478,-10.0016,-1.3029,2.713,-1.1826,-2.6435
585,1.7627,-9.8866,-1.1879,2.8522,-1.1826,-2.9217
590,1.8011,-9.9633,-1.3029,3.2,-1.1826,-3.0609
595,1.8394,-10.1166,-1.2263,3.4087,-1.113,-3.1304
600,1.8394,-10.1549,-1.1113,3.6174,-1.0435,-3.2
605,1.8394,-9.8866,-1.073,3.7565,-0.9043,-3.2
610,1.8011,-9.8483,-1.2263,4.0348,-0.7652,-3.3391
615,1.8011,-10.1166,-1.1496,4.2435,-0.4174,-3.2
620,1.8394,-10.0016,-1.2646,4.3826,-0.0696,-3.3391
625,1.8394,-10.1166,-1.1496,4.3826,0.3478,-3.2696
630,1.7627,-9.8483,-1.2646,4.3826,0.7652,-3.1304
635,1.8011,-9.9633,-1.1879,4.3826,1.1826,-3.1304
640,1.8011,-9.925,-1.1496,4.313,1.5304,-3.1304
645,1.8011,-9.8866,-1.2263,4.1739,1.8783,-3.0609
650,1.9543,-10.0016,-1.1496,3.8957,2.087,-2.9913
655,1.8777,-9.925,-1.1496,3.7565,2.2957,-2.9913
660,1.8777,-9.9633,-1.3795,3.3391,2.4348,-2.9217
665,1.8394,-10.0016,-1.1113,2.9913,2.5739,-2.9217
670,1.9543,-9.9633,-1.2263,2.4348,2.6435,-2.7826
675,1.9927,-10.0782,-1.1879,2.1565,2.7826,-2.713
680,1.9927,-10.0016,-1.2263,2.0174,2.8522,-2.5043
685,1.8394,-9.9633,-1.3029,1.8783,2.9217,-2.2957
690,1.8011,-9.8483,-1.1879,1.8783,2.9217,-2.2261
695,1.8394,-9.8866,-1.3029,1.7391,2.7826,-2.0174
700,1.7244,-9.8866,-1.4179,1.7391,2.713,-1.9478
705,1.8011,-9.925,-1.3795,1.7391,2.4348,-1.7391
710,1.8011,-9.8866,-1.2646,1.7391,2.2261,-1.6
715,1.8777,-10.0016,-1.1496,1.6696,1.8087,-1.4609
720,1.7627,-10.0016,-1.1496,1.4609,1.4609,-1.3913
725,1.7244,-9.925,-1.2263,1.1826,1.2522,-1.3217
730,1.8011,-9.8483,-1.2263,1.1826,0.9739,-1.3217
735,1.7244,-9.8483,-1.3029,0.9043,0.6261,-1.2522
740,1.8394,-9.925,-1.3029,0.6957,0.487,-1.2522
745,1.8394,-9.8866,-1.3412,0.4174,0.2087,-1.1826
750,1.8011,-9.8483,-1.2646,0.3478,0.1391,-1.2522
755,1.7244,-10.0016,-1.3795,0.2783,0.1391,-1.1826
760,1.8011,-9.8483,-1.4562,0.2087,0.0,-1.0435
765,1.7244,-9.9633,-1.2646,0.3478,0.1391,-1.113
770,1.8394,-10.1549,-1.3029,0.3478,0.1391,-0.9043
775,1.916,-10.0016,-1.3029,0.6261,0.0696,-0.9043
780,1.6861,-9.925,-1.1496,0.6957,0.2087,-0.7652
785,1.6861,-10.0016,-1.3029,0.9043,0.2087,-0.7652
790,1.7627,-10.0399,-1.3412,0.8348,0.2783,-0.6957
795,1.7627,-9.9633,-1.1496,1.113,0.1391,-0.6957
800,1.7244,-10.0782,-1.1496,1.2522,0.2087,-0.6957
805,1.7244,-10.1932,-1.1496,1.6,0.2783,-0.6261
810,1.8011,-10.0016,-1.0346,1.8783,0.2783,-0.6261
815,1.7627,-10.0016,-1.073,2.2261,0.2783,-0.6261
820,1.6478,-10.0782,-1.2263,2.5739,0.3478,-0.6957
825,1.7627,-10.1166,-1.2263,2.5739,0.4174,-0.6261
830,1.7627,-10.0782,-0.9963,2.5739,0.487,-0.6261
835,1.7627,-9.8866,-1.073,2.8522,0.5565,-0.6261
840,1.8394,-10.0016,-0.9963,2.713,0.6261,-0.6957
845,1.8011,-10.1166,-0.843,2.3652,0.6261,-0.7652
850,1.7627,-9.8483,-0.9197,2.2957,0.6261,-0.8348
855,1.8011,-10.0016,-0.958,2.0174,0.6261,-0.8348
860,1.7627,-9.9633,-0.958,1.7391,0.6261,-0.9739
865,2.031,-10.0399,-0.7281,1.3217,0.6261,-1.0435
870,1.6478,-9.925,-1.073,0.9739,0.7652,-0.9739
875,1.7627,-9.8866,-0.7664,0.6957,0.9739,-1.113
880,1.8394,-9.8866,-1.1113,0.487,1.3217,-1.1826
885,1.8777,-9.9633,-1.073,0.1391,1.4609,-1.3913
890,1.916,-9.9633,-0.9197,-0.0696,1.7391,-1.3913
895,1.8777,-10.0399,-0.9197,-0.1391,1.8783,-1.3913
900,1.8777,-9.8866,-0.8814,-0.2783,2.1565,-1.5304
905,1.916,-9.9633,-0.9197,-0.2783,2.3652,-1.5304
910,1.8394,-10.0782,-0.958,-0.5565,2.5739,-1.5304
915,1.916,-9.925,-0.8814,-0.6957,2.8522,-1.6
920,1.9543,-10.0782,-1.2646,-0.9043,3.1304,-1.6
925,1.8777,-9.925,-0.9963,-1.1826,3.2696,-1.6696
930,1.916,-9.9633,-0.8047,-1.3913,3.4087,-1.5304
935,1.8394,-9.925,-1.1113,-1.6696,3.4087,-1.6696
940,1.916,-9.925,-1.0346,-1.9478,3.4087,-1.6
945,1.916,-9.925,-1.2646,-2.2261,3.4087,-1.5304
950,1.9543,-10.0016,-0.9963,-2.4348,3.3391,-1.4609
955,1.8777,-10.0016,-1.1113,-2.6435,3.4087,-1.3217
960,1.916,-9.925,-1.1879,-2.7826,3.4087,-1.2522
965,1.8394,-9.9633,-1.1879,-2.9913,3.2696,-1.113
970,1.8777,-9.8866,-1.0346,-3.2,3.0609,-0.9739
975,1.8011,-9.9633,-1.073,-3.2,2.9217,-0.8348
980,1.7627,-10.0016,-1.1879,-3.1304,2.713,-0.5565
985,1.6861,-10.0016,-1.1879,-2.9913,2.5043,-0.3478
990,1.7627,-10.0016,-1.4179,-2.9217,2.1565,-0.0696
995,1.6861,-10.0016,-1.0346,-2.713,1.8087,0.1391
1000,1.7627,-10.0399,-1.0346,-2.4348,1.5304,0.2087
1005,1.7627,-10.0782,-1.0346,-2.2957,1.3913,0.3478
1010,1.6861,-9.925,-1.0346,-2.2261,1.1826,0.4174
1015,1.8011,-9.9633,-1.1113,-2.1565,1.113,0.4174
1020,1.7244,-9.925,-1.0346,-2.0174,0.9043,0.3478
1025,1.8777,-9.925,-1.1113,-1.8087,0.8348,0.2783
1030,1.7244,-10.0399,-1.1113,-1.6696,0.7652,0.2783
1035,1.8777,-9.9633,-1.1879,-1.2522,0.7652,0.2087
1040,1.6861,-10.0016,-1.1113,-1.113,0.6261,0.1391
1045,1.8011,-10.1166,-1.073,-0.9043,0.5565,0.2087
1050,1.8011,-10.0399,-1.0346,-0.6957,0.5565,0.1391
1055,1.8011,-10.1166,-1.1879,-0.6957,0.5565,0.2087
1060,1.8777,-9.9633,-1.1879,-0.6261,0.6957,0.0696
1065,1.8394,-10.0782,-0.9963,-0.5565,0.9043,0.0696
1070,1.916,-10.0399,-1.073,-0.7652,1.113,0.1391
1075,1.8011,-9.8866,-1.2263,-0.8348,1.3913,0.1391
1080,1.8777,-9.925,-0.9197,-0.9043,1.6,0.0696
1085,1.7244,-10.0016,-1.1879,-0.9043,1.9478,0.0
1090,1.8777,-10.0016,-0.9963,-1.0435,2.1565,0.0
1095,1.6478,-9.81,-1.073,-1.1826,2.2957,0.0696
1100,1.916,-9.8866,-1.0346,-1.5304,2.4348,0.0696
1105,1.7244,-9.8866,-0.958,-1.7391,2.5043,0.0696
1110,1.8394,-9.9633,-1.073,-1.9478,2.5043,0.1391
1115,1.7627,-9.8483,-1.0346,-2.2261,2.4348,0.2087
1120,1.6095,-9.8866,-1.1113,-2.3652,2.2261,0.2087
1125,1.6861,-9.9633,-0.9197,-2.3652,1.8783,0.2087
1130,1.7244,-9.9633,-0.7664,-2.2957,1.7391,0.2087
1135,1.8394,-10.1166,-1.1879,-2.2957,1.5304,0.3478
1140,1.916,-9.8483,-1.1113,-2.0174,1.5304,0.2087
1145,1.8011,-10.0016,-1.1496,-1.8087,1.5304,0.1391
1150,1.7627,-9.9633,-0.9197,-1.6,1.3913,0.1391
1155,1.8777,-9.9633,-1.0346,-1.5304,1.3913,0.1391
1160,1.6478,-9.9633,-0.9197,-1.3913,1.3217,0.0
1165,1.7244,-10.0016,-0.9963,-1.3913,1.1826,-0.2087
1170,1.7627,-9.8866,-0.958,-1.3217,1.1826,-0.2783
1175,1.8011,-10.0399,-0.958,-1.1826,1.113,-0.487
1180,1.8394,-9.8866,-1.073,-0.9739,1.0435,-0.487
1185,1.6861,-10.0016,-1.0346,-0.6957,0.9739,-0.5565
1190,1.7627,-9.9633,-0.9963,-0.4174,0.8348,-0.5565
1195,1.8394,-9.8866,-0.843,0.0,0.6957,-0.5565
1200,1.8011,-9.925,-0.9963,0.2783,0.5565,-0.6957
1205,1.916,-9.925,-1.073,0.487,0.5565,-0.6261
1210,1.6861,-9.9633,-0.7664,0.487,0.487,-0.6261
1215,1.8011,-9.8866,-1.0346,0.487,0.4174,-0.6261
1220,1.8011,-9.925,-1.1496,0.4174,0.5565,-0.5565
1225,1.8011,-9.8866,-1.073,0.3478,0.6261,-0.5565
1230,1.7627,-9.8483,-1.1496,0.0696,0.9043,-0.5565
1235,1.8011,-9.9633,-1.073,-0.2783,1.113,-0.5565
1240,1.8011,-10.0016,-0.9963,-0.5565,1.1826,-0.487
1245,1.6095,-9.81,-1.0346,-0.9739,1.3913,-0.487
1250,1.7244,-9.8483,-1.1113,-1.3217,1.4609,-0.4174
1255,1.6861,-9.925,-1.1496,-1.6,1.7391,-0.4174
1260,1.7244,-9.9633,-1.0346,-1.8783,1.8783,-0.3478
1265,1.7627,-10.0399,-1.0346,-2.0174,2.0174,-0.4174
1270,1.8011,-10.0016,-0.958,-2.0174,2.087,-0.2783
1275,1.8394,-10.0016,-0.958,-1.7391,2.2261,-0.2783
1280,1.8394,-9.8866,-1.073,-1.6,2.2261,-0.2783
1285,1.9543,-9.8866,-1.0346,-1.6,2.1565,-0.2087
1290,1.9543,-9.9633,-0.958,-1.5304,2.087,-0.2087
1295,1.8011,-9.9633,-1.1113,-1.3217,2.0174,-0.3478
1300,1.9543,-10.0016,-0.9197,-1.3217,1.8783,-0.4174
1305,1.8777,-9.8866,-0.9197,-1.3913,1.7391,-0.3478
1310,1.9927,-9.8866,-0.7281,-1.3217,1.5304,-0.3478
1315,2.1843,-9.8483,-1.1113,-1.2522,1.3217,-0.3478
1320,1.8394,-9.925,-1.0346,-1.2522,1.113,-0.2783
1325,1.8777,-9.8483,-1.1113,-1.1826,1.0435,-0.2783
1330,1.8011,-9.925,-1.0346,-1.1826,0.9739,-0.2783
1335,1.8777,-9.8483,-1.0346,-0.9739,0.8348,-0.2087
1340,1.916,-9.925,-0.9963,-1.1826,0.6957,-0.0696
1345,1.8777,-9.8866,-0.958,-1.2522,0.6957,0.0
1350,1.8011,-10.0782,-0.9197,-1.3913,0.6957,0.0696
1355,1.6861,-9.925,-0.8047,-1.4609,0.7652,0.2087
1360,1.8011,-9.8483,-0.9197,-1.5304,0.6261,0.1391
1365,1.7627,-9.8483,-0.8047,-1.5304,0.6957,0.2087
1370,2.031,-10.0016,-0.6514,-1.6696,0.8348,0.1391
1375,1.7627,-10.0016,-0.958,-1.7391,0.8348,0.2087
1380,1.8777,-10.0016,-1.0346,-1.6696,0.7652,0.2087
1385,1.7244,-9.9633,-1.073,-1.7391,0.6957,0.1391
1390,1.7627,-10.0016,-1.1113,-1.7391,0.6957,0.0696
1395,1.6861,-9.8866,-0.9963,-1.6696,0.7652,0.0696
1400,1.8011,-9.8483,-0.9197,-1.6,0.7652,0.1391
1405,1.8011,-9.8866,-0.9197,-1.5304,0.6957,0.1391
1410,1.8011,-9.8483,-0.958,-1.5304,0.6957,0.1391
1415,1.6861,-9.8866,-1.0346,-1.6,0.6261,0.0
1420,1.5711,-9.8866,-0.8814,-1.6,0.6261,-0.0696
1425,1.6478,-9.8483,-0.843,-1.8783,0.6957,0.0696
1430,1.7244,-9.9633,-0.843,-2.0174,0.6261,0.0696
1435,1.7244,-9.925,-0.8814,-2.1565,0.5565,0.0
1440,1.6478,-9.925,-0.8047,-2.2261,0.6261,-0.0696
1445,1.7627,-9.8866,-0.8814,-2.4348,0.5565,-0.0696
1450,1.7627,-9.9633,-0.9197,-2.6435,0.487,-0.2087
1455,1.8011,-9.8483,-0.8047,-2.7826,0.4174,-0.2087
1460,1.8394,-9.7717,-0.7664,-2.8522,0.2783,-0.1391
1465,1.7627,-9.8866,-0.7664,-2.8522,0.2783,-0.1391
1470,1.7627,-10.0016,-0.843,-3.0609,0.2087,-0.2087
1475,1.6095,-9.8866,-0.7664,-3.2,0.2087,-0.3478
1480,1.5328,-10.0399,-0.9963,-3.2696,0.2783,-0.3478
1485,1.8011,-9.8866,-0.9197,-3.5478,0.2783,-0.3478
1490,1.8011,-9.8866,-0.843,-3.687,0.4174,-0.4174
1495,1.9927,-9.925,-0.958,-3.8957,0.6261,-0.4174
1500,1.7627,-9.8866,-0.958,-4.1739,0.9043,-0.3478
1505,1.7627,-9.8866,-0.9197,-4.313,1.0435,-0.5565
1510,1.8011,-9.9633,-0.9197,-4.6609,1.0435,-0.6261
1515,1.6095,-9.8866,-1.2263,-4.9391,1.0435,-0.6261
1520,1.7627,-9.8866,-0.8814,-5.287,0.9739,-0.6261
1525,1.6478,-9.8866,-0.9963,-5.4957,0.9043,-0.6957
1530,1.6861,-9.925,-0.9963,-5.4957,0.9043,-0.6957
1535,1.5711,-9.8866,-0.8814,-5.4261,0.8348,-0.8348
1540,1.7244,-9.9633,-0.9963,-5.5652,0.9043,-0.7652
1545,1.8394,-9.9633,-0.958,-5.4957,0.9739,-0.7652
1550,1.8011,-9.925,-0.9963,-5.3565,1.0435,-0.7652
1555,1.7627,-9.9633,-1.1113,-5.4261,1.2522,-0.6957
1560,1.8394,-9.8483,-0.9197,-5.4957,1.3913,-0.6957
1565,1.6861,-9.8483,-1.073,-5.5652,1.6696,-0.6261
1570,1.8394,-9.8866,-1.0346,-5.5652,1.7391,-0.487
1575,1.8394,-10.0782,-0.9963,-5.7043,2.087,-0.487
1580,1.7244,-9.925,-1.1113,-5.7043,2.2957,-0.487
1585,1.8394,-9.8866,-0.958,-5.7739,2.4348,-0.6261
1590,1.8777,-10.0399,-0.8814,-5.7043,2.5739,-0.5565
1595,1.8394,-10.0016,-1.073,-5.4957,2.6435,-0.5565
1600,1.8394,-10.0399,-1.0346,-5.287,2.6435,-0.5565
1605,1.916,-9.9633,-0.958,-5.0783,2.6435,-0.487
1610,1.9543,-10.0016,-0.8814,-5.0087,2.6435,-0.6261
1615,1.8394,-9.925,-0.9197,-4.8696,2.7826,-0.5565
1620,1.8777,-9.925,-0.8814,-4.8696,2.8522,-0.5565
1625,1.8777,-9.9633,-0.8047,-4.5913,2.9217,-0.6261
1630,1.8394,-10.0399,-1.0346,-4.4522,3.0609,-0.5565
1635,1.8011,-9.925,-0.9963,-4.4522,3.2,-0.5565
1640,1.8777,-10.0016,-1.0346,-4.2435,3.2696,-0.6261
1645,1.9927,-9.925,-0.8047,-4.1043,3.2696,-0.6957
1650,1.8777,-9.925,-0.958,-4.0348,3.4087,-0.7652
1655,1.916,-10.1549,-0.9963,-3.8261,3.4783,-0.7652
1660,1.8777,-10.0016,-1.0346,-3.5478,3.4783,-0.6957
1665,1.8394,-10.1166,-0.9197,-3.3391,3.4783,-0.6957
1670,1.8394,-10.0016,-0.9963,-3.1304,3.3391,-0.6261
1675,1.8777,-10.0399,-1.0346,-2.9217,3.2,-0.5565
1680,1.8394,-9.9633,-1.073,-2.9913,3.1304,-0.3478
1685,1.9543,-9.8866,-0.843,-2.9217,2.9913,-0.2783
1690,1.7244,-9.8483,-0.9963,-3.0609,2.713,-0.2087
1695,1.6478,-9.8483,-0.843,-3.3391,2.6435,-0.2087
1700,1.8394,-9.925,-0.843,-3.7565,2.3652,-0.0696
1705,1.7627,-9.8866,-0.7664,-3.9652,2.3652,-0.0696
1710,1.7244,-9.925,-0.843,-4.3826,2.2957,0.0
1715,1.8777,-10.0016,-0.8814,-4.6609,2.2261,-0.1391
1720,1.6478,-9.8483,-0.9197,-4.9391,2.1565,-0.1391
1725,1.8394,-9.9633,-0.843,-5.2174,2.2261,-0.1391
1730,1.7627,-9.925,-1.0346,-5.287,2.2957,-0.3478
1735,1.7244,-9.925,-0.9197,-5.4957,2.2957,-0.487
1740,1.7627,-9.9633,-0.958,-5.4957,2.3652,-0.5565
1745,1.5711,-10.0016,-1.1496,-5.3565,2.4348,-0.6261
1750,2.031,-9.8483,-0.958,-5.2174,2.5739,-0.6957
1755,1.7627,-9.925,-1.0346,-5.2174,2.713,-0.9043
1760,1.6861,-9.81,-0.9963,-5.0783,2.8522,-1.0435
1765,1.7244,-9.925,-0.9963,-5.0087,3.0609,-1.2522
1770,1.7627,-9.9633,-0.9963,-4.9391,3.1304,-1.3913
1775,1.7627,-10.0016,-1.0346,-4.8696,3.2,-1.4609
1780,1.8011,-10.0782,-1.0346,-4.7304,3.3391,-1.5304
1785,1.6478,-9.8483,-1.1879,-4.6609,3.3391,-1.6
1790,1.7244,-9.925,-1.0346,-4.3826,3.3391,-1.6696
1795,1.6095,-9.9633,-1.1496,-4.313,3.4783,-1.5304
1800,1.8011,-9.925,-1.2263,-4.313,3.4783,-1.4609
1805,1.8777,-9.8866,-1.0346,-4.3826,3.6174,-1.3913
1810,1.8394,-9.9633,-0.9963,-4.4522,3.7565,-1.2522
1815,1.7627,-9.925,-1.1113,-4.5217,3.687,-1.113
1820,1.8394,-10.0016,-1.0346,-4.6609,3.687,-0.9739
1825,1.7627,-9.8483,-0.958,-4.9391,3.5478,-0.6957
1830,1.8777,-10.0016,-1.073,-5.2174,3.4783,-0.5565
1835,1.8777,-9.8866,-0.958,-5.6348,3.3391,-0.4174
1840,1.9543,-9.8483,-0.958,-6.0522,3.3391,-0.3478
1845,1.916,-9.8483,-0.8047,-6.6087,3.3391,-0.4174
1850,1.8394,-9.9633,-0.9963,-7.0261,3.4087,-0.487
1855,1.9543,-9.9633,-0.958,-7.2348,3.4087,-0.5565
1860,1.916,-10.2698,-1.0346,-7.4435,3.4783,-0.6957
1865,1.9543,-10.0016,-0.958,-7.513,3.6174,-0.8348
1870,1.8777,-9.81,-0.9197,-7.1652,3.7565,-1.0435
1875,1.916,-9.925,-0.9963,-7.0261,3.8957,-1.113
1880,1.9543,-10.0399,-1.0346,-6.7478,4.0348,-1.1826
1885,1.8777,-9.8483,-1.0346,-6.5391,4.1043,-1.3217
1890,2.031,-10.0782,-1.073,-6.2609,4.1043,-1.2522
1895,1.8394,-10.0399,-1.0346,-6.1913,4.1739,-1.3217
1900,1.8777,-9.8866,-0.843,-5.9826,4.1739,-1.1826
1905,1.916,-10.0399,-0.843,-5.9826,4.1739,-0.9739
1910,1.8777,-10.0016,-0.9197,-6.1217,3.9652,-0.9043
1915,1.7627,-10.0399,-0.9197,-6.2609,3.7565,-0.8348
1920,1.8777,-9.8866,-0.958,-6.4,3.687,-0.7652
1925,1.8394,-10.0016,-1.0346,-6.4696,3.6174,-0.6261
1930,1.8777,-9.8866,-0.9963,-6.5391,3.4087,-0.487
1935,1.8777,-9.8866,-1.073,-6.6087,3.2,-0.487
1940,1.916,-9.8866,-1.1496,-6.5391,3.0609,-0.3478
1945,1.8011,-9.8866,-0.958,-6.4696,2.9913,-0.2087
1950,1.8011,-9.81,-1.0346,-6.3304,2.7826,-0.0696
1955,1.8011,-9.8866,-1.1496,-6.2609,2.5739,0.1391
1960,1.7627,-10.0016,-1.2646,-6.3304,2.5043,0.2087
1965,1.8394,-9.8866,-0.843,-6.5391,2.3652,0.2783
1970,2.031,-9.8866,-0.8814,-6.6783,2.2957,0.2783
1975,1.916,-9.8866,-0.9963,-6.887,2.3652,0.4174
1980,1.8777,-10.0016,-1.0346,-7.0261,2.4348,0.4174
1985,1.8777,-10.0399,-1.1113,-7.2348,2.4348,0.3478
1990,1.8011,-10.0782,-1.2646,-7.3043,2.5739,0.3478
1995,1.8011,-9.9633,-1.0346,-7.513,2.5739,0.2783
2000,1.8394,-10.0016,-1.1113,-7.513,2.5043,0.1391
2005,1.8777,-10.0399,-1.0346,-7.3043,2.5043,0.0
2010,1.7627,-10.1166,-1.2646,-7.0957,2.4348,0.0
2015,1.8011,-9.9633,-0.9963,-6.7478,2.3652,-0.0696
2020,1.6478,-9.9633,-1.1113,-6.6783,2.3652,0.0
2025,1.8777,-9.925,-0.6898,-6.4696,2.4348,-0.0696
2030,1.7244,-9.9633,-1.1879,-6.4,2.3652,0.0
2035,1.8011,-9.925,-1.073,-6.4696,2.3652,0.0696
2040,1.6478,-9.8866,-1.1113,-6.6087,2.4348,0.1391
2045,1.7244,-9.925,-1.1113,-6.6087,2.5043,0.2783
2050,1.9543,-9.9633,-1.0346,-6.6087,2.5739,0.3478
2055,1.8011,-9.8866,-1.073,-6.9565,2.5739,0.487
2060,1.8777,-9.8866,-1.1113,-7.0261,2.7826,0.487
2065,1.8011,-9.925,-1.1496,-7.1652,2.8522,0.5565
2070,1.8394,-9.925,-1.1496,-7.3739,2.9913,0.5565
2075,1.916,-9.8866,-1.1496,-7.3739,3.2,0.6261
2080,1.9543,-10.1932,-1.2263,-7.5826,3.4087,0.7652
2085,1.916,-9.8866,-1.073,-7.7217,3.6174,0.6957
2090,1.8777,-10.0016,-0.9963,-7.9304,3.687,0.8348
2095,1.8777,-9.925,-1.1879,-7.9304,3.7565,0.8348
2100,1.7627,-10.0016,-1.2646,-8.2087,3.687,0.7652
2105,1.8394,-9.925,-1.1496,-8.487,3.687,0.6957
2110,1.8394,-10.0016,-1.073,-8.6261,3.6174,0.7652
2115,1.7244,-10.0399,-1.2646,-8.8348,3.5478,0.8348
2120,1.8394,-10.0016,-1.2263,-8.9043,3.4087,0.8348
2125,1.7244,-9.8483,-1.1879,-9.113,3.2696,0.8348
2130,1.3412,-10.0399,-1.2646,-9.113,3.1304,0.9739
2135,1.6095,-9.9633,-1.1879,-9.2522,2.9217,1.113
2140,1.6478,-9.8483,-1.2646,-9.3913,2.6435,1.1826
2145,1.8011,-9.9633,-1.2263,-9.4609,2.4348,1.2522
2150,1.8011,-9.925,-1.1496,-9.4609,2.2957,1.2522
2155,1.8011,-9.925,-1.1496,-9.5304,2.087,1.3913
2160,1.6478,-9.925,-1.1879,-9.5304,1.9478,1.5304
2165,1.7627,-9.8483,-0.9963,-9.5304,1.8087,1.6
2170,1.7244,-9.8483,-1.1879,-9.5304,1.7391,1.7391
2175,1.7244,-9.925,-1.3412,-9.6696,1.6,1.6696
2180,1.6861,-9.81,-1.3029,-9.8783,1.5304,1.8087
2185,1.6861,-9.6567,-1.2646,-10.1565,1.5304,2.0174
2190,1.7244,-9.8483,-1.3029,-10.5043,1.5304,2.1565
2195,1.6478,-9.7717,-1.3029,-10.9217,1.8087,2.3652
2200,1.8011,-9.81,-1.3412,-11.3391,2.087,2.5043
2205,1.6861,-9.7717,-1.3412,-12.0348,2.4348,2.713
2210,1.8011,-9.8483,-1.2646,-12.4522,2.8522,2.9217
2215,1.6861,-9.81,-1.2646,-12.9391,3.2,2.9913
2220,1.7627,-9.8483,-1.2646,-13.287,3.6174,3.2
2225,1.8394,-9.7717,-1.1496,-13.6348,3.8957,3.4087
2230,1.6861,-9.8866,-1.1496,-14.0522,4.2435,3.4783
2235,1.8394,-9.925,-1.2263,-14.4,4.4522,3.687
2240,1.6861,-9.7334,-0.8814,-14.6783,4.7304,3.8261
2245,1.5328,-9.925,-1.1496,-14.9565,4.8696,3.8957
2250,1.4562,-9.8866,-1.0346,-14.887,4.9391,3.9652
2255,1.4562,-9.8866,-0.958,-14.6087,4.8696,4.1043
2260,1.3412,-9.8483,-1.1113,-14.0522,4.5217,4.2435
2265,1.4562,-9.8483,-1.1496,-13.8435,3.8261,4.5913
2270,1.2646,-9.7717,-0.9963,-13.6348,2.5043,4.8696
2275,1.2646,-9.7334,-1.0346,-13.7739,1.1826,5.3565
2280,1.1113,-9.81,-0.958,-13.9826,-0.2783,5.913
2285,1.2263,-9.81,-0.8047,-14.6783,-1.7391,6.4
2290,1.3029,-9.7717,-0.9197,-15.3043,-2.9217,6.9565
2295,0.9197,-9.6567,-0.9197,-16.487,-3.687,7.4435
2300,1.3795,-9.6567,-1.1113,-17.8783,-3.8261,7.7913
2305,1.3029,-9.7717,-1.2646,-19.4783,-3.2696,8.2087
2310,1.4179,-9.81,-1.4179,-21.0783,-2.3652,8.487
2315,1.5328,-9.8483,-1.4562,-22.3304,-1.3217,8.8348
2320,1.6095,-9.8866,-1.6478,-23.0957,-0.2087,9.113
2325,1.6478,-9.9633,-1.7244,-23.7913,0.7652,9.1826
2330,1.8394,-10.0782,-1.7627,-24.0696,1.6,9.3217
2335,1.6861,-9.925,-2.031,-24.3478,2.2957,9.3913
2340,1.7244,-9.8866,-1.9543,-24.7652,2.713,9.5304
2345,1.6861,-10.0399,-1.8777,-24.9043,2.5043,9.4609
2350,1.3795,-10.1549,-1.8777,-24.6261,2.2261,9.3913
2355,1.7244,-10.3465,-1.9927,-24.1391,1.6,9.1826
2360,1.7244,-10.3082,-1.916,-23.3043,0.9043,9.1826
2365,1.916,-10.3465,-2.0693,-21.7739,0.1391,8.7652
2370,1.916,-10.3082,-1.8011,-19.9652,-0.6957,8.1391
2375,1.9927,-10.3465,-2.031,-17.7391,-1.6,7.513
2380,2.1459,-10.3848,-1.8011,-15.3043,-2.5043,6.8174
2385,2.2609,-10.3082,-1.7627,-13.1478,-3.4783,5.7739
2390,2.4525,-10.6147,-1.7244,-11.4783,-4.313,4.3826
2395,2.4525,-10.5381,-1.6861,-10.087,-4.9391,2.5739
2400,2.6441,-10.3848,-1.5711,-8.7652,-5.4957,0.4174
2405,2.6824,-10.1166,-1.8011,-7.0261,-5.7043,-2.0174
2410,2.6058,-9.9633,-1.6478,-5.1478,-5.4261,-5.0783
2415,2.5291,-9.81,-1.6478,-3.2,-4.4522,-8.1391
2420,2.4525,-9.7717,-1.7244,-1.6,-3.1304,-10.9913
2425,2.2609,-9.7334,-1.6095,-0.5565,-1.5304,-13.4261
2430,2.0693,-9.695,-1.3795,0.6261,0.2783,-15.513
2435,1.8394,-9.695,-1.4562,0.9739,2.2261,-16.6957
2440,1.6095,-9.81,-1.1879,0.6957,4.5913,-17.3217
2445,1.5711,-9.81,-1.2646,-0.0696,7.1652,-17.4609
2450,1.2646,-9.8866,-1.4179,-0.7652,9.9478,-17.3913
2455,1.073,-9.8483,-1.5711,-1.3217,12.2435,-17.113
2460,1.3795,-9.81,-1.8777,-1.9478,13.7043,-17.0435
2465,1.1879,-9.7334,-2.031,-2.7826,14.7478,-16.7652
2470,1.073,-9.4651,-2.1459,-4.1043,15.0957,-16.2087
2475,1.1879,-9.3118,-2.3759,-5.9826,14.6783,-15.2348
2480,1.1496,-9.6184,-2.4142,-7.7217,13.3565,-13.9826
2485,1.2263,-9.5418,-2.5291,-9.2522,11.4783,-12.6609
2490,1.2646,-9.695,-2.5291,-10.3652,9.1826,-11.3391
2495,1.4945,-9.5801,-2.1843,-11.0609,6.8174,-10.0174
2500,1.6478,-9.695,-2.1459,-11.2696,4.4522,-8.9043
2505,1.8394,-9.5801,-2.0693,-11.4087,2.5043,-8.2087
2510,2.0693,-9.6184,-1.7627,-11.4087,1.2522,-7.8609
2515,2.3375,-9.695,-1.4945,-11.2696,0.2087,-7.6522
2520,2.3375,-9.695,-1.4179,-10.7826,-0.8348,-7.5826
2525,2.6058,-9.695,-1.4562,-10.3652,-2.2957,-7.3739
2530,2.6058,-9.7334,-1.6478,-9.8783,-4.0348,-6.8174
2535,2.5675,-9.81,-1.8394,-9.0435,-5.5652,-6.1913
2540,2.5291,-9.8866,-1.7627,-8.2783,-6.5391,-5.7043
2545,2.4908,-9.8866,-1.7627,-7.4435,-6.7478,-5.0087
2550,2.4142,-10.0399,-1.8777,-6.6783,-6.4,-4.5913
2555,2.3375,-10.2698,-2.031,-6.0522,-5.7739,-4.1043
2560,2.1459,-10.0016,-2.1076,-5.913,-5.0783,-3.687
2565,2.031,-9.925,-2.2609,-6.0522,-4.1739,-3.2
2570,1.9543,-9.925,-2.2609,-6.3304,-2.9913,-2.5739
2575,1.8394,-9.9633,-2.2992,-6.4,-1.8087,-1.9478
2580,1.916,-9.9633,-2.2992,-6.7478,-0.8348,-1.3913
2585,2.031,-10.0016,-2.2226,-7.2348,0.2087,-0.9043
2590,2.031,-10.0399,-1.7244,-7.5826,1.5304,-0.6957
2595,2.2226,-9.8866,-1.6095,-8.0,2.4348,-0.487
2600,2.3375,-9.7717,-1.6095,-8.6957,3.3391,-0.6261
2605,2.2609,-9.6184,-1.4945,-9.6,3.9652,-0.6957
2610,2.2992,-9.695,-1.5328,-10.8522,4.1043,-0.6957
2615,2.4142,-9.6567,-1.4562,-11.8957,4.0348,-0.6261
2620,2.2226,-9.5418,-1.6861,-13.287,3.9652,-0.3478
2625,2.4525,-9.695,-1.6095,-14.4,4.313,-0.0696
2630,2.3375,-9.6567,-1.6095,-15.2348,4.9391,0.1391
2635,2.2992,-9.7717,-1.6478,-15.9304,5.6348,0.5565
2640,2.3375,-9.81,-1.5328,-16.6957,6.1217,0.8348
2645,2.4525,-9.8866,-1.4562,-17.2522,6.6783,1.113
2650,2.3375,-9.925,-1.4179,-17.8783,7.2348,1.3913
2655,2.2992,-9.9633,-1.6095,-18.2957,7.3739,1.6
2660,2.3375,-9.9633,-1.4179,-18.3652,7.513,1.7391
2665,2.3375,-9.8866,-1.4945,-18.4348,7.513,1.8783
2670,2.2992,-10.0016,-1.3412,-18.6435,7.6522,2.0174
2675,1.8011,-10.0016,-1.4562,-19.0609,7.7913,2.1565
2680,1.9927,-9.8866,-1.4945,-19.5478,8.0696,2.1565
2685,2.1459,-10.0399,-1.5328,-19.9652,8.2783,2.2957
2690,1.9927,-9.925,-1.5711,-20.5913,8.4174,2.6435
2695,1.9543,-9.8866,-1.5328,-21.287,8.487,3.0609
2700,2.1076,-10.0399,-1.5711,-22.2609,9.0435,3.687
2705,1.9927,-10.0399,-1.6095,-23.1652,9.8087,4.1043
2710,1.916,-10.0782,-1.7244,-23.7217,10.5739,4.6609
2715,1.9543,-10.0399,-1.6095,-24.0696,10.9913,4.8696
2720,1.9927,-10.2698,-1.8777,-24.5565,11.3391,5.2174
2725,1.9543,-10.0016,-1.916,-24.9739,11.6174,5.5652
2730,1.9543,-9.925,-2.1076,-25.1826,11.9652,5.6348
2735,1.8394,-9.9633,-2.1076,-25.3217,12.313,5.913
2740,1.6861,-10.0399,-2.3375,-25.6,12.5217,5.9826
2745,1.6861,-9.9633,-2.4142,-25.8087,12.5217,5.9826
2750,1.7244,-9.81,-2.4525,-26.087,12.313,5.7739
2755,1.8011,-10.0016,-2.4142,-26.4348,12.1043,5.7043
2760,1.7244,-9.9633,-2.4142,-26.713,12.0348,5.6348
2765,1.4179,-9.925,-2.2609,-27.0609,12.1739,5.6348
2770,1.4562,-9.9633,-2.1843,-27.4783,12.5217,5.7043
2775,1.2646,-9.8866,-2.2609,-28.2435,12.8,5.7739
2780,1.4945,-9.925,-2.0693,-29.3565,13.0783,5.9826
2785,1.3795,-9.8483,-1.9927,-30.2609,13.287,6.4
2790,1.3029,-9.8483,-1.9543,-31.1652,12.8,6.887
2795,1.2646,-9.8483,-2.2226,-32.0,11.9652,7.4435
2800,1.3412,-9.9633,-2.031,-32.3478,10.8522,8.0696
2805,1.6095,-10.0399,-2.0693,-32.0696,9.6,8.2087
2810,1.5711,-9.8866,-1.8777,-31.7913,8.6957,8.4174
2815,1.7244,-10.0399,-2.1076,-31.513,8.0696,8.487
2820,1.916,-9.925,-1.9927,-31.513,7.8609,8.6261
2825,1.7244,-9.8866,-2.2226,-32.2087,7.7913,8.7652
2830,1.7627,-9.81,-2.4142,-33.113,7.7913,9.0435
2835,1.6478,-9.8866,-2.4908,-34.1565,7.3043,9.1826
2840,1.6478,-9.925,-2.7207,-35.0609,6.7478,9.6
2845,1.5328,-9.925,-2.9123,-35.2,6.4696,9.7391
2850,1.5328,-10.0399,-3.0656,-35.2,6.8174,10.0174
2855,1.4179,-10.1166,-3.0656,-34.7826,7.7913,10.2261
2860,1.4179,-9.9633,-3.1039,-34.4348,9.1826,10.3652
2865,1.2263,-10.0016,-3.1423,-34.1565,10.5739,10.1565
2870,1.1879,-9.9633,-3.0656,-33.9478,11.7565,9.8783
2875,1.2646,-9.9633,-3.2572,-33.8087,12.4522,9.4609
2880,1.0346,-10.0399,-3.4105,-33.5304,12.4522,9.3913
2885,1.1113,-9.8866,-3.2955,-33.5304,12.1739,9.113
2890,1.073,-9.8866,-3.2572,-33.4609,11.8261,8.9739
2895,1.1496,-9.925,-3.2955,-33.1826,11.5478,8.8348
2900,1.0346,-9.9633,-3.2189,-32.9043,11.6174,8.4174
2905,1.2646,-9.9633,-3.0273,-32.4174,11.8957,8.1391
2910,1.4562,-10.2315,-2.9123,-32.0696,12.5913,8.0
2915,0.8814,-9.7334,-3.0656,-32.5565,13.4957,8.4174
2920,1.4179,-9.8866,-3.2189,-31.8609,13.3565,6.6087
2925,1.3412,-9.8866,-3.2955,-31.0957,13.0783,5.9826
2930,1.3795,-10.0399,-3.1423,-30.5391,12.8696,5.6348
2935,1.4179,-9.925,-3.1039,-29.913,12.9391,5.6348
2940,1.4179,-9.8866,-3.3339,-29.3565,13.0087,5.4957
2945,1.6095,-10.0782,-3.2189,-29.287,13.1478,5.4957
2950,1.5711,-10.0782,-3.2189,-29.4261,13.2174,5.4957
2955,1.6478,-10.0782,-3.2189,-29.4957,12.8,5.4261
2960,1.8011,-9.9633,-3.4871,-29.287,12.3826,5.7043
2965,1.916,-10.0782,-3.6021,-29.3565,11.5478,5.8435
2970,1.8777,-10.1166,-3.5255,-29.4957,10.7826,6.4
2975,1.8011,-9.81,-3.7171,-30.0522,10.5739,7.1652
2980,2.031,-9.9633,-3.7554,-28.8696,10.3652,5.287
2985,2.1459,-9.8866,-3.7554,-27.6174,10.5043,4.1739
2990,2.1459,-10.0782,-3.6787,-26.2957,11.3391,3.8261
2995,1.8777,-10.0399,-3.832,-24.3478,12.7304,3.4783
