timestamp,accX,accY,accZ,gyroX,gyroY,gyroZ
0,-9.6567,-0.4598,0.8047,8.0,-53.6348,8.0
5,-9.8866,-0.2682,1.073,7.6522,-54.8174,7.6522
10,-9.8866,-0.3832,1.0346,7.3043,-55.7913,7.2348
15,-9.9633,-0.3066,1.1113,6.6087,-56.5565,6.6087
20,-10.0399,-0.0766,1.1496,6.1217,-57.3217,6.1217
25,-10.0782,-0.115,1.2646,5.5652,-57.9478,5.6348
30,-10.1166,-0.1533,1.3795,4.8,-58.5739,5.287
35,-10.1166,-0.0766,1.3412,3.5478,-59.2,4.8
40,-10.3082,-0.1916,1.3412,2.0174,-59.8957,4.2435
45,-10.4614,-0.1916,1.4562,0.0696,-60.9391,3.687
50,-10.3465,-0.2299,1.3029,-1.8783,-61.913,3.0609
55,-10.4231,-0.2682,1.6478,-3.4783,-63.3043,2.3652
60,-10.3848,-0.2682,1.5328,-5.5652,-64.6261,1.3913
65,-10.4614,-0.2682,1.7627,-7.7217,-66.087,0.4174
70,-10.3848,-0.3832,1.6095,-9.9478,-67.687,-0.6261
75,-10.4998,-0.3449,1.5711,-11.7565,-69.3565,-1.4609
80,-10.3848,-0.4982,1.7627,-13.1478,-70.887,-2.2261
85,-10.4614,-0.3832,1.8394,-13.9826,-72.4174,-3.2696
90,-10.4231,-0.2299,1.8394,-14.3304,-74.4348,-4.1043
95,-10.5764,-0.5748,2.031,-14.4,-76.7304,-4.9391
100,-10.653,-0.4598,2.031,-14.6783,-79.1652,-5.5652
105,-10.5381,-0.3066,2.1076,-14.9565,-81.8783,-6.3304
110,-10.3848,-0.4215,2.1843,-15.3043,-84.7304,-7.0957
115,-10.2315,-0.5365,2.3375,-15.9304,-87.6522,-7.7217
120,-10.2315,-0.4982,2.4908,-16.2087,-90.2261,-8.4174
125,-10.1166,-0.6131,2.7207,-16.4174,-92.5913,-8.6261
130,-10.1549,-0.6131,2.6441,-16.7652,-94.6783,-8.7652
135,-10.0399,-0.6514,3.1423,-17.3913,-96.5565,-8.5565
140,-10.0016,-0.6898,2.9507,-18.087,-98.2261,-8.1391
145,-9.8866,-0.7664,2.874,-18.0174,-99.5478,-7.6522
150,-9.6567,-0.6514,2.9507,-17.8783,-100.1739,-7.0261
155,-9.5418,-0.6898,3.0656,-18.2957,-100.2435,-6.1217
160,-9.4651,-0.6514,2.989,-18.9217,-99.687,-5.0087
165,-9.4651,-0.7281,3.1039,-19.3391,-98.4348,-3.5478
170,-9.3502,-0.7664,3.0656,-18.7826,-96.7652,-1.9478
175,-9.1969,-0.843,3.0273,-17.6696,-94.7478,-0.487
180,-9.1202,-0.843,3.0656,-16.487,-92.7304,1.113
185,-9.0819,-0.8047,3.2572,-14.887,-90.4348,2.6435
190,-9.0053,-0.6898,3.4488,-12.6609,-87.7217,4.3826
195,-8.9286,-1.0346,3.5638,-9.8087,-84.6609,6.1913
200,-8.852,-0.7281,3.7937,-6.4,-81.1826,8.1391
205,-8.7754,-0.6514,3.832,-2.8522,-77.4957,10.0174
210,-8.7754,-0.4215,4.0236,0.6957,-73.4609,11.7565
215,-8.8137,-0.4215,4.0236,4.0348,-69.2174,13.287
220,-8.8137,-0.2299,4.0236,6.9565,-64.6261,14.4696
225,-8.737,-0.1533,4.3685,8.6957,-60.313,15.6522
230,-8.8137,0.0383,4.5601,9.3217,-56.1391,16.7652
235,-8.6987,0.1533,4.6751,9.0435,-52.0348,17.6696
240,-8.852,0.2299,4.4835,8.2783,-48.0696,18.5043
245,-8.6221,0.2682,4.3302,6.8174,-44.313,19.3391
250,-8.8137,0.4215,4.4068,4.8696,-40.9739,19.8957
255,-8.737,0.5365,4.2536,1.8087,-37.7739,20.3826
260,-8.7754,0.4215,4.3685,-1.9478,-35.1304,20.8
265,-8.6987,0.4215,4.4068,-6.3304,-33.3913,21.287
270,-8.7754,0.3832,4.4835,-11.1304,-32.6261,21.7043
275,-8.737,0.0766,4.4068,-15.8609,-32.2783,22.1217
280,-8.8903,0.0766,4.2152,-20.2435,-32.0696,22.6087
285,-8.852,0.0,4.3302,-24.6957,-31.6522,23.6522
290,-8.852,-0.1533,4.2152,-28.7304,-30.887,24.7652
295,-8.852,-0.4598,4.3302,-32.4174,-29.913,26.1565
300,-8.9286,-0.4598,4.4835,-35.687,-28.9391,27.4783
305,-8.852,-0.8047,4.4452,-38.5391,-27.9652,28.8696
310,-8.852,-1.0346,4.5218,-40.7652,-26.7826,30.2609
315,-8.8903,-1.2646,4.4835,-42.2261,-25.6,31.7217
320,-8.8903,-1.4179,4.5984,-42.7826,-24.5565,33.3217
325,-8.9286,-1.6861,4.8667,-42.5043,-23.3043,34.9217
330,-8.9286,-1.8394,4.8667,-41.7391,-22.4,36.8
335,-9.0819,-1.8394,5.0966,-41.0435,-22.0522,38.4
340,-8.967,-2.0693,5.1732,-40.3478,-22.0522,40.0
345,-9.0053,-2.031,5.2499,-39.513,-21.9826,41.2522
350,-8.7754,-2.2226,5.2882,-38.4696,-21.7739,42.2957
355,-8.6221,-2.3375,5.2882,-37.9826,-21.0087,42.9217
360,-8.6604,-2.4525,5.2882,-37.5652,-20.0348,44.2435
365,-8.6221,-2.4525,5.4032,-37.2174,-18.4348,45.5652
370,-8.0089,-2.7207,5.5181,-36.3826,-16.9043,46.8174
375,-7.7407,-2.6824,5.7864,-35.2696,-15.0261,48.2087
380,-7.3192,-2.874,5.5181,-33.6696,-12.8,49.5304
385,-7.1659,-2.7207,5.5948,-31.2348,-9.8783,51.5478
390,-7.1276,-2.8357,5.4798,-27.8261,-5.7739,53.4957
395,-6.9743,-2.6824,5.5181,-23.9304,-1.1826,54.9565
400,-6.7827,-2.6058,5.4032,-20.1043,3.4783,55.513
405,-6.3995,-2.5291,5.2499,-16.6957,7.9304,55.3739
410,-5.7097,-2.4142,5.4032,-14.0522,12.3826,54.887
415,-4.6751,-2.5291,5.02,-11.6174,17.0435,54.2609
420,-3.9853,-2.3375,4.79,-9.113,23.0261,52.5913
425,-3.1806,-1.9927,4.6751,-5.8435,31.4435,50.713
430,-3.2572,-1.3795,4.3685,-1.5304,41.6,48.487
435,-3.1806,-1.0346,4.2152,3.6174,53.2174,47.3043
440,-3.2955,-0.7664,4.1386,9.2522,64.7652,46.1913
445,-3.6404,-0.1916,4.1769,14.8174,74.9217,45.3565
450,-3.9087,-0.0766,4.1769,19.687,83.3391,44.4522
455,-3.9853,0.2299,4.0236,23.4435,90.2261,43.6174
460,-4.1003,0.5365,3.947,25.7391,96.0696,43.0609
465,-4.3302,0.958,3.6404,25.9478,101.2174,42.7826
470,-4.4835,0.958,3.5255,24.0,106.0174,42.6435
475,-4.7517,1.1879,3.5638,19.8957,111.0261,42.2261
480,-4.9816,1.1879,3.4488,14.3304,115.6174,41.7391
485,-5.3265,1.1879,3.4105,8.3478,119.9304,41.113
490,-5.6714,1.1879,3.4488,1.9478,123.8957,40.487
495,-6.2079,1.1113,3.3339,-4.4522,127.513,39.8609
500,-6.5911,0.9963,3.2572,-10.5739,130.7826,39.3739
505,-7.0893,1.1496,3.1039,-16.5565,133.4957,38.7478
510,-7.5108,0.8814,2.9123,-22.3304,135.5826,38.1913
515,-7.894,0.958,2.9507,-27.8261,137.3217,37.4261
520,-8.2389,0.9197,3.0273,-32.5565,138.9913,36.8
525,-8.6987,0.8814,2.5291,-36.313,140.313,35.8261
530,-9.1202,0.8814,2.5291,-39.0957,140.8696,35.3391
535,-9.4268,0.9197,2.4908,-41.1826,140.4522,34.713
540,-9.695,0.9963,2.3375,-42.0174,139.0609,34.3652
545,-9.8483,1.073,2.2226,-42.5043,136.6261,33.8783
550,-10.0782,1.1496,2.1459,-42.5739,133.1478,32.9739
555,-10.0016,0.958,2.1076,-42.2957,128.9739,32.0
560,-10.1932,1.0346,2.0693,-42.2261,124.313,30.6783
565,-10.0782,1.0346,2.2609,-41.7391,119.0261,29.0087
570,-10.3082,0.843,2.2609,-40.9043,113.6,27.1304
575,-9.9633,0.6514,2.3759,-39.6522,107.7565,24.5565
580,-9.6567,0.4598,2.5291,-38.0522,101.7739,21.8435
585,-9.695,0.2682,2.7207,-35.8261,95.7217,18.9217
590,-9.7334,0.2682,2.9123,-33.2522,89.9478,16.0
595,-9.695,0.0383,3.1039,-29.8435,84.1739,13.4957
600,-9.925,0.1916,3.4871,-25.8783,78.3304,11.2
605,-9.81,0.0383,3.7171,-21.3565,72.5565,9.0435
610,-9.81,0.115,3.9087,-16.9043,66.5043,7.0261
615,-10.0399,0.1533,4.1386,-12.8696,60.1739,4.5217
620,-10.0782,0.3832,4.1386,-9.7391,53.7739,2.2261
625,-10.2315,0.3449,4.3685,-7.9304,46.887,-0.6957
630,-10.1166,0.3449,4.5218,-7.4435,40.487,-3.687
635,-10.653,0.4598,4.7517,-8.1391,33.6696,-6.887
640,-11.1895,0.3832,4.8284,-9.8087,26.5043,-9.7391
645,-11.5344,0.3066,5.2116,-12.1043,18.2261,-11.9652
650,-11.7643,0.2299,5.6331,-15.0957,8.1391,-14.5391
655,-11.6111,0.0766,5.7097,-18.713,-3.3391,-17.8783
660,-11.5727,-0.0766,5.7097,-22.6087,-15.2348,-21.8435
665,-11.6494,0.0383,5.748,-26.5739,-26.2261,-25.6696
670,-11.841,0.0383,5.6714,-30.2609,-35.7565,-28.8696
675,-11.841,0.0383,5.3648,-33.6696,-43.9652,-31.3043
680,-11.726,0.2682,4.9816,-37.287,-50.9913,-33.1826
685,-11.6494,0.3832,4.6368,-41.2522,-56.487,-34.3652
690,-11.4961,0.6131,3.9853,-45.3565,-59.8261,-35.4087
695,-11.3428,0.6514,3.4105,-49.3217,-60.4522,-35.8261
700,-10.883,0.7281,3.0273,-52.313,-57.8783,-35.7565
705,-10.4998,0.843,2.6441,-54.1913,-52.313,-35.5478
710,-9.925,1.1113,2.4525,-54.6783,-43.7565,-34.5043
715,-9.5034,1.1113,2.4525,-54.2609,-32.5565,-33.2522
720,-8.7754,1.073,2.4908,-53.0087,-19.687,-31.513
725,-8.5071,0.843,2.874,-50.713,-5.913,-29.2174
730,-8.3921,0.8047,3.0656,-47.3043,7.513,-26.9913
735,-8.0856,0.4215,3.3339,-43.0609,19.4087,-24.8348
740,-8.0856,0.0766,3.832,-38.1217,29.8435,-22.8174
745,-7.894,-0.1916,3.832,-32.487,38.6087,-21.2174
750,-7.779,-0.4598,3.9853,-26.5043,46.0522,-19.9652
755,-7.8557,-0.6898,4.1386,-20.5217,52.5217,-18.8522
760,-7.8557,-0.8814,4.062,-14.3304,58.087,-17.5304
765,-7.9706,-0.8047,4.1003,-8.2783,63.0957,-16.0
770,-7.779,-1.073,3.9853,-2.713,67.8957,-14.5391
775,-7.9706,-1.1496,3.9087,1.3913,72.3478,-13.0087
780,-8.0856,-1.1113,3.7554,5.7043,76.7304,-11.5478
785,-8.2389,-0.958,3.7171,9.5304,80.6957,-10.0174
790,-8.4305,-0.8047,3.5638,12.8696,83.8957,-8.487
795,-8.5454,-0.8814,3.2955,15.6522,86.6783,-7.0957
800,-8.5454,-0.6898,3.1039,18.1565,88.8348,-6.0522
805,-8.8137,-0.4215,2.7974,20.2435,90.5739,-5.0087
810,-8.9286,-0.3832,2.6058,21.7739,91.4783,-3.5478
815,-9.0436,-0.3449,2.4142,22.6783,92.1739,-2.0174
820,-9.1586,0.0,2.2226,23.1652,92.6609,-0.4174
825,-9.4268,0.0383,1.8777,23.4435,92.4522,1.3913
830,-9.4651,0.1916,1.6861,23.513,91.8261,3.6174
835,-9.5801,0.3066,1.4562,23.4435,90.6435,5.9826
840,-9.6567,0.4982,1.0346,23.0957,89.3217,8.5565
845,-9.6184,0.6514,0.7664,22.4,88.1391,11.4087
850,-9.81,0.8814,0.5365,21.6348,86.9565,14.1913
855,-9.8866,0.9963,0.3832,20.7304,85.913,17.113
860,-9.8866,1.1496,0.0766,19.8957,84.9391,19.2
865,-9.695,1.1113,-0.1916,19.2696,84.313,21.4261
870,-9.6184,1.0346,-0.5365,18.4348,84.313,23.2348
875,-9.5801,0.9197,-0.6131,17.1826,85.4957,24.7652
880,-9.3885,0.6898,-0.5365,16.0696,87.513,26.087
885,-9.4268,0.7281,-0.7664,15.3043,89.6696,26.9913
890,-9.2352,0.4982,-0.843,14.887,91.8261,27.4087
895,-9.1202,0.4598,-0.8814,14.7478,94.1217,27.4087
900,-9.0819,0.3066,-0.7281,14.8174,96.4174,26.9217
905,-8.8137,0.1916,-0.7664,14.9565,98.5739,25.7391
910,-8.852,0.2299,-0.6131,15.513,100.2435,24.3478
915,-8.852,0.0766,-0.6898,15.9304,101.8435,22.3304
920,-9.1202,0.0766,-0.4215,15.8609,103.0957,19.9652
925,-9.1969,0.0383,-0.5748,15.3739,103.6522,17.3913
930,-9.1586,0.0383,-0.8047,13.7739,103.6522,14.4696
935,-9.2735,0.0,-0.6514,11.4087,103.4435,11.2696
940,-9.2735,-0.2299,-0.6514,8.8348,103.0261,8.0696
945,-9.5418,0.0,-0.7664,6.0522,102.0522,4.7304
950,-9.5418,0.115,-0.8814,3.0609,100.8,1.7391
955,-9.6567,0.0,-1.1113,-0.3478,99.2,-0.8348
960,-10.0399,0.0,-1.3412,-4.4522,97.6,-3.1304
965,-10.0399,0.0383,-1.5711,-9.2522,96.0,-4.2435
970,-10.3082,0.1916,-1.5711,-14.1913,94.1913,-4.7304
975,-10.3848,0.0383,-1.916,-19.2696,92.2435,-4.3826
980,-10.4998,0.0,-2.0693,-24.2087,90.2261,-3.2696
985,-10.2698,0.0766,-2.2609,-29.3565,88.0696,-0.9739
990,-10.1932,0.0,-2.3759,-34.5739,85.6348,0.9739
995,-10.3465,0.0766,-2.5291,-39.513,83.4783,3.3391
1000,-10.4231,0.0,-2.7207,-44.3826,81.8087,5.913
1005,-10.2698,-0.0766,-2.7591,-49.0435,80.3478,8.9739
1010,-9.8483,-0.3066,-3.0273,-52.8,79.0261,10.9217
1015,-10.4998,-0.3066,-3.2572,-54.8174,77.913,12.1739
1020,-10.5764,-0.2682,-3.4488,-55.3043,77.4957,14.9565
1025,-10.3082,-0.3449,-3.4488,-54.4,77.0783,18.4348
1030,-10.2315,-0.2299,-3.7171,-52.2435,76.1043,20.5217
1035,-10.1166,-0.0383,-3.8704,-48.7652,74.713,21.8435
1040,-10.768,0.1533,-4.062,-44.1739,72.7652,22.3304
1045,-10.768,0.2299,-4.1769,-38.5391,70.8174,24.3478
1050,-10.883,0.3832,-4.2152,-32.2087,68.313,27.5478
1055,-10.653,0.4982,-4.1386,-26.087,65.1826,29.913
1060,-10.3848,0.6898,-4.1003,-19.7565,61.287,29.913
1065,-10.2698,0.7281,-4.2152,-13.7043,56.7652,28.8
1070,-10.4614,0.843,-3.9853,-8.3478,52.6609,27.5478
1075,-10.0016,0.6131,-3.7937,-4.313,49.5304,25.4609
1080,-10.2698,1.073,-3.6404,-1.1826,46.4,20.313
1085,-10.4614,1.2263,-3.4871,1.113,42.4348,16.0
1090,-10.8063,1.2646,-3.3339,2.2261,38.8174,14.4696
1095,-10.883,1.2263,-3.0656,2.3652,35.8261,13.2174
1100,-10.4231,1.0346,-2.9507,1.6696,32.7652,11.1304
1105,-10.3848,0.9197,-2.989,0.6261,29.5652,7.3043
1110,-10.2698,0.958,-2.6824,-0.6957,27.2696,1.8087
1115,-9.695,1.0346,-2.6441,-2.4348,24.2783,-2.1565
1120,-9.6567,0.843,-2.6824,-4.2435,20.8696,-5.2174
1125,-10.2698,1.0346,-2.6058,-6.0522,17.6,-8.9739
1130,-10.6147,1.2646,-2.6058,-8.0696,15.7913,-10.2261
1135,-10.2315,1.073,-2.6058,-10.5043,14.1217,-9.4609
1140,-10.0399,1.1113,-2.4908,-13.4261,11.8957,-9.8783
1145,-10.1549,0.958,-2.7974,-16.5565,9.7391,-11.4087
1150,-9.8866,1.1879,-2.6824,-20.0348,8.4174,-13.7739
1155,-9.695,1.1879,-2.9507,-23.8609,6.1913,-14.1217
1160,-9.6184,1.1879,-3.0656,-27.4783,4.6609,-13.0087
1165,-9.9633,1.5328,-2.7207,-31.513,4.1739,-12.8
1170,-9.5418,1.6478,-3.0273,-35.8261,4.313,-13.6348
1175,-9.4651,1.1496,-2.874,-39.7913,3.5478,-13.0783
1180,-9.5801,1.1113,-2.7591,-44.0348,3.3391,-12.3826
1185,-9.4651,0.958,-2.8357,-48.0696,3.687,-12.2435
1190,-9.1202,1.2263,-2.6058,-52.1739,4.1043,-12.6609
1195,-9.1969,0.9963,-2.8357,-54.3304,3.6174,-11.9652
1200,-9.2735,0.9963,-2.8357,-54.887,2.8522,-11.0609
1205,-9.0436,0.8047,-2.4525,-54.6783,2.2957,-10.7826
1210,-9.0436,0.8814,-2.4908,-54.2609,1.8087,-11.2
1215,-8.7754,0.6898,-2.3759,-53.287,0.9043,-11.6174
1220,-9.1202,0.5365,-2.4142,-51.687,-0.5565,-11.7565
1225,-9.1586,0.4982,-2.4142,-49.0435,-2.5043,-11.2696
1230,-9.1586,0.3449,-2.4525,-45.913,-4.4522,-10.5739
1235,-9.2735,0.4982,-2.4525,-42.713,-6.1217,-9.9478
1240,-9.1586,0.4215,-2.3375,-38.8174,-7.9304,-8.9739
1245,-9.0053,0.6514,-2.6441,-34.087,-10.0174,-7.4435
1250,-9.4651,1.1879,-2.6824,-29.3565,-11.6174,-5.9826
1255,-9.3885,0.5748,-2.6441,-24.5565,-13.1478,-4.3826
1260,-9.5034,0.5748,-3.6404,-20.3826,-14.6783,-2.9217
1265,-10.1166,0.5748,-2.031,-16.7652,-15.8609,-1.4609
1270,-9.925,1.1113,-3.2572,-13.5652,-16.8348,0.0
1275,-10.3848,1.6861,-2.874,-10.713,-17.7391,1.3913
1280,-9.8866,0.7664,-2.4525,-8.6261,-18.6435,2.8522
1285,-10.2698,1.4179,-2.9507,-7.1652,-19.2,4.1739
1290,-10.2315,1.2646,-3.1423,-6.4,-19.2696,5.2174
1295,-10.3082,1.3795,-2.874,-6.6087,-19.2696,5.9826
1300,-10.3082,1.6095,-2.874,-7.3739,-19.1304,6.4
1305,-10.3465,1.6095,-2.9507,-8.6957,-18.9217,6.7478
1310,-10.3082,1.5711,-2.989,-10.4348,-18.4348,6.8174
1315,-10.1932,1.916,-2.9507,-11.9652,-17.6,6.8174
1320,-10.3465,1.4562,-2.8357,-13.8435,-16.7652,6.5391
1325,-9.9633,1.4179,-2.2609,-15.5826,-16.2087,6.1913
1330,-10.1166,1.073,-2.8357,-17.2522,-15.7913,5.6348
1335,-10.2698,1.4562,-2.1076,-18.5739,-15.5826,4.8696
1340,-9.9633,1.4562,-1.8394,-19.3391,-15.7217,4.1043
1345,-9.4651,1.3029,-2.0693,-19.6174,-16.2087,3.1304
1350,-9.6184,1.3029,-2.1459,-19.5478,-16.6957,2.2957
1355,-9.5418,1.1879,-2.1076,-18.9913,-17.4609,1.3217
1360,-9.3502,1.3412,-1.916,-17.8783,-18.3652,0.6261
1365,-9.4268,1.3412,-1.4945,-16.2087,-19.2696,-0.0696
1370,-9.2352,0.9963,-1.3795,-14.1217,-20.2435,-0.487
1375,-9.2735,1.0346,-1.3412,-11.4783,-21.0783,-0.9739
1380,-9.2352,0.9963,-1.3029,-8.9043,-22.0522,-1.3913
1385,-9.1969,0.958,-1.2263,-6.1913,-22.8174,-1.8087
1390,-9.1202,0.5748,-1.1496,-3.5478,-23.5826,-2.0174
1395,-9.1969,1.6095,-1.4179,-1.3217,-24.3478,-2.2957
1400,-9.3885,1.1113,-1.6861,0.6261,-24.8348,-2.4348
1405,-8.8137,1.073,-0.843,2.2957,-25.3217,-2.5739
1410,-9.3502,1.2646,-1.5328,3.7565,-25.6696,-2.713
1415,-9.5418,0.843,-1.3795,4.8696,-26.5043,-2.9913
1420,-9.5034,1.2263,-1.3412,5.4261,-27.3391,-3.2
1425,-9.4268,1.073,-1.4945,5.913,-27.8957,-3.4783
1430,-9.5418,1.1113,-1.4562,5.913,-27.8261,-3.7565
1435,-9.3502,0.843,-1.3795,5.3565,-27.4783,-3.687
1440,-9.0436,0.5365,-1.7244,4.5217,-26.9913,-3.6174
1445,-9.5801,1.0346,-1.3412,3.5478,-26.4348,-3.5478
1450,-9.6567,0.9963,-1.2646,2.6435,-26.0174,-3.4783
1455,-9.6567,0.843,-1.2646,1.8783,-25.4609,-3.6174
1460,-9.6567,0.7664,-1.3412,1.1826,-25.0435,-3.687
1465,-9.6184,0.4982,-1.3029,0.6957,-24.8348,-3.7565
1470,-9.7717,0.8047,-1.1879,0.3478,-24.3478,-3.8261
1475,-9.7717,0.5748,-0.843,-0.0696,-23.8609,-4.1043
1480,-9.6567,0.4215,-1.073,-0.1391,-23.2348,-4.3826
1485,-9.6184,0.8814,-0.843,0.0,-22.5391,-4.5913
1490,-9.6184,0.5748,-1.073,0.2087,-21.6348,-4.7304
1495,-9.6567,0.3066,-0.9963,0.3478,-20.7304,-4.8
1500,-9.6184,0.3449,-1.1496,0.487,-19.9652,-4.7304
1505,-9.5801,0.3832,-0.9963,0.4174,-19.3391,-4.6609
1510,-9.3885,0.3832,-0.7664,0.4174,-18.6435,-4.7304
1515,-9.6567,-0.0383,-0.843,0.4174,-17.9478,-4.8
1520,-9.4651,0.3449,-0.7664,0.1391,-17.1826,-4.5217
1525,-9.3885,0.4982,-0.4598,-0.2783,-16.3478,-4.1739
1530,-9.3885,0.3832,-0.6898,-0.6957,-15.4435,-4.0348
1535,-9.2735,0.3066,-0.5748,-1.1826,-14.4,-3.7565
1540,-9.3118,0.3449,-0.4598,-1.5304,-13.4261,-3.4783
1545,-9.4268,0.2682,-0.5365,-1.9478,-12.3826,-3.0609
1550,-9.3885,0.3066,-0.115,-2.5739,-11.2696,-2.713
1555,-9.5034,0.3449,-0.5748,-3.0609,-10.3652,-2.1565
1560,-9.3118,0.2682,-0.5748,-3.3391,-9.3913,-1.5304
1565,-9.3118,0.1533,-0.5748,-3.5478,-8.3478,-0.9739
1570,-9.1969,0.3832,-0.7664,-3.4783,-7.3739,-0.487
1575,-9.2735,0.2682,-0.4598,-3.4087,-6.4,0.2087
1580,-9.1586,0.6131,-0.5365,-3.0609,-5.2174,0.9043
1585,-9.1586,0.6514,-0.4982,-2.4348,-4.1739,1.6
1590,-9.4268,0.6131,-0.4982,-1.6696,-3.2,2.3652
1595,-9.4268,0.4598,-0.3832,-0.6957,-2.0174,3.2696
1600,-9.2735,0.2299,-0.6514,0.3478,-0.9043,4.2435
1605,-9.2352,0.3449,-0.6131,1.3913,0.1391,4.9391
1610,-9.2352,0.2682,-0.6898,2.5043,1.113,5.6348
1615,-9.2352,0.3832,-0.6131,3.5478,2.2261,6.5391
1620,-9.2735,0.4598,-0.8047,4.6609,3.1304,7.2348
1625,-9.5418,0.4215,-0.6131,5.7043,3.9652,7.7217
1630,-9.2735,0.3832,-0.6514,6.8174,4.8,8.3478
1635,-9.0819,0.7281,-0.115,7.8609,5.5652,8.6261
1640,-9.2352,0.3832,-0.6514,8.9043,6.3304,8.9739
1645,-9.3118,0.5748,-0.5365,9.7391,7.2348,9.2522
1650,-9.2735,0.6898,-0.5748,10.5739,8.0,9.3913
1655,-9.3118,0.7281,-0.5748,11.2696,8.7652,9.3913
1660,-9.2735,0.7664,-0.4982,11.9652,9.4609,9.4609
1665,-9.2735,0.7281,-0.6514,12.7304,10.087,9.2522
1670,-9.2735,0.8814,-0.4598,13.2174,10.5739,9.113
1675,-9.3118,0.958,-0.5748,13.4957,11.2,8.9043
1680,-9.1202,0.958,-0.4598,13.4957,11.6174,8.6261
1685,-9.2735,0.8814,-0.2682,13.2174,12.2435,8.487
1690,-9.2735,1.073,-0.3832,12.6609,12.8696,8.0696
1695,-9.3118,1.1113,-0.3832,11.9652,13.4957,7.7913
1700,-9.2735,1.1113,-0.3832,11.4087,13.8435,7.5826
1705,-9.695,1.1496,-0.4215,10.4348,14.5391,7.3043
1710,-9.4651,1.3029,-0.5365,9.6,15.3043,7.0261
1715,-9.4268,1.3029,-0.4215,8.6261,16.0696,6.6783
1720,-9.3502,1.3412,-0.2682,7.5826,16.7652,6.4
1725,-9.3885,1.4179,-0.4215,6.6783,17.8087,6.1913
1730,-9.0436,1.8011,-0.3449,5.8435,18.7826,6.1913
1735,-9.5034,1.4179,-0.3832,5.0087,19.687,6.0522
1740,-9.3502,1.3795,-0.5365,4.313,20.4522,5.9826
1745,-9.3885,1.4179,-0.4598,3.687,21.1478,5.8435
1750,-9.5034,1.3029,-0.6514,3.0609,21.6348,5.5652
1755,-9.4268,1.3029,-0.7664,2.5739,21.9826,5.287
1760,-9.4268,1.1113,-0.8047,2.3652,22.0522,4.9391
1765,-9.4651,1.1113,-0.8814,2.1565,21.913,4.5217
1770,-9.5418,1.1879,-1.073,2.1565,21.6348,4.1043
1775,-9.6567,1.1113,-1.0346,2.3652,21.5652,3.7565
1780,-9.5801,1.1113,-1.1113,2.7826,21.4261,3.687
1785,-9.6184,1.1496,-1.3412,3.2696,21.4261,3.5478
1790,-9.6567,1.073,-1.4562,3.5478,21.4957,3.5478
1795,-9.7334,1.1879,-1.3795,4.1043,21.4957,3.687
1800,-9.7334,1.2263,-1.5328,4.2435,21.4261,3.9652
1805,-9.8483,1.3029,-1.4945,4.1739,21.287,4.1043
1810,-9.81,1.4562,-1.5711,3.9652,21.287,4.1043
1815,-9.7334,1.4179,-1.3795,3.4087,21.287,4.1043
1820,-9.81,1.4179,-1.6861,2.5043,21.4957,4.2435
1825,-9.8866,1.4945,-1.5328,1.5304,21.7043,4.2435
1830,-9.8866,1.4945,-1.6095,0.0696,21.913,4.2435
1835,-9.81,1.4179,-1.5711,-1.3217,22.1217,4.1739
1840,-9.8866,1.4179,-1.6478,-2.6435,22.3304,4.1043
1845,-9.9633,1.4945,-1.6478,-3.9652,22.4,4.1043
1850,-9.9633,1.4179,-1.6478,-5.1478,22.2609,3.8957
1855,-9.925,1.3795,-1.6095,-5.9826,21.7043,3.5478
1860,-9.925,1.4562,-1.6478,-6.7478,21.0087,3.2696
1865,-9.7717,1.4562,-1.4945,-7.2348,20.1043,2.9217
1870,-9.81,1.4179,-1.6478,-7.513,19.2,2.3652
1875,-9.695,1.3795,-1.4945,-7.6522,18.2261,1.8087
1880,-9.695,1.3795,-1.6095,-7.513,17.113,1.3217
1885,-9.6184,1.4179,-1.5711,-7.4435,15.8609,0.7652
1890,-9.6567,1.3412,-1.6861,-7.4435,14.6087,0.1391
1895,-9.5801,1.3029,-1.6095,-7.2348,13.3565,-0.5565
1900,-9.6567,1.3029,-1.5711,-7.0957,12.1739,-1.3217
1905,-9.6567,1.2646,-1.6095,-6.887,10.9217,-2.2261
1910,-9.6184,1.2263,-1.5711,-6.6783,9.6696,-3.0609
1915,-9.5801,1.1496,-1.6095,-6.6087,8.5565,-3.8261
1920,-9.7334,1.2646,-1.5711,-6.5391,7.5826,-4.8
1925,-9.6567,1.073,-1.7627,-6.4,6.6087,-5.2174
1930,-9.7334,1.2263,-1.4179,-6.3304,5.7043,-5.7043
1935,-9.6567,1.1496,-1.5328,-6.4696,5.1478,-6.1217
1940,-9.6567,1.073,-1.6478,-6.7478,4.6609,-6.4696
1945,-9.5801,0.958,-1.6095,-7.0957,4.313,-6.6783
1950,-9.5801,1.073,-1.6861,-7.513,4.1043,-6.7478
1955,-9.6567,0.958,-1.7627,-8.0696,3.9652,-6.8174
1960,-9.6567,1.0346,-1.6478,-8.4174,3.8957,-6.6087
1965,-9.5801,0.843,-1.8011,-8.9739,3.7565,-6.4
1970,-9.695,0.8814,-1.6478,-9.3913,3.687,-6.1217
1975,-9.695,0.9963,-1.8394,-9.8783,3.5478,-5.8435
1980,-9.6184,0.8814,-1.8394,-10.2957,3.2696,-5.5652
1985,-9.6184,0.843,-1.7627,-10.5739,2.8522,-5.4261
1990,-9.6184,0.7664,-1.8011,-10.713,2.5739,-5.2174
1995,-9.81,0.8814,-1.7244,-10.5739,2.1565,-4.9391
2000,-9.6184,0.7664,-1.8011,-10.2957,1.7391,-4.6609
2005,-9.695,0.7281,-1.7244,-9.9478,1.0435,-4.5217
2010,-9.695,0.7281,-1.7244,-9.4609,0.487,-4.4522
2015,-9.7717,0.8814,-1.6095,-8.7652,-0.1391,-4.4522
2020,-9.7334,0.6898,-1.7627,-8.0696,-0.6957,-4.2435
2025,-9.6567,0.843,-1.6861,-7.1652,-1.4609,-4.1739
2030,-9.7334,0.7281,-1.5328,-6.5391,-2.0174,-4.0348
2035,-9.81,0.9197,-1.9543,-5.8435,-2.5043,-3.9652
2040,-9.6184,0.6898,-1.6095,-5.0087,-2.9913,-3.7565
2045,-9.695,0.8047,-1.4945,-4.313,-3.3391,-3.5478
2050,-9.6184,0.7664,-1.4562,-3.5478,-3.6174,-3.2
2055,-9.6567,0.7664,-1.4179,-2.9217,-3.8957,-3.1304
2060,-9.5034,0.843,-1.3795,-2.2261,-4.1739,-2.8522
2065,-9.5418,0.7664,-1.4562,-1.5304,-4.4522,-2.6435
2070,-9.5034,0.6898,-1.3029,-0.9043,-4.5217,-2.3652
2075,-9.6184,0.7664,-1.4179,-0.3478,-4.5217,-2.1565
2080,-9.3885,0.8047,-1.2263,0.2783,-4.7304,-2.0174
2085,-9.5418,1.1113,-1.2646,0.7652,-4.8696,-1.6696
2090,-9.4651,0.8047,-1.2646,1.113,-5.0087,-1.4609
2095,-9.5034,0.9197,-1.3029,1.3217,-5.0087,-1.2522
2100,-9.5801,0.958,-1.1496,1.4609,-5.0087,-1.1826
2105,-9.5418,0.8814,-1.2646,1.5304,-5.0783,-1.0435
2110,-9.5418,0.8047,-1.2646,1.6,-5.1478,-0.9043
2115,-9.4651,0.9197,-1.1113,1.5304,-5.0783,-0.7652
2120,-9.5034,0.958,-1.2646,1.2522,-5.0087,-0.6261
2125,-9.5034,0.9197,-1.4179,1.0435,-4.9391,-0.4174
2130,-9.5034,0.8814,-1.2263,0.8348,-4.8696,-0.4174
2135,-9.6184,0.9963,-1.073,0.6957,-4.8,-0.4174
2140,-9.5418,0.8814,-1.1879,0.4174,-4.8696,-0.2087
2145,-9.5418,0.843,-1.1496,0.1391,-4.8,-0.2087
2150,-9.6184,0.9963,-1.1879,-0.0696,-4.8696,-0.1391
2155,-9.5801,0.9963,-1.1879,-0.2783,-4.7304,-0.2087
2160,-9.6184,0.958,-1.2646,-0.487,-4.7304,-0.2783
2165,-9.6567,0.9963,-1.2646,-0.5565,-4.5913,-0.2783
2170,-9.6184,0.8814,-1.1496,-0.7652,-4.4522,-0.2783
2175,-9.6184,0.9197,-1.2263,-0.9043,-4.1739,-0.4174
2180,-9.6567,0.9963,-1.2263,-0.9043,-3.8957,-0.487
2185,-9.6567,0.958,-1.2263,-0.8348,-3.6174,-0.4174
2190,-9.6184,0.9197,-1.073,-0.6957,-3.4783,-0.3478
2195,-9.6184,0.958,-1.1113,-0.487,-3.3391,-0.4174
2200,-9.6567,0.9197,-1.1496,-0.487,-3.2,-0.487
2205,-9.5034,0.9963,-1.073,-0.4174,-3.0609,-0.4174
2210,-9.6567,0.9197,-1.0346,-0.4174,-2.8522,-0.5565
2215,-9.5034,0.843,-1.0346,-0.2783,-2.6435,-0.6261
2220,-9.5801,1.0346,-1.1496,-0.2087,-2.3652,-0.6261
2225,-9.6184,0.843,-1.073,-0.2783,-2.1565,-0.6261
2230,-9.5801,0.958,-0.958,-0.2783,-2.0174,-0.7652
2235,-9.5418,0.9963,-0.958,-0.2783,-1.6696,-0.6957
2240,-9.5418,0.9963,-0.958,-0.4174,-1.3913,-0.6957
2245,-9.5418,0.958,-1.1113,-0.4174,-1.1826,-0.6261
2250,-9.5418,0.958,-0.8047,-0.5565,-0.8348,-0.6957
2255,-9.6184,0.9963,-0.9197,-0.4174,-0.5565,-0.6957
2260,-9.5418,0.958,-0.958,-0.2783,-0.1391,-0.6261
2265,-9.5418,0.958,-1.0346,0.0,0.1391,-0.6957
2270,-9.5034,0.8814,-0.9963,0.1391,0.2783,-0.6261
2275,-9.5418,0.8814,-0.958,0.3478,0.487,-0.5565
2280,-9.5034,0.843,-0.843,0.5565,0.6957,-0.5565
2285,-9.4651,0.958,-0.8814,0.8348,0.8348,-0.3478
2290,-9.4651,1.0346,-0.8814,1.0435,1.0435,-0.3478
2295,-9.4651,0.9963,-0.9197,1.3217,1.2522,-0.3478
2300,-9.5801,0.9963,-0.843,1.5304,1.4609,-0.4174
2305,-9.5418,0.9197,-0.9197,1.8087,1.6,-0.2783
2310,-9.6567,0.9197,-0.843,2.087,1.8087,-0.2087
2315,-9.6184,0.9963,-0.8047,2.2261,2.087,-0.1391
2320,-9.5034,0.9963,-0.9197,2.3652,2.2957,-0.1391
2325,-9.6184,0.843,-0.843,2.4348,2.6435,0.0
2330,-9.5801,0.9197,-0.958,2.5739,2.9913,0.0696
2335,-9.6567,0.8814,-0.9197,2.713,3.3391,0.0
2340,-9.5801,0.958,-0.9197,2.7826,3.687,0.1391
2345,-9.6184,0.958,-1.073,2.7826,4.0348,0.1391
2350,-9.5801,1.0346,-0.9963,2.7826,4.313,0.1391
2355,-9.5418,0.8814,-0.9197,2.6435,4.6609,0.2087
2360,-9.5801,0.9963,-0.958,2.4348,5.0087,0.1391
2365,-9.5418,1.0346,-0.8047,2.4348,5.3565,0.2087
2370,-9.6184,0.958,-0.9197,2.2261,5.7043,0.2087
2375,-9.5418,1.0346,-0.958,2.0174,5.9826,0.2087
2380,-9.6184,0.9963,-0.958,1.6696,6.2609,0.2087
2385,-9.5034,0.9963,-0.8814,1.3913,6.4696,0.2783
2390,-9.5801,1.073,-0.8047,1.0435,6.5391,0.3478
2395,-9.6184,0.9963,-0.958,0.6957,6.887,0.3478
2400,-9.5418,0.958,-0.9963,0.3478,7.0957,0.487
2405,-9.4651,0.958,-0.958,0.0,7.3043,0.5565
2410,-9.6184,1.073,-0.843,-0.3478,7.4435,0.487
2415,-9.5801,1.0346,-0.958,-0.6957,7.7217,0.6261
2420,-9.695,0.9963,-0.9963,-0.9739,7.9304,0.6261
2425,-9.6567,1.073,-0.9197,-1.0435,8.1391,0.6261
2430,-9.4651,0.9197,-0.9197,-1.2522,8.2087,0.7652
2435,-9.5801,0.9963,-0.958,-1.2522,8.487,0.7652
2440,-9.6184,0.9197,-1.1496,-1.2522,8.6957,0.6261
2445,-9.6567,0.9197,-1.1113,-1.2522,8.8348,0.6261
2450,-9.6184,0.9963,-1.0346,-1.2522,8.9043,0.6957
2455,-9.5801,0.9963,-1.1879,-0.9739,9.0435,0.6957
2460,-9.6567,0.958,-1.1113,-0.9043,8.9739,0.7652
2465,-9.6184,0.958,-0.958,-0.7652,8.9739,0.6261
2470,-9.6184,0.9197,-1.1113,-0.6261,9.0435,0.6261
2475,-9.6567,0.843,-1.0346,-0.487,8.9043,0.6261
2480,-9.6184,0.958,-1.073,-0.2783,8.8348,0.5565
2485,-9.5418,0.8814,-0.958,-0.2087,8.8348,0.5565
2490,-9.5801,0.9963,-1.1879,0.0,8.7652,0.4174
2495,-9.6184,0.843,-1.1113,-0.0696,8.6957,0.4174
2500,-9.5418,0.9963,-1.1113,0.0696,8.5565,0.4174
2505,-9.6184,0.9197,-0.9963,0.2087,8.5565,0.4174
2510,-9.6567,0.958,-1.0346,0.2087,8.487,0.4174
2515,-9.6184,1.0346,-1.073,0.2087,8.4174,0.487
2520,-9.6184,0.958,-1.073,0.2087,8.3478,0.4174
2525,-9.6184,1.0346,-1.073,0.1391,8.2087,0.4174
2530,-9.5034,0.9963,-1.0346,0.0696,8.1391,0.4174
2535,-9.6184,0.9197,-1.1879,-0.0696,8.2087,0.5565
2540,-9.6567,0.9197,-1.1879,-0.0696,8.2087,0.5565
2545,-9.6567,1.0346,-1.1113,-0.1391,8.1391,0.487
2550,-9.5418,0.843,-1.1113,-0.2087,8.0696,0.487
2555,-9.5801,0.8814,-1.1496,-0.2783,8.0696,0.487
2560,-9.6567,0.843,-1.073,-0.2783,8.0696,0.487
2565,-9.5801,0.8814,-1.1496,-0.3478,8.0,0.6957
2570,-9.6184,0.8814,-1.3029,-0.4174,8.0,0.6957
2575,-9.6567,1.073,-1.073,-0.4174,8.0,0.9043
2580,-9.6567,0.9197,-1.2263,-0.3478,7.9304,0.9043
2585,-9.5418,0.9963,-1.1113,-0.3478,7.8609,0.9043
2590,-9.6184,0.958,-1.1113,-0.3478,7.7913,0.9043
2595,-9.5034,0.9197,-1.3029,-0.4174,7.7913,0.7652
2600,-9.6184,0.958,-1.1496,-0.487,7.7217,0.9043
2605,-9.5034,0.9197,-1.1496,-0.5565,7.7217,1.0435
2610,-9.6567,1.0346,-1.1496,-0.6261,7.6522,1.0435
2615,-9.5418,0.9963,-1.2263,-0.6957,7.6522,0.8348
2620,-9.6567,0.9963,-1.1113,-0.7652,7.7217,0.9043
2625,-9.6567,1.073,-1.073,-0.7652,7.7913,0.9739
2630,-9.5801,1.0346,-1.1879,-0.6957,7.7913,0.9043
2635,-9.6184,0.9197,-1.2646,-0.5565,7.7913,0.9739
2640,-9.5801,1.0346,-1.1879,-0.487,7.7913,1.113
2645,-9.6184,0.958,-1.2646,-0.487,7.7217,1.113
2650,-9.6184,0.958,-1.1879,-0.2783,7.5826,1.0435
2655,-9.6567,0.9963,-1.3795,0.0,7.513,0.9739
2660,-9.6567,0.8814,-1.2263,0.3478,7.3043,1.0435
2665,-9.6567,0.958,-1.3029,0.6957,7.0957,0.9043
2670,-9.5034,0.958,-1.3795,1.113,6.8174,0.8348
2675,-9.6567,1.1113,-1.2263,1.3217,6.5391,0.6957
2680,-9.6184,0.9963,-1.2646,1.5304,6.2609,0.6261
2685,-9.6184,0.9963,-1.1496,1.8087,5.8435,0.7652
2690,-9.6184,0.9963,-1.2263,1.8783,5.6348,0.6957
2695,-9.6567,1.1113,-1.1496,1.9478,5.3565,0.5565
2700,-9.6567,1.0346,-1.2646,1.9478,5.0087,0.487
2705,-9.6184,0.9963,-1.3795,1.8087,4.8696,0.4174
2710,-9.6184,1.1879,-1.1496,1.6696,4.4522,0.4174
2715,-9.5418,1.073,-1.3029,1.6,4.3826,0.2783
2720,-9.6567,1.0346,-1.2263,1.3217,4.1739,0.2783
2725,-9.6567,1.073,-1.2263,1.1826,4.0348,0.2783
2730,-9.5801,0.9963,-1.1496,0.9739,3.8261,0.0696
2735,-9.6184,1.073,-1.2263,0.9043,3.7565,0.1391
2740,-9.695,1.1113,-1.2263,0.8348,3.7565,0.0696
2745,-9.695,1.1113,-1.1496,0.6261,3.6174,0.0
2750,-9.6184,1.073,-1.2646,0.487,3.687,-0.0696
2755,-9.695,0.9197,-1.1879,0.3478,3.687,-0.1391
2760,-9.6184,0.958,-1.2646,0.2087,3.687,-0.1391
2765,-9.6567,0.9963,-1.2646,0.1391,3.687,-0.0696
2770,-9.6184,1.073,-1.1879,0.2087,3.687,-0.2087
2775,-9.5801,0.958,-1.2646,0.1391,3.5478,-0.2087
2780,-9.6567,0.958,-1.3412,0.1391,3.5478,-0.3478
2785,-9.5801,0.9197,-1.1879,0.2087,3.6174,-0.3478
2790,-9.5801,0.9963,-1.3029,0.2087,3.6174,-0.3478
2795,-9.5034,0.958,-0.8814,0.2783,3.4783,-0.3478
2800,-9.6567,0.9963,-1.3412,0.2087,3.5478,-0.487
2805,-9.6184,0.958,-1.2646,0.2783,3.6174,-0.4174
2810,-9.5418,0.9963,-1.1879,0.1391,3.5478,-0.4174
2815,-9.6567,1.073,-1.2263,0.1391,3.4783,-0.4174
2820,-9.5801,0.9963,-1.2263,0.1391,3.5478,-0.4174
2825,-9.695,1.073,-1.1879,0.0696,3.5478,-0.487
2830,-9.6184,1.0346,-1.1879,-0.0696,3.5478,-0.487
2835,-9.5034,1.073,-1.3029,-0.1391,3.6174,-0.6261
2840,-9.5801,0.9963,-1.073,-0.1391,3.6174,-0.6261
2845,-9.6567,1.073,-1.3029,-0.2783,3.687,-0.487
2850,-9.4651,0.843,-1.1879,-0.2783,3.687,-0.5565
2855,-9.6184,0.8814,-1.1496,-0.2783,3.7565,-0.487
2860,-9.5034,0.843,-1.1879,-0.2783,3.7565,-0.4174
2865,-9.5801,0.9197,-1.1496,-0.2783,3.7565,-0.4174
2870,-9.5418,0.8814,-1.2263,-0.2783,3.8261,-0.5565
2875,-9.695,1.0346,-1.2646,-0.2783,3.8957,-0.487
2880,-9.6184,0.9197,-1.073,-0.2087,3.9652,-0.5565
2885,-9.6184,0.958,-1.1496,0.0,3.9652,-0.487
2890,-9.6567,0.9197,-1.2646,0.0,4.0348,-0.4174
2895,-9.5418,1.0346,-1.1113,0.0,4.1043,-0.4174
2900,-9.4651,1.0346,-1.0346,0.0696,4.1739,-0.3478
2905,-9.6184,0.9963,-1.1879,0.0696,4.2435,-0.3478
2910,-9.6184,0.9963,-1.1496,0.0696,4.3826,-0.2087
2915,-9.5418,0.9963,-0.9963,0.1391,4.4522,-0.2087
2920,-9.6184,1.0346,-1.1879,0.0696,4.4522,-0.2087
2925,-9.5801,0.9197,-1.3412,0.0696,4.4522,-0.0696
2930,-9.5801,1.073,-1.1496,0.0,4.6609,-0.0696
2935,-9.6567,1.1113,-1.073,-0.0696,4.8,0.0
2940,-9.5034,0.8047,-0.9963,-0.1391,4.8,0.0
2945,-9.5801,0.9963,-1.1879,-0.1391,5.0087,0.0
2950,-9.6184,0.8814,-1.1113,-0.1391,5.0087,0.0696
2955,-9.6184,0.9963,-1.073,-0.2087,5.1478,0.0696
2960,-9.4651,1.073,-1.1113,-0.2783,5.1478,0.1391
2965,-9.5801,0.958,-1.1496,-0.2087,5.287,0.1391
2970,-9.5418,0.7664,-1.1496,-0.2087,5.4261,0.1391
2975,-9.5801,1.0346,-1.073,-0.2087,5.4261,0.0696
2980,-9.6184,1.073,-1.1879,-0.2087,5.4261,0.0
2985,-9.5801,0.9197,-1.2646,-0.2783,5.4957,0.1391
2990,-9.6184,1.073,-1.1879,-0.3478,5.6348,0.1391
2995,-9.5801,1.0346,-1.1879,-0.487,5.7043,0.2087
