timestamp,accX,accY,accZ,gyroX,gyroY,gyroZ
0,-2.5291,-8.1239,-0.0383,41.8783,-31.0957,8.6957
5,-2.4142,-7.779,-0.115,36.3826,-31.9304,8.8348
10,-2.1076,-7.5874,0.0383,31.7913,-31.7913,7.9304
15,-1.8011,-7.2809,0.115,29.287,-31.0261,6.3304
20,-1.2646,-7.2425,0.0383,29.0783,-29.7739,4.313
25,-1.3412,-7.0126,-0.115,31.0957,-28.5913,2.087
30,-0.5365,-6.6677,-0.3066,34.2957,-27.6174,-0.5565
35,-1.1496,-5.3265,-0.4982,37.6348,-26.7826,-2.8522
40,-0.4215,-4.7517,-0.7664,39.9304,-25.6696,-4.8
45,-0.0383,-4.2152,-0.9963,40.2087,-24.0696,-6.0522
50,0.0,-3.0273,-1.2263,38.4696,-21.8435,-6.9565
55,0.3066,-2.3375,-1.5711,35.0609,-18.9913,-7.7217
60,0.843,-1.5711,-2.1843,30.9565,-15.9304,-8.5565
65,0.4982,-0.9963,-2.4142,26.6435,-12.1043,-9.6
70,1.6095,-0.3832,-2.6058,23.513,-7.5826,-11.2
75,1.8011,-0.1533,-2.8357,21.8435,-2.2261,-13.0783
80,2.4142,0.1916,-2.874,21.7739,3.7565,-15.4435
85,2.874,0.3066,-2.989,22.887,10.2261,-18.0174
90,3.0656,0.3449,-2.9507,24.3478,16.6261,-20.5217
95,3.5638,0.3066,-2.8357,25.2522,22.7478,-23.0261
100,3.0656,-0.115,-2.5675,25.0435,26.9913,-24.9043
105,2.9123,-0.7664,-1.916,23.4435,31.5826,-26.1565
110,2.9507,-1.6478,-1.3029,21.2174,35.687,-26.5043
115,1.8394,-1.6861,-1.5711,19.6174,38.887,-25.5304
120,1.6478,-2.4142,-2.4525,18.087,41.0435,-23.513
125,1.9543,-2.9507,-3.1806,16.6261,41.8087,-21.6348
130,1.7627,-2.4525,-4.905,14.5391,43.1304,-20.1739
135,1.6861,-2.989,-6.6677,10.3652,46.9565,-18.5043
140,1.4562,-3.2189,-8.8137,4.0348,52.9391,-16.6957
145,1.0346,-3.5638,-10.5764,-3.4087,59.3391,-15.3739
150,0.1533,-4.4452,-11.6111,-10.713,63.0261,-14.2609
155,-0.7664,-5.6331,-11.726,-16.4174,60.8696,-11.1304
160,-1.916,-7.2425,-10.6914,-19.7565,51.2696,-3.2
165,-2.9507,-9.5801,-8.5454,-22.1217,35.3391,9.5304
170,-3.1423,-11.6494,-6.4761,-25.6696,16.9739,24.4174
175,-2.9123,-13.1055,-4.4835,-31.513,-0.7652,39.0957
180,-2.4525,-14.1019,-3.2572,-39.0261,-17.3913,53.1478
185,-1.916,-14.2935,-3.1423,-47.7217,-30.6783,65.8087
190,-0.958,-14.2935,-3.0273,-57.113,-38.5391,75.4087
195,0.0766,-14.1785,-3.2189,-64.8348,-40.5565,80.6261
200,0.5748,-14.715,-3.4871,-69.287,-36.7304,81.1826
205,0.2682,-15.7496,-3.1423,-69.7739,-27.7565,78.0522
210,-0.0383,-17.1675,-3.1423,-65.2522,-14.2609,72.0696
215,-0.1916,-18.3554,-3.0273,-54.2609,2.1565,61.3565
220,-0.3449,-19.1602,-2.874,-40.2087,18.7826,45.287
225,-0.4215,-18.4704,-2.8357,-26.1565,32.2087,26.4348
230,-0.1533,-19.0069,-2.9123,-14.0522,40.6957,8.4174
235,-0.2299,-18.3554,-3.4105,-5.2174,44.0348,-6.7478
240,-0.2299,-17.5124,-3.7554,-0.4174,43.2,-17.6
245,-0.2299,-16.746,-4.2152,0.0696,39.9304,-23.513
250,-0.2299,-15.8646,-4.2919,-2.7826,35.4087,-24.2087
255,-0.2299,-15.2132,-4.7517,-8.4174,30.6783,-21.0783
260,-0.115,-14.7533,-4.79,-16.7652,26.2957,-15.513
265,-0.2682,-14.7533,-4.5984,-26.6435,22.9565,-8.3478
270,-0.3832,-15.1748,-4.1003,-35.5478,20.5217,-0.3478
275,-0.6131,-15.8646,-3.9087,-41.6696,19.2,7.4435
280,-0.8047,-16.6693,-3.6404,-43.3391,18.2261,14.0522
285,-0.958,-17.2441,-3.1423,-40.9739,16.9739,18.5739
290,-1.1496,-17.4357,-2.6824,-33.2522,15.7217,20.0348
295,-1.3412,-17.2825,-2.5291,-20.8696,14.7478,18.7826
300,-1.3795,-16.6693,-2.4142,-5.4261,14.2609,16.2087
305,-1.2646,-15.673,-2.1459,11.3391,14.3304,11.4087
310,-1.1496,-14.4084,-1.916,27.7565,14.7478,5.9826
315,-0.958,-12.9139,-1.7627,42.1565,15.9304,0.4174
320,-0.7281,-11.4578,-1.8777,53.0783,17.6,-4.5217
325,-0.5365,-10.1549,-1.5711,59.0609,19.7565,-8.1391
330,-0.2299,-9.0819,-1.3412,59.9652,22.0522,-10.713
335,0.0,-8.0856,-1.3412,56.0696,24.1391,-12.4522
340,0.2682,-7.1659,-1.073,47.513,25.9478,-13.4261
345,0.3832,-6.4761,-0.7664,35.5478,27.7565,-14.0522
350,0.4982,-6.0163,-0.5748,22.3304,29.287,-13.9826
355,0.3832,-5.863,0.0,9.6,30.6087,-13.287
360,0.2682,-5.7097,0.2682,-1.113,31.8609,-11.687
365,0.0,-5.863,0.7664,-8.487,32.9739,-9.2522
370,-0.3449,-6.1313,1.1879,-12.4522,34.2261,-5.913
375,-0.8047,-6.4378,1.4945,-12.2435,35.2696,-2.0174
380,-0.958,-6.6677,1.7627,-8.487,35.9652,2.5043
385,-1.4179,-6.5911,1.6861,-1.5304,36.1043,7.4435
390,-1.5711,-6.6294,1.6861,7.5826,35.4087,12.313
395,-1.8394,-6.3229,1.5711,17.9478,33.6,16.9739
400,-1.8011,-6.0546,1.073,28.6609,31.0957,21.2174
405,-1.9543,-5.4032,0.6514,38.6087,27.3391,25.3913
410,-2.1076,-4.7517,-0.1916,47.0957,22.3304,29.2174
415,-2.1843,-4.0236,-0.6514,53.7043,15.513,32.2783
420,-2.3759,-3.2189,-1.1496,58.087,7.0261,35.0609
425,-2.3375,-2.4142,-1.916,60.7304,-2.6435,37.287
430,-2.1459,-1.8011,-2.2609,61.7739,-12.3826,38.7478
435,-1.9543,-1.1113,-2.6058,61.4261,-21.4261,39.8609
440,-1.7244,-0.6131,-2.9507,59.5478,-29.7043,40.8348
445,-1.5711,-0.115,-3.2189,55.7217,-36.5913,42.087
450,-1.4945,-0.0383,-3.2189,50.3652,-42.7826,43.3391
455,-1.3412,0.0766,-3.1423,44.3826,-48.3478,44.1043
460,-1.1879,0.0,-3.3339,37.9826,-53.0783,44.1739
465,-0.6131,-0.4215,-3.7554,30.6087,-55.5826,42.9913
470,-0.115,-0.9963,-4.9433,21.287,-54.2609,39.7913
475,-0.4215,-1.5328,-6.1696,9.4609,-49.3913,34.8522
480,-0.4982,-1.8394,-7.8173,-1.7391,-41.8783,29.4261
485,-0.1916,-2.2992,-9.2352,-16.6957,-32.6261,23.9304
490,0.2299,-3.2572,-10.1549,-29.2174,-24.8348,17.3217
495,0.6514,-4.4452,-10.6914,-36.7304,-16.0696,10.087
500,0.7664,-6.0163,-10.6914,-39.7913,-7.4435,-0.8348
505,1.1113,-7.6257,-9.5418,-39.7217,0.6957,-13.4957
510,1.1113,-9.4651,-7.8173,-38.2609,7.6522,-26.9913
515,0.7664,-11.1895,-5.5564,-36.1739,14.8174,-40.4174
520,-0.1533,-12.684,-3.3722,-32.5565,24.2783,-52.9391
525,-1.5711,-13.6037,-2.6824,-27.0609,35.5478,-64.3478
530,-2.7207,-13.9869,-2.9123,-23.3043,46.2609,-74.9217
535,-3.7171,-13.6037,-3.5638,-25.7391,53.913,-83.0609
540,-3.9087,-13.4504,-4.2919,-36.1739,56.4174,-88.2087
545,-4.0236,-13.7187,-4.062,-52.313,50.3652,-92.1739
550,-3.8704,-14.4851,-3.7554,-69.2174,35.2,-93.0087
555,-3.947,-15.8646,-3.6404,-81.6696,14.7478,-88.2087
560,-3.8704,-16.8226,-3.6021,-85.1478,-6.6087,-76.8696
565,-3.947,-17.3974,-3.5255,-77.6348,-25.8783,-61.6348
570,-3.7554,-17.6657,-3.4488,-60.8696,-40.0696,-46.3304
575,-3.4105,-17.4741,-3.6021,-39.6522,-47.8609,-33.3217
580,-2.8357,-17.1292,-3.6787,-19.3391,-49.6696,-22.9565
585,-2.5675,-16.4394,-3.9853,-3.4783,-47.3739,-14.5391
590,-2.1076,-15.788,-4.5601,6.4696,-43.5478,-7.8609
595,-1.4562,-14.9066,-5.0966,10.5739,-39.513,-2.5043
600,-0.843,-14.2552,-5.2882,9.3913,-35.4783,1.2522
605,-0.2299,-14.0636,-5.2882,3.9652,-30.7478,3.5478
610,0.115,-14.0252,-5.0966,-4.5217,-25.2522,4.5217
615,0.1916,-14.4084,-4.79,-14.887,-19.4087,4.0348
620,0.115,-15.3664,-3.947,-25.6,-13.7043,2.2957
625,0.0,-16.4394,-3.2955,-34.8522,-8.6261,-0.3478
630,-0.2299,-17.6657,-2.5675,-40.9043,-4.1739,-3.5478
635,-0.3449,-18.8919,-1.916,-42.4348,-0.3478,-6.887
640,-0.5365,-19.62,-1.1879,-38.6783,2.4348,-10.087
645,-0.7664,-19.8882,-0.7664,-30.1913,4.1739,-12.8
650,-0.8814,-19.505,-0.6131,-17.2522,5.0087,-14.7478
655,-1.1879,-18.8153,-0.4982,-1.3217,5.4261,-15.3739
660,-1.3412,-17.8573,-0.6131,15.8609,5.1478,-14.5391
665,-1.6095,-16.4394,-0.6898,32.8348,4.1043,-12.6609
670,-1.6478,-15.0982,-0.6514,44.9391,1.8087,-9.8087
675,-1.6861,-12.9906,-0.5748,57.0435,-1.3913,-6.5391
680,-1.8777,-11.3811,-0.4215,65.0435,-4.5217,-2.9913
685,-1.916,-9.8483,-0.4215,68.8696,-8.6261,0.0
690,-2.0693,-8.6221,-0.1916,68.2435,-12.313,3.4087
695,-2.1459,-7.4725,0.0383,63.6522,-15.4435,6.4696
700,-2.0693,-6.8593,0.3832,56.2783,-17.6696,8.9043
705,-2.1076,-6.3995,0.5748,47.5826,-18.8522,10.087
710,-1.8777,-6.1313,0.9963,38.7478,-18.713,10.5043
715,-1.916,-6.1696,0.9963,31.3043,-17.5304,9.7391
720,-1.5328,-6.1696,1.2646,26.0174,-15.8609,8.0
725,-1.3412,-6.2845,1.3029,23.6522,-14.3304,5.0783
730,-1.1496,-6.1696,1.2646,24.2087,-12.7304,1.5304
735,-0.9197,-5.9013,0.9963,26.6435,-11.0609,-2.0174
740,-0.843,-5.5564,0.5365,29.7043,-9.1826,-5.287
745,-0.5365,-4.9433,0.4215,32.487,-6.6087,-7.9304
750,-0.6514,-4.3685,-0.115,34.0174,-3.4087,-10.2957
755,-0.5748,-3.5255,-0.3832,34.0174,0.1391,-12.4522
760,-0.3449,-2.5675,-0.8047,32.5565,3.9652,-14.4
765,-0.115,-1.916,-1.2263,29.8435,7.9304,-16.487
770,0.0766,-1.3412,-1.5711,26.6435,12.3826,-18.8522
775,0.5365,-0.4598,-2.1076,24.0696,16.9043,-21.287
780,0.8047,0.2299,-2.6058,22.8174,21.4957,-23.6522
785,1.1496,0.4982,-3.0273,22.4696,26.087,-25.3217
790,1.4562,0.958,-3.5255,22.8174,30.1217,-26.5043
795,1.7244,1.2263,-3.8704,23.3739,33.0435,-26.8522
800,1.9543,1.1113,-3.832,23.4435,34.5043,-26.8522
805,1.9927,0.958,-3.7937,22.3304,34.6435,-26.2261
810,1.7244,0.6514,-3.3339,20.0348,34.087,-24.9739
815,1.4562,0.0383,-3.2189,16.8348,32.9739,-23.3043
820,0.9963,-0.8814,-3.1806,13.0087,31.4435,-20.8696
825,1.0346,-1.7244,-3.6404,8.5565,28.313,-18.7826
830,1.2646,-2.5291,-4.1003,3.4087,25.2522,-17.1826
835,1.4179,-2.989,-5.2116,-1.1826,24.5565,-16.0
840,1.4945,-3.2572,-6.4761,-5.8435,27.4783,-14.4
845,1.2646,-3.7171,-8.3155,-10.713,32.9739,-12.6609
850,0.958,-4.6368,-9.2735,-13.8435,38.4,-10.6435
855,0.3449,-5.7097,-9.81,-14.4,39.7913,-7.2348
860,-0.2682,-7.4341,-9.4651,-14.9565,34.8522,-0.3478
865,-1.2263,-9.2735,-8.5454,-18.8522,26.2261,11.7565
870,-1.8394,-11.3428,-7.6641,-27.6174,10.8522,24.487
875,-1.7244,-13.0672,-6.1696,-41.8087,-7.0261,42.3652
880,-1.4945,-14.4468,-4.79,-59.8261,-25.1826,60.0348
885,-1.1879,-14.83,-4.3685,-77.6348,-40.487,75.0609
890,-0.843,-14.3318,-4.062,-91.687,-49.4609,86.4696
895,0.0,-14.4084,-4.1003,-99.7565,-50.8522,93.7043
900,0.2682,-15.0982,-3.832,-101.4957,-45.5652,96.0
905,0.3449,-16.3628,-3.5255,-97.2522,-36.1043,93.4957
910,-0.1533,-17.589,-3.1806,-87.3043,-23.3043,87.0957
915,-0.8047,-18.777,-3.0273,-72.8348,-8.6261,76.3826
920,-1.073,-19.4284,-2.8357,-54.7478,5.913,60.8
925,-0.9963,-19.9649,-2.874,-34.9913,18.5739,41.1826
930,-1.073,-19.8882,-3.2572,-16.6957,27.6174,20.3826
935,-0.6514,-19.6966,-3.1423,-1.9478,32.487,1.8087
940,-0.5365,-18.9686,-3.5255,7.7217,34.3652,-12.4522
945,-0.3449,-18.0872,-3.9853,12.2435,34.6435,-21.4957
950,-0.0766,-17.0909,-4.1386,12.313,33.8783,-24.8348
955,0.0,-16.2478,-4.2152,7.7217,32.6957,-23.2348
960,0.0,-15.5197,-4.2152,-1.2522,31.513,-17.8087
965,0.0383,-15.4814,-4.062,-12.5913,30.3304,-10.5043
970,0.1533,-15.3664,-3.7171,-23.9304,29.7739,-1.9478
975,-0.0766,-15.8263,-3.3339,-33.3217,29.5652,7.4435
980,-0.1916,-16.5161,-2.9123,-38.4,29.2174,16.2783
985,-0.5748,-16.7843,-2.4142,-37.4261,28.9391,23.2348
990,-0.8814,-16.631,-2.1076,-30.4696,29.4261,27.4783
995,-1.0346,-16.2478,-1.9927,-18.9217,29.9826,28.6609
1000,-1.1496,-15.4814,-1.6095,-4.6609,31.0261,26.8522
1005,-1.3029,-14.4851,-1.4562,10.713,31.6522,22.5391
1010,-1.2263,-13.3738,-1.3412,25.1826,31.7217,16.3478
1015,-1.1879,-12.2242,-1.3795,37.3565,31.3043,9.3217
1020,-0.8814,-11.1129,-1.2646,46.4696,30.7478,2.087
1025,-0.6514,-9.7334,-1.2646,52.2435,30.3304,-4.8
1030,-0.3066,-8.6987,-0.958,54.1217,30.2609,-10.713
1035,0.0383,-7.4725,-0.7664,52.313,30.4,-15.7217
1040,0.2299,-6.8593,-0.9963,46.887,31.0261,-19.2696
1045,0.4598,-6.2462,-0.6898,38.1217,31.8609,-21.4957
1050,0.6898,-5.8247,-0.4982,26.7826,33.3913,-21.913
1055,0.6898,-5.4032,-0.115,16.3478,35.2696,-20.3826
1060,0.4215,-5.4415,0.1533,2.4348,37.6348,-17.2522
1065,0.3066,-5.7097,0.6898,-10.5739,39.7217,-12.5913
1070,0.0383,-6.0163,0.9963,-20.6609,42.2261,-8.3478
1075,-0.3832,-6.3995,1.3412,-26.7826,43.6174,-2.6435
1080,-0.7281,-6.7827,1.5328,-28.5217,43.8957,3.4087
1085,-1.2263,-7.0509,1.4562,-24.5565,42.5739,9.1826
1090,-1.1879,-7.0126,1.5711,-15.5826,40.4174,14.2609
1095,-1.1879,-6.7061,1.2646,-2.713,38.1913,18.3652
1100,-1.3029,-6.2079,0.7281,12.2435,36.1043,21.6348
1105,-1.3412,-5.5181,0.1533,27.4087,33.3217,24.487
1110,-1.3412,-4.6751,-0.6131,41.1826,29.287,26.713
1115,-1.3029,-3.6404,-1.3029,52.4522,23.513,28.6609
1120,-1.4179,-2.6824,-1.6861,60.1739,16.2783,29.9826
1125,-1.3412,-1.916,-2.2226,63.6522,8.2087,30.887
1130,-1.3412,-0.9197,-2.5675,62.4696,-0.487,31.513
1135,-1.3412,-0.0383,-2.874,56.8348,-9.1826,32.0
1140,-1.1496,0.4598,-2.8357,47.513,-17.5304,32.3478
1145,-1.2646,0.8047,-3.1806,35.9652,-25.0435,32.9043
1150,-1.0346,0.8047,-2.989,24.4174,-31.9304,33.5304
1155,-0.6898,0.5748,-2.989,14.8174,-37.913,33.8087
1160,-0.3449,0.0766,-3.2189,7.5826,-42.2261,32.7652
1165,-0.3449,-0.5365,-3.4488,2.2957,-44.1739,29.9826
1170,-0.2299,-0.9197,-3.9087,-1.2522,-43.8957,25.8087
1175,-0.4215,-1.1879,-4.9433,-4.3826,-41.6696,20.8696
1180,-0.6131,-1.3795,-6.2462,-8.487,-37.913,16.2087
1185,-0.3449,-1.5711,-7.6641,-13.287,-34.0174,11.687
1190,0.115,-1.7627,-8.5071,-18.2261,-30.9565,6.9565
1195,0.4215,-2.1459,-9.4268,-23.1652,-28.2435,0.8348
1200,0.5365,-2.8357,-9.5418,-29.913,-24.1391,-6.7478
1205,0.4598,-4.2536,-9.3502,-39.8609,-16.7652,-16.0696
1210,0.3832,-6.1696,-8.4305,-52.4522,-6.887,-27.4087
1215,-0.0766,-8.3155,-6.936,-65.6696,3.9652,-39.7913
1220,-1.1113,-10.6147,-5.4415,-77.0783,14.1913,-52.1043
1225,-2.4142,-12.684,-4.6368,-85.3565,23.2348,-63.513
1230,-3.4488,-14.2552,-4.2919,-92.5217,32.9043,-72.9739
1235,-4.4068,-15.0216,-4.6751,-101.4261,44.2435,-80.6261
1240,-4.905,-15.5964,-5.2116,-113.3217,55.8609,-86.887
1245,-4.8284,-16.4011,-5.2882,-126.0522,63.4435,-92.5913
1250,-5.0966,-17.7423,-4.9433,-134.2609,63.7913,-96.4174
1255,-5.2116,-18.8919,-4.5601,-133.4957,56.1391,-94.5391
1260,-5.1732,-20.2331,-4.1003,-120.2783,40.7652,-84.7304
1265,-4.8667,-21.3444,-3.4488,-94.887,24.7652,-68.7304
1270,-4.5218,-21.8809,-3.2189,-61.7043,4.0348,-54.2609
1275,-4.1386,-21.8426,-3.4105,-27.6174,-14.2609,-36.0348
1280,-3.5638,-21.2678,-4.1003,0.0696,-27.6174,-18.9217
1285,-3.1423,-20.0798,-4.5218,17.8783,-36.5913,-4.5913
1290,-2.2226,-18.3938,-5.2116,26.8522,-42.7826,6.4696
1295,-1.2263,-17.0142,-5.4798,29.4261,-47.4435,14.4
1300,-0.3449,-15.9413,-5.6714,28.313,-50.8522,19.2
1305,0.1916,-14.8683,-5.6714,24.8348,-52.3826,21.7739
1310,0.4215,-14.2552,-5.7097,19.8957,-51.0609,21.5652
1315,0.3832,-13.9103,-5.4415,12.8,-47.1652,18.2261
1320,0.115,-13.9869,-4.79,4.2435,-41.3913,11.8261
1325,-0.115,-14.4084,-4.062,-3.9652,-35.3391,3.2696
1330,-0.4982,-14.715,-3.2189,-10.087,-29.8435,-5.7739
1335,-0.6898,-15.2132,-2.4908,-12.8,-25.5304,-13.7739
1340,-0.843,-15.558,-1.916,-12.2435,-22.2609,-19.687
1345,-1.1113,-15.4814,-1.6095,-8.3478,-20.0348,-23.3739
1350,-1.4562,-15.2515,-1.3412,-2.0174,-18.713,-24.6957
1355,-1.8777,-14.6384,-1.2646,5.7043,-17.8783,-23.7913
1360,-2.0693,-14.1019,-0.958,13.8435,-17.9478,-21.7043
1365,-2.2992,-13.2205,-1.1113,21.8435,-18.7826,-18.4348
1370,-2.4908,-12.1475,-0.8814,29.1478,-20.9391,-14.1913
1375,-2.4908,-11.1512,-0.7281,35.2,-23.6522,-9.7391
1380,-2.6058,-10.3082,-0.6514,39.8609,-26.4348,-5.8435
1385,-2.6058,-9.4651,-0.7281,42.5043,-28.7304,-2.9913
1390,-2.6441,-8.6604,-0.5748,42.713,-29.9826,-0.6261
1395,-2.4908,-8.0856,-0.6131,40.5565,-30.4,0.9043
1400,-2.4908,-7.6641,-0.4982,37.0087,-30.1217,1.8087
1405,-2.0693,-7.7024,-0.3066,33.1826,-29.7043,2.087
1410,-1.7627,-7.3958,-0.115,30.4,-29.287,1.9478
1415,-1.3412,-7.1659,-0.0766,29.4957,-28.6609,1.4609
1420,-0.9963,-6.9743,-0.115,30.1913,-27.8261,0.487
1425,-0.6131,-6.5145,0.0766,32.0,-26.2957,-0.6957
1430,-0.1916,-5.9396,-0.115,34.2261,-24.0696,-1.6
1435,0.0383,-5.3648,-0.2682,35.7565,-20.8,-2.5043
1440,0.2682,-4.6368,-0.5365,35.7565,-16.3478,-3.2
1445,0.4598,-3.9853,-0.7664,33.8783,-11.2,-3.8957
1450,0.6131,-2.989,-0.9963,30.887,-5.5652,-4.5913
1455,0.9963,-2.1459,-1.4179,25.3913,0.487,-5.5652
1460,1.2263,-1.4179,-1.5711,19.0609,5.7043,-6.9565
1465,1.4945,-0.843,-1.7627,12.6609,12.4522,-8.2087
1470,1.7627,-0.4215,-1.6861,7.5826,18.713,-9.9478
1475,2.031,0.0766,-1.8011,4.4522,24.1391,-11.4783
1480,2.2226,0.3066,-1.8777,3.4783,28.5913,-12.5913
1485,2.3759,0.4215,-1.9543,4.7304,32.1391,-13.1478
1490,2.4525,0.5748,-2.1843,7.6522,34.2957,-13.2174
1495,2.2226,0.6131,-2.3375,11.1304,35.1304,-13.0087
1500,1.916,0.3832,-2.4908,14.6087,34.9217,-12.5913
1505,1.6095,0.3449,-2.5291,18.2957,33.6696,-12.1739
1510,1.4179,0.0383,-2.5291,22.1217,31.5826,-11.7565
1515,1.2646,-0.4982,-3.1039,25.0435,29.1478,-11.4783
1520,1.1879,-0.6898,-3.9853,26.1565,27.4087,-11.2696
1525,1.4179,-0.9197,-5.02,24.5565,28.1043,-11.4087
1530,1.3412,-0.9197,-6.3612,20.0348,32.487,-11.2696
1535,1.2646,-0.843,-7.894,12.0348,40.7652,-10.9217
1540,1.073,-0.843,-9.2735,0.487,50.8522,-10.713
1545,0.4982,-1.2646,-10.5764,-15.3739,59.4087,-10.0174
1550,-0.2299,-2.4142,-10.9979,-34.3652,63.3043,-7.0261
1555,-1.4179,-4.4452,-10.4998,-52.313,59.4783,-0.3478
1560,-2.4525,-7.3575,-9.3118,-65.7391,47.3043,11.2696
1565,-2.6824,-10.9596,-8.0856,-74.713,28.0348,26.9913
1570,-2.4908,-14.4468,-7.0893,-82.6435,3.5478,44.5913
1575,-2.1076,-17.0909,-6.5528,-93.0087,-23.0261,62.1913
1580,-1.3795,-18.547,-5.9013,-107.8957,-48.5565,77.287
1585,-0.5748,-18.9686,-5.1732,-122.4348,-69.6348,87.8609
1590,0.4215,-19.1602,-4.2536,-127.3739,-83.9652,93.1478
1595,1.6095,-19.3901,-3.7937,-116.2435,-88.0,93.6348
1600,1.6861,-20.2331,-3.7937,-88.8348,-78.3304,87.0261
1605,1.3795,-20.5014,-3.2572,-51.5478,-55.0261,73.4609
1610,0.8047,-20.1182,-2.7207,-15.3043,-23.3739,54.887
1615,0.6131,-19.3901,-2.2992,10.5043,8.487,34.087
1620,0.2682,-18.2021,-2.2226,23.2348,34.713,14.887
1625,0.6131,-16.8609,-2.5291,25.3913,52.8,0.5565
1630,1.073,-15.4814,-3.2955,20.6609,62.9565,-7.5826
1635,1.1496,-14.4084,-4.6751,12.313,65.7391,-10.0174
1640,1.3795,-14.2552,-5.5181,3.2696,63.0261,-7.513
1645,1.3412,-14.3701,-6.3612,-9.8783,57.8087,-1.8783
1650,1.073,-14.9066,-6.7444,-22.9565,53.3565,5.4261
1655,0.4598,-15.7496,-6.936,-34.7826,48.5565,12.5217
1660,-0.1916,-16.5544,-6.5911,-43.9652,44.3826,16.9739
1665,-0.7664,-17.1675,-5.9396,-48.2783,41.1826,20.6609
1670,-1.2646,-17.6273,-5.1732,-46.6087,38.9565,22.3304
1675,-1.7244,-17.7423,-4.5218,-39.2348,37.7739,22.2609
1680,-2.1076,-17.5124,-4.3302,-27.7565,36.9391,20.5913
1685,-2.0693,-17.0142,-3.5255,-14.1913,35.8261,18.2261
1690,-1.916,-16.2478,-3.1423,-1.113,33.9478,15.5826
1695,-1.916,-15.4431,-2.8357,9.9478,31.2348,12.313
1700,-1.8394,-14.0252,-2.6058,18.5043,28.1043,9.0435
1705,-1.7244,-12.799,-2.2992,24.6957,25.113,6.5391
1710,-1.4179,-11.726,-2.1076,28.5913,22.6783,4.7304
1715,-1.0346,-10.6147,-1.9543,30.1913,21.5652,3.4783
1720,-0.5365,-9.5034,-1.9927,29.7739,21.913,2.713
1725,-0.4598,-8.6987,-1.6861,26.9217,23.6522,2.087
1730,-0.3066,-7.7024,-1.6095,22.2609,25.8087,1.9478
1735,-0.2299,-7.0509,-1.6095,16.2087,27.9652,2.2261
1740,0.0,-6.5911,-1.4945,9.1826,29.9826,2.9217
1745,-0.0766,-6.2462,-1.1113,1.8783,31.513,4.1739
1750,-0.4215,-6.2079,-0.8047,-5.0783,32.8348,6.0522
1755,-0.7664,-6.3229,-0.2682,-10.5043,34.3652,8.5565
1760,-0.8047,-6.5911,0.2299,-13.6348,36.313,11.8261
1765,-1.0346,-6.7061,0.6514,-13.6348,38.0522,15.0957
1770,-1.2646,-6.7444,0.958,-10.3652,39.513,17.8087
1775,-1.3795,-6.7827,1.1496,-4.5217,40.4174,20.1043
1780,-1.4945,-6.5145,1.073,3.0609,40.5565,21.8435
1785,-1.5711,-6.2079,1.0346,11.2696,39.8609,22.9565
1790,-1.4179,-5.8247,0.7281,19.5478,38.1913,23.1652
1795,-1.5328,-5.1732,0.4215,27.3391,35.5478,22.7478
1800,-1.6095,-4.2919,-0.3832,34.0174,31.6522,22.4696
1805,-1.6478,-3.3722,-0.7664,39.7913,26.087,22.2609
1810,-1.6861,-2.6824,-1.3029,44.5913,18.9217,21.913
1815,-1.6861,-2.1076,-1.6861,48.6957,10.2261,21.287
1820,-1.7627,-1.5711,-2.2609,51.8261,0.6261,20.6609
1825,-1.6478,-1.073,-2.4142,53.0087,-9.0435,20.2435
1830,-1.6095,-0.7281,-2.7591,52.5217,-18.2957,20.1043
1835,-1.6478,-0.4598,-3.0273,50.087,-26.3652,20.7304
1840,-1.4562,-0.4598,-2.7974,46.0522,-32.8348,21.6348
1845,-1.3412,-0.6514,-2.874,42.1565,-37.4957,22.7478
1850,-1.1879,-0.9963,-2.7591,37.0087,-39.9304,23.3739
1855,-1.1113,-1.1879,-2.5675,32.4174,-40.6261,23.0261
1860,-0.843,-1.4945,-3.0273,28.4522,-39.9304,21.5652
1865,-0.6898,-1.5328,-3.7937,25.4609,-37.9826,19.8957
1870,-0.8047,-1.6095,-4.9433,22.4,-35.1304,17.0435
1875,-1.073,-1.5711,-6.3229,18.1565,-31.513,14.0522
1880,-0.958,-1.3795,-8.1239,12.1043,-26.8522,10.8522
1885,-0.8047,-1.3795,-10.0399,2.2261,-20.2435,7.2348
1890,-0.3066,-1.5328,-11.6877,-13.287,-10.2957,2.2957
1895,0.2682,-2.1076,-12.3391,-32.487,1.7391,-4.4522
1900,0.7281,-3.8704,-12.0326,-49.6,12.5913,-13.5652
1905,1.7244,-6.9743,-10.8063,-60.5913,20.0348,-24.4174
1910,1.7244,-9.695,-9.0053,-64.6261,24.6261,-35.8957
1915,1.1496,-12.4924,-7.4341,-63.0957,28.1043,-46.4
1920,0.0383,-14.9832,-6.3229,-60.1739,30.4696,-55.2348
1925,-1.7244,-16.7843,-6.1696,-62.4696,33.6696,-62.2609
1930,-3.1806,-17.6657,-6.0546,-74.5739,39.9304,-66.6435
1935,-4.1386,-18.1255,-5.6331,-92.7304,48.8348,-68.3826
1940,-4.8284,-18.5087,-4.8284,-106.087,55.7217,-69.2174
1945,-5.3648,-18.8536,-4.0236,-103.3043,56.1391,-69.4261
1950,-5.3265,-19.2368,-3.3339,-79.8609,48.1391,-65.6696
1955,-5.0966,-19.2751,-2.7207,-42.8522,31.7913,-57.0435
1960,-4.5601,-18.8919,-2.2226,-5.2174,10.4348,-46.1217
1965,-4.062,-17.7423,-2.2609,24.3478,-10.0174,-35.687
1970,-3.4871,-16.2861,-2.7974,42.713,-25.5304,-27.2
1975,-3.1806,-14.4851,-3.5255,50.2261,-35.3391,-20.6609
1980,-2.6058,-12.7223,-4.2919,49.6,-40.9043,-15.0261
1985,-1.9927,-11.4195,-5.2882,42.713,-44.1043,-9.3217
1990,-1.1496,-10.6914,-6.1313,31.1652,-45.9826,-3.9652
1995,-0.4982,-10.4998,-6.4378,16.9739,-45.7739,0.3478
2000,-0.0766,-11.0363,-6.4378,2.087,-43.1304,2.3652
2005,0.4598,-12.0709,-6.1696,-11.1304,-38.0522,2.1565
2010,0.3066,-13.0672,-5.748,-21.7739,-31.4435,-0.5565
2015,0.0766,-14.0636,-5.1349,-28.9391,-24.6261,-4.8696
2020,-0.1533,-14.9832,-4.2152,-32.487,-18.713,-9.6696
2025,-0.3832,-15.9029,-3.5638,-32.5565,-14.1217,-14.0522
2030,-0.8047,-16.5927,-3.0656,-29.4261,-10.713,-17.6
2035,-1.1496,-17.0525,-2.4142,-24.9043,-7.7217,-20.1043
2040,-1.4945,-17.1292,-1.9543,-17.6,-5.6348,-21.0783
2045,-1.9927,-17.2058,-1.8394,-9.3217,-3.4783,-21.0783
2050,-2.4142,-16.8993,-1.3795,0.0696,-2.2261,-19.9652
2055,-2.6441,-16.2095,-1.1879,10.2261,-2.3652,-17.6
2060,-2.8357,-15.4814,-0.958,21.0087,-3.8261,-14.6087
2065,-3.0273,-14.5234,-0.843,31.2348,-6.2609,-11.687
2070,-3.2189,-13.6804,-0.8047,40.2783,-9.9478,-9.113
2075,-3.3339,-12.4924,-0.6898,46.8174,-14.4,-7.0957
2080,-3.2955,-11.6494,-0.7664,50.5043,-18.9913,-5.7043
2085,-3.2955,-10.6914,-0.7281,50.8522,-23.4435,-4.8696
2090,-3.1423,-10.0016,-0.6514,48.6261,-26.9913,-4.8
2095,-2.9507,-9.2352,-0.4598,44.6609,-29.4957,-5.287
2100,-2.5291,-8.6604,-0.3066,39.9304,-30.9565,-6.6087
2105,-1.9927,-8.2005,0.1916,35.5478,-31.513,-8.7652
2110,-1.7627,-7.6641,0.2682,32.487,-30.887,-11.1304
2115,-1.1113,-7.2809,0.4982,30.9565,-29.8435,-13.913
2120,-0.7281,-6.936,0.5748,31.0957,-28.3826,-16.6957
2125,-0.1533,-6.4378,0.6131,32.487,-26.5739,-19.687
2130,0.1916,-5.7864,0.3832,34.087,-24.487,-22.0522
2135,0.5748,-4.905,0.4598,35.0609,-22.0522,-23.7217
2140,0.8814,-4.2152,0.2299,34.8522,-19.3391,-24.9043
2145,1.1496,-3.3339,-0.2299,33.0435,-16.3478,-25.1826
2150,1.2263,-2.4908,-0.6131,29.7043,-12.4522,-24.6261
2155,1.1496,-1.5711,-0.8814,24.7652,-7.7217,-23.5826
2160,1.2263,-1.1113,-1.3412,18.9913,-1.9478,-22.7478
2165,1.3412,-0.6131,-1.7244,13.7739,4.313,-21.9826
2170,1.4945,-0.1916,-2.1843,10.3652,10.713,-21.287
2175,1.6095,0.3066,-2.7591,9.3217,16.7652,-20.5217
2180,1.8394,0.3449,-3.1039,10.4348,22.1913,-20.0348
2185,1.8394,0.3832,-3.4488,12.8696,26.7826,-19.2696
2190,1.8777,0.3449,-3.6021,15.6522,30.4,-18.0174
2195,1.8777,0.2682,-3.7937,18.087,32.6957,-16.8348
2200,1.7244,0.0383,-3.7171,19.3391,33.1826,-15.7217
2205,1.4179,-0.3449,-3.4871,19.7565,32.5565,-14.7478
2210,0.9963,-0.8047,-3.1423,20.4522,31.3739,-13.7739
2215,0.5748,-1.0346,-3.2189,22.2609,29.8435,-12.4522
2220,0.4215,-1.3029,-3.6404,24.4174,28.3826,-11.2
2225,0.6514,-1.6095,-4.5984,25.6,27.6174,-10.1565
2230,0.8814,-1.4945,-6.1313,24.6261,29.4261,-8.6957
2235,0.6131,-1.1879,-8.2772,19.3391,33.6696,-6.6087
2240,0.4982,-1.3029,-10.3848,8.9739,41.8783,-4.6609
2245,0.115,-1.8394,-11.6494,-4.1043,50.1565,-2.6435
2250,-0.115,-3.1423,-12.2242,-15.4435,55.1652,-1.8087
2255,-0.7664,-5.1349,-11.3428,-21.4957,54.7478,0.2783
2260,-1.9927,-7.3192,-9.8483,-21.4261,46.4696,7.1652
2265,-2.7207,-10.0399,-8.1239,-19.0609,29.5652,19.8957
2270,-2.989,-12.6457,-6.2845,-20.8,7.2348,36.7304
2275,-2.6824,-14.83,-5.02,-29.8435,-15.2348,54.4
2280,-2.1076,-16.2095,-4.0236,-46.3304,-34.713,71.0957
2285,-0.958,-16.3628,-3.2955,-68.1739,-49.1826,83.9652
2290,0.3449,-16.2861,-2.6824,-90.1565,-58.3652,91.1304
2295,1.7244,-16.2478,-2.4142,-104.2783,-62.7478,92.4522
2300,2.4525,-17.0525,-2.5675,-103.6522,-60.5913,90.3652
2305,1.8394,-18.5854,-3.0273,-87.7217,-49.0435,84.6609
2310,1.1496,-19.6583,-3.3722,-61.1478,-28.1739,74.087
2315,0.4598,-20.2331,-3.6021,-31.3739,-2.2261,57.2522
2320,0.0,-19.9649,-3.7171,-6.8174,23.0957,36.3826
2325,-0.2682,-19.2368,-4.1386,9.8087,42.7826,15.9304
2330,-0.4982,-18.4321,-4.79,19.0609,54.7478,-1.0435
2335,-0.4982,-17.1675,-5.2116,22.5391,59.4087,-13.2174
2340,-0.1533,-16.3245,-5.5948,22.0522,58.9913,-18.8522
2345,-0.0383,-15.7113,-5.6331,18.0174,55.9304,-18.1565
2350,0.0,-15.2132,-5.5181,10.4348,52.4522,-12.5913
2355,-0.1916,-15.2515,-5.4032,-0.1391,49.4609,-4.5217
2360,-0.3449,-15.9029,-5.4798,-12.0348,46.5391,4.313
2365,-0.6514,-16.5161,-4.9433,-23.4435,43.4087,12.6609
2370,-0.9963,-17.0525,-4.3302,-31.7217,40.2783,19.4783
2375,-1.4945,-17.704,-4.0236,-35.1304,37.1478,24.2087
2380,-1.9927,-18.0105,-3.3339,-33.0435,34.2261,26.6435
2385,-2.2992,-18.0105,-2.989,-25.3913,30.887,26.087
2390,-2.4525,-17.5124,-2.7207,-13.0783,27.2696,23.0261
2395,-2.5291,-17.0142,-2.5675,2.5739,23.5826,18.2957
2400,-2.4908,-16.0562,-2.2609,19.4783,19.9652,12.5217
2405,-2.4525,-14.83,-2.3375,36.4522,16.6261,6.4
2410,-2.1459,-13.0289,-1.8011,48.5565,14.0522,0.487
2415,-1.7244,-11.8027,-1.7244,60.8,12.6609,-4.4522
2420,-1.5711,-10.4998,-1.5328,68.8696,12.1043,-8.0696
2425,-1.1879,-9.3118,-1.4562,72.487,12.1043,-10.2957
2430,-0.843,-8.2772,-1.2646,71.2348,12.7304,-12.4522
2435,-0.3832,-7.2425,-1.1496,65.1826,13.7043,-14.4
2440,-0.0383,-6.5145,-0.9963,55.9304,14.8174,-15.9304
2445,0.1533,-5.748,-0.5365,44.6609,15.8609,-16.9043
2450,0.2682,-5.2499,-0.3066,32.9739,16.8348,-17.3217
2455,0.3066,-4.9433,0.0766,20.8,18.1565,-16.2783
2460,0.1533,-4.6751,0.4982,9.8087,20.0348,-13.913
2465,0.0383,-4.9433,0.9963,1.1826,22.4,-9.8783
2470,-0.2682,-5.0583,1.3795,-3.8261,25.2522,-5.4261
2475,-0.4215,-5.1732,1.6861,-4.8696,28.2435,-0.2783
2480,-0.7664,-5.4032,1.6861,-2.1565,30.6087,5.0783
2485,-1.0346,-5.2882,1.6861,3.3391,31.9304,10.7826
2490,-1.1113,-5.0966,1.6095,10.7826,32.3478,16.0696
2495,-1.1879,-4.9433,1.0346,19.1304,31.3739,20.5217
2500,-1.3795,-4.4452,0.3832,27.4087,28.8696,24.2087
2505,-1.4945,-4.0236,-0.3449,34.9217,24.3478,26.9913
2510,-1.5328,-2.989,-1.2646,41.2522,17.9478,29.1478
2515,-1.4945,-2.2992,-1.6861,46.4696,10.0174,30.2609
2520,-1.6478,-1.6478,-2.4142,50.2957,1.0435,30.7478
2525,-1.7244,-0.8047,-3.1806,52.6609,-8.6957,30.4696
2530,-1.5711,-0.3832,-3.4488,52.8,-18.4348,30.4696
2535,-1.6478,-0.0383,-3.7937,50.5739,-27.6174,30.1913
2540,-1.5711,0.3832,-4.2152,46.1217,-35.8261,30.6087
2545,-1.3795,0.0383,-4.062,40.487,-42.6435,31.4435
2550,-1.1113,-0.1916,-4.1003,34.5739,-47.7217,31.7217
2555,-0.6514,-0.7281,-4.1386,29.0087,-50.1565,30.6087
2560,0.0383,-1.4562,-4.4068,23.0261,-49.3217,27.2
2565,0.115,-1.8394,-5.02,15.8609,-45.0783,21.7739
2570,0.1916,-2.1076,-6.0929,6.7478,-39.0957,15.3043
2575,0.4598,-2.4142,-7.3958,-4.7304,-32.6261,9.0435
2580,0.9197,-2.7591,-8.737,-18.0174,-25.113,2.9913
2585,1.3795,-3.2189,-9.7717,-30.3304,-17.2522,-3.8957
2590,1.7627,-4.3302,-10.3082,-38.8174,-9.8087,-12.1043
2595,1.7244,-5.863,-10.1549,-41.8783,-2.6435,-21.7739
2600,1.5711,-7.7407,-9.3885,-41.8783,4.5217,-33.6
2605,1.3412,-9.8483,-7.6257,-40.4174,10.2261,-47.6522
2610,0.5748,-12.0709,-5.2116,-39.7217,17.7391,-62.2609
2615,-0.3066,-13.2205,-3.947,-39.8609,27.5478,-72.8348
2620,-1.5328,-13.757,-3.6021,-41.2522,39.8609,-83.8261
2625,-2.4908,-13.757,-4.1769,-47.3043,53.1478,-91.4783
2630,-3.1423,-13.6037,-4.4068,-60.0348,64.9043,-95.3739
2635,-3.6021,-14.1019,-4.1003,-76.0348,71.5826,-96.6261
2640,-4.3685,-15.1365,-3.2955,-89.5304,70.0522,-96.0
2645,-4.9433,-16.3628,-2.4908,-93.7043,59.0609,-92.3826
2650,-4.905,-17.2058,-2.1076,-85.1478,39.4435,-83.2696
2655,-4.7517,-17.704,-2.1459,-65.6696,15.4435,-68.8
2660,-4.4452,-17.8573,-2.3759,-40.0696,-8.0,-51.5478
2665,-4.4835,-17.5124,-2.7591,-13.287,-27.0609,-34.2957
2670,-4.2536,-16.8993,-3.1423,10.2957,-40.487,-18.713
2675,-3.947,-15.8263,-3.6787,27.2,-48.6261,-6.0522
2680,-3.2189,-14.6767,-4.2536,36.1043,-53.1478,3.2696
2685,-2.6058,-13.4888,-4.9433,37.3565,-55.6522,9.8087
2690,-1.8394,-12.4924,-5.2499,32.6261,-56.7652,14.6087
2695,-1.073,-12.1475,-5.4798,23.8609,-56.487,17.3217
2700,-0.6131,-11.9176,-5.4415,12.9391,-54.6087,18.3652
2705,-0.2682,-12.1859,-5.2116,1.113,-51.1304,17.8087
2710,-0.3449,-13.0672,-5.0966,-10.8522,-45.9826,15.1652
2715,-0.4982,-14.2168,-4.1769,-22.4696,-39.7217,10.6435
2720,-0.7281,-15.2898,-3.5255,-32.9739,-32.7652,4.8696
2725,-0.8047,-16.7077,-2.8357,-40.7652,-26.2957,-1.3913
2730,-1.0346,-17.589,-2.2992,-44.313,-20.7304,-7.513
2735,-0.9963,-18.4321,-1.6095,-42.8522,-16.6957,-12.3826
2740,-1.1496,-18.8919,-0.958,-35.7565,-13.913,-15.513
2745,-1.4179,-18.8153,-0.8047,-23.5826,-12.1043,-16.5565
2750,-1.5328,-18.547,-0.7664,-7.7913,-10.9913,-15.8609
2755,-1.6861,-17.8573,-0.4982,9.7391,-10.9913,-13.4261
2760,-1.8394,-16.8226,-0.4982,27.2696,-12.0348,-10.3652
2765,-1.9927,-15.4814,-0.5748,42.7826,-14.6783,-6.9565
2770,-2.1076,-14.2552,-0.4215,54.4696,-18.1565,-3.8957
2775,-2.2609,-12.8373,-0.4215,61.2174,-21.8435,-1.2522
2780,-2.3375,-11.5344,-0.3449,62.4,-25.5304,1.1826
2785,-2.4908,-10.3848,-0.1916,58.087,-29.0087,2.9913
2790,-2.6824,-9.3118,-0.115,51.1304,-32.1391,4.1043
2795,-2.7974,-8.3921,0.0,39.3043,-34.3652,3.8261
2800,-2.874,-8.0473,-0.1916,25.8783,-35.4783,2.0174
2805,-2.5675,-7.5491,-0.2682,12.8,-35.6174,-1.1826
2810,-2.3759,-7.3958,-0.1916,2.6435,-34.4348,-3.9652
2815,-2.1459,-7.1659,-0.2682,-3.5478,-32.1391,-7.0957
2820,-1.916,-6.821,-0.4982,-5.1478,-29.3565,-9.1826
2825,-1.3795,-6.5528,-0.5365,-2.3652,-26.5043,-10.4348
2830,-1.2263,-5.8247,-0.7281,3.2696,-23.5826,-10.9217
2835,-0.9963,-5.1732,-1.0346,10.4348,-20.313,-11.1304
2840,-0.7281,-4.4068,-1.1879,17.7391,-17.1826,-11.2
2845,-0.3832,-3.5638,-1.5711,24.2087,-14.3304,-11.4087
2850,-0.115,-2.6441,-1.8394,29.3565,-11.5478,-11.6174
2855,0.2299,-1.9543,-2.1459,32.2783,-8.0696,-12.1043
2860,0.4215,-1.0346,-2.3375,33.2522,-3.8957,-12.9391
2865,0.9197,-0.2299,-2.6441,33.1826,0.9043,-13.913
2870,1.1496,0.4598,-2.7591,32.2783,5.8435,-14.8174
2875,1.4179,1.073,-2.6441,30.4696,10.087,-15.3739
2880,1.916,1.4562,-2.7974,27.9652,13.4957,-15.7217
2885,2.2609,1.7244,-2.7974,24.487,15.513,-15.9304
2890,2.4142,1.7627,-2.874,19.8957,16.9043,-15.7217
2895,2.4525,1.3029,-2.8357,15.1652,17.8087,-15.1652
2900,2.4525,0.6898,-2.4908,10.8522,18.5043,-14.887
2905,2.1843,0.1916,-2.2226,7.3739,18.8522,-14.5391
2910,1.8394,-0.5365,-2.1843,5.3565,18.5739,-14.1913
2915,1.8777,-1.5711,-2.3759,4.5217,17.9478,-14.1913
2920,1.9927,-2.1076,-3.0656,3.8957,17.3217,-14.4696
2925,2.2992,-2.4525,-3.832,2.6435,18.0174,-14.6783
2930,2.4142,-2.7591,-5.0966,0.1391,21.3565,-14.4696
2935,2.2992,-2.6824,-6.3612,-4.2435,27.7565,-13.4957
2940,1.9543,-2.7207,-8.1622,-12.1043,36.1739,-11.6174
2945,1.3795,-3.3339,-9.6567,-24.6957,44.8696,-8.9043
2950,0.4982,-4.3685,-10.2698,-40.1391,51.6174,-4.7304
2955,-0.4598,-6.2079,-9.81,-53.7739,54.1217,1.5304
2960,-1.3795,-8.852,-9.1969,-61.8435,50.2957,10.9217
2965,-1.8777,-11.7643,-8.1622,-64.6957,39.4435,23.513
2970,-1.8011,-14.6767,-7.1276,-66.3652,22.1913,38.3304
2975,-1.6095,-16.9759,-6.2845,-70.4,0.3478,53.9826
2980,-1.2646,-17.7806,-5.6714,-77.5652,-22.1913,68.5913
2985,-0.5748,-17.8956,-5.0966,-83.4783,-43.2696,79.7913
2990,0.0,-17.5124,-4.1769,-86.2609,-60.6609,86.887
2995,0.4215,-17.5507,-3.7554,-78.7478,-69.8435,89.3217
