timestamp,accX,accY,accZ,gyroX,gyroY,gyroZ
0,1.2263,-1.9543,-10.2315,-37.6348,9.7391,-13.0783
5,0.958,-2.1843,-10.3082,-35.8957,10.5739,-7.7217
10,1.1113,-2.0693,-10.0399,-34.7826,10.9913,-1.8783
15,0.958,-2.1459,-9.9633,-34.2261,11.4783,-0.8348
20,0.9197,-3.4871,-10.5381,-34.2957,11.8957,-3.4783
25,1.1496,-1.8011,-9.7717,-36.3826,12.7304,-7.4435
30,1.1879,-2.0693,-9.7334,-36.1043,13.0783,-3.8957
35,0.8814,-2.2609,-9.8866,-35.2696,12.6609,-0.0696
40,0.6898,-2.3375,-9.7334,-34.4348,12.1043,0.6957
45,1.073,-2.4142,-9.7334,-33.6,11.4087,2.3652
50,0.6898,-2.5291,-9.695,-32.6261,10.7826,2.713
55,0.7664,-2.7974,-9.8483,-31.4435,10.0174,2.5739
60,-0.2299,-2.8357,-9.5801,-33.5304,10.1565,-3.1304
65,0.9963,-2.7207,-9.925,-36.1043,8.7652,-6.9565
70,0.9197,-2.2992,-9.81,-38.4,8.2783,-4.313
75,0.7664,-2.2226,-9.8866,-38.9565,7.0261,-1.9478
80,0.8047,-2.6441,-10.0016,-37.8435,5.6348,0.0696
85,0.6514,-2.7974,-10.1166,-36.5913,4.5913,1.0435
90,-0.0383,-5.02,-10.9213,-35.9652,3.687,0.4174
95,0.5365,-2.4142,-9.6184,-41.3217,4.1739,-11.5478
100,1.073,-1.7627,-9.81,-44.7304,3.4087,-13.287
105,1.073,-2.1076,-10.0782,-44.2435,3.1304,-5.7739
110,0.6898,-3.1806,-10.4614,-42.5739,2.713,-0.7652
115,0.4982,-2.6824,-9.8866,-41.3217,2.0174,2.087
120,0.6131,-3.0656,-10.0016,-38.6783,1.6,-0.0696
125,-0.1916,-4.9816,-10.9596,-36.5913,1.3913,-1.6
130,1.0346,-2.2226,-9.1969,-39.3043,1.3217,-10.1565
135,1.1496,-2.874,-9.7717,-37.2174,0.3478,-7.1652
140,0.8047,-3.1806,-10.0399,-32.6261,-0.487,-0.1391
145,0.6514,-3.3722,-9.925,-27.9652,-1.6,4.0348
150,0.5365,-3.2955,-9.925,-20.7304,-2.3652,2.8522
155,0.6131,-3.5638,-9.9633,-14.4696,-2.713,2.5739
160,0.6514,-3.6787,-9.81,-8.2087,-2.9217,2.6435
165,0.6131,-3.7171,-9.9633,-2.2261,-2.8522,3.2696
170,0.6131,-3.7171,-10.0016,3.2,-2.1565,3.3391
175,0.7281,-3.7171,-10.1549,7.8609,-1.6,3.8957
180,0.8047,-3.6787,-10.1549,12.1043,-0.9739,3.8957
185,0.843,-3.5638,-10.1932,16.0696,-0.1391,4.2435
190,0.0766,-4.5218,-10.0399,18.5739,1.113,1.6696
195,1.5328,-2.989,-10.2698,18.7826,2.0174,-1.7391
200,0.8047,-2.989,-10.3848,22.887,2.713,4.5217
205,0.9197,-2.9507,-10.1932,27.4783,2.3652,5.7739
210,0.9963,-2.7974,-10.3465,30.7478,2.087,6.4
215,0.843,-2.6824,-10.3848,33.5304,1.6,6.9565
220,0.8814,-2.4908,-10.3082,35.7565,0.9739,7.0957
225,0.958,-2.3759,-10.4998,37.5652,0.2783,7.1652
230,0.843,-2.1459,-10.3082,38.887,-0.2783,6.8174
235,0.8814,-2.0693,-10.2315,39.6522,-0.6957,6.6783
240,0.9197,-2.0693,-10.1932,40.0696,-0.7652,6.0522
245,0.8814,-2.031,-10.1166,40.3478,-0.7652,5.4957
250,0.9963,-2.031,-10.1549,40.5565,-0.9043,4.8
255,0.9197,-2.031,-10.0399,40.5565,-1.3217,4.3826
260,0.8047,-1.9927,-10.0016,40.6957,-1.8087,3.687
265,0.7664,-1.9543,-10.0782,40.6261,-2.4348,3.4087
270,0.7281,-2.2226,-10.0782,40.9043,-2.9217,3.0609
275,0.6898,-2.1076,-10.0782,41.2522,-3.5478,2.8522
280,0.5748,-2.2226,-10.3082,41.8087,-4.1043,2.5739
285,0.6898,-2.4142,-10.0782,42.3652,-4.5217,2.2957
290,0.6898,-2.3759,-10.1166,43.2,-4.2435,2.3652
295,0.6131,-2.5291,-10.2698,44.313,-4.3826,2.6435
300,0.6514,-2.5675,-10.2698,45.5652,-4.313,2.7826
305,0.6898,-2.7591,-10.3465,46.9565,-4.313,3.2696
310,0.6514,-2.874,-10.2315,48.7652,-4.0348,3.687
315,0.7664,-2.989,-10.2698,50.7826,-3.8957,4.1739
320,0.7664,-3.0273,-10.0782,53.0783,-3.8261,4.4522
325,0.6898,-3.0273,-10.0782,55.0957,-3.5478,4.8696
330,0.7664,-3.1423,-10.0782,57.0435,-2.8522,5.2174
335,0.7281,-3.2189,-9.8483,58.8522,-2.5739,5.7043
340,0.8047,-3.3722,-9.8866,60.5217,-2.0174,5.7739
345,0.6131,-3.2955,-9.6184,61.8435,-1.3217,6.2609
350,0.5748,-3.2955,-9.6184,62.9565,-1.113,6.2609
355,0.6898,-3.5255,-9.5418,63.9304,-0.6261,6.4696
360,0.4982,-3.4871,-9.5034,64.7652,-0.0696,6.5391
365,0.4982,-3.7171,-9.4651,65.7391,0.0,6.6087
370,0.2299,-3.6021,-9.3118,66.5043,-0.2087,6.3304
375,0.2682,-3.7554,-9.3502,67.4087,-1.0435,6.1217
380,0.2299,-3.7171,-9.2352,67.8261,-1.6696,5.5652
385,0.2682,-3.832,-9.3502,68.3826,-2.2957,5.3565
390,0.1533,-3.8704,-9.3118,69.1478,-3.0609,5.1478
395,0.2299,-3.9853,-9.2352,69.4957,-3.7565,5.1478
400,0.1916,-3.9853,-9.0819,69.7739,-4.3826,4.5913
405,0.2682,-4.062,-9.1586,69.7739,-5.0783,4.2435
410,0.1533,-4.0236,-9.1969,69.9826,-5.7043,3.8261
415,0.2299,-4.1386,-9.1202,69.6348,-5.913,3.687
420,0.1533,-4.1003,-9.2735,69.4957,-6.3304,3.4783
425,0.1916,-4.2152,-9.2735,69.287,-6.6783,3.2696
430,0.3066,-4.2919,-9.2352,68.7304,-6.8174,3.0609
435,0.3449,-4.3685,-9.1202,68.4522,-6.7478,3.1304
440,0.2682,-4.4835,-9.3118,68.1739,-6.7478,3.1304
445,0.2299,-4.3685,-9.0819,67.8957,-6.5391,3.3391
450,0.2682,-4.4452,-9.2735,68.0348,-6.1217,3.4783
455,0.1533,-4.7517,-9.1586,68.1043,-5.913,3.6174
460,0.1916,-4.6368,-9.2352,68.4522,-5.8435,3.687
465,0.115,-4.6751,-9.2352,68.8,-5.4957,3.687
470,0.1533,-4.79,-9.1202,68.9391,-5.0783,3.9652
475,0.1533,-4.79,-9.0436,69.2174,-4.8696,3.8261
480,0.0383,-4.8667,-8.9286,69.8435,-4.6609,4.0348
485,0.0766,-4.9816,-8.967,70.6087,-4.6609,4.3826
490,0.0766,-5.02,-8.9286,71.0957,-4.4522,4.5913
495,0.0383,-4.9816,-8.9286,71.4435,-4.4522,4.7304
500,0.0,-5.0966,-8.8137,71.7217,-4.5913,4.9391
505,0.0,-5.2499,-8.737,72.0696,-4.6609,5.0087
510,0.0,-5.2499,-8.8137,72.5565,-4.4522,5.0783
515,-0.0383,-5.2499,-8.5071,72.9739,-4.2435,5.2174
520,-0.0766,-5.3648,-8.5838,73.3217,-4.1043,5.3565
525,0.0,-5.4415,-8.3155,73.6,-3.8957,5.4261
530,-0.0766,-5.6331,-8.3155,74.0174,-3.7565,5.5652
535,-0.0766,-5.5564,-8.1239,74.3652,-3.5478,5.7043
540,-0.0383,-5.6714,-8.1622,74.9913,-3.4087,5.7043
545,-0.1533,-5.748,-8.0856,75.687,-3.3391,5.7043
550,-0.0383,-5.8247,-8.0089,76.1739,-3.2,5.8435
555,-0.0383,-5.9013,-8.0089,76.313,-3.1304,5.913
560,-0.115,-5.978,-7.9323,76.5217,-3.0609,5.9826
565,-0.0383,-6.0163,-8.0089,76.8,-2.9913,5.9826
570,-0.1533,-5.978,-7.9706,76.8,-2.9913,6.0522
575,-0.0766,-6.1313,-7.8173,76.8,-3.1304,6.0522
580,-0.0766,-6.2079,-7.6257,76.313,-3.2,6.2609
585,-0.1533,-6.2079,-7.7024,75.9652,-3.4087,6.1217
590,-0.0766,-6.1696,-7.6641,75.3391,-3.6174,6.1913
595,-0.1533,-6.1313,-7.7024,74.4348,-3.7565,6.1913
600,-0.0383,-6.2462,-7.6257,73.8087,-3.687,6.1913
605,-0.1533,-6.3612,-7.4725,73.1826,-3.8261,6.1217
610,-0.1533,-6.2462,-7.5491,72.5565,-3.687,5.8435
615,-0.1533,-6.2845,-7.5874,71.7913,-3.687,5.4957
620,-0.1916,-6.2845,-7.4341,71.0957,-3.7565,5.3565
625,-0.1533,-6.5145,-7.5108,70.6087,-3.5478,5.1478
630,-0.2299,-6.5145,-7.3192,70.1913,-3.4087,5.1478
635,-0.115,-6.3995,-7.2809,69.3565,-3.2696,4.8696
640,-0.115,-6.5145,-7.2809,68.7304,-3.2,4.6609
645,-0.115,-6.5911,-7.2809,67.7565,-3.2696,4.313
650,-0.2299,-6.5528,-7.3575,67.1304,-3.4783,4.0348
655,-0.2299,-6.5528,-7.0893,66.0174,-3.5478,3.7565
660,-0.1533,-6.7061,-7.1276,64.9043,-3.7565,3.4087
665,-0.2299,-6.5911,-7.2425,63.8609,-3.9652,2.9913
670,-0.0766,-6.7061,-7.2042,62.9565,-4.2435,2.6435
675,-0.0383,-6.6677,-7.2042,62.1913,-4.1739,2.3652
680,-0.115,-6.7827,-7.0893,61.4261,-4.2435,2.2957
685,-0.1533,-6.7827,-7.0509,60.5913,-4.313,1.8783
690,-0.1533,-6.9743,-7.0126,59.8261,-4.313,1.7391
695,0.0,-6.936,-7.0509,59.1304,-4.5913,1.2522
700,-0.115,-7.0893,-7.0126,58.5739,-4.5217,1.0435
705,-0.115,-7.0893,-7.0509,57.9478,-4.3826,0.487
710,-0.1533,-7.0126,-6.9743,57.3913,-4.2435,0.2783
715,-0.0766,-7.0509,-7.0509,57.0435,-4.0348,0.0
720,-0.115,-7.1659,-6.8593,56.9043,-3.8957,-0.0696
725,-0.0383,-7.1659,-6.8977,56.5565,-3.4783,-0.2087
730,-0.115,-7.1659,-6.936,56.3478,-3.2696,-0.0696
735,-0.1533,-7.2042,-6.8977,56.2087,-3.0609,-0.2087
740,-0.2299,-7.2425,-6.7444,56.0,-2.7826,0.0
745,-0.2299,-7.2809,-6.6677,55.4435,-2.713,-0.0696
750,-0.2299,-7.3192,-6.7061,54.9565,-2.713,0.1391
755,-0.1916,-7.3575,-6.5528,54.4696,-2.8522,0.0
760,-0.3066,-7.4341,-6.5528,53.8435,-3.2696,0.1391
765,-0.1533,-7.4725,-6.4761,53.3565,-3.4087,0.2087
770,-0.2299,-7.5491,-6.2845,52.9391,-3.4783,0.2783
775,-0.1533,-7.4725,-6.3229,52.1739,-3.1304,0.2087
780,-0.2299,-7.5108,-6.2462,50.9217,-3.0609,-0.0696
785,-0.3066,-7.5108,-6.2079,49.6696,-2.7826,-0.487
790,-0.1533,-7.5874,-6.1696,48.2783,-2.713,-0.6261
795,-0.1916,-7.5491,-6.0546,46.7478,-2.2957,-0.9043
800,-0.2682,-7.6641,-6.0163,45.3565,-2.087,-1.0435
805,-0.1533,-7.6257,-5.9013,44.313,-1.8783,-1.3217
810,-0.0383,-7.7407,-6.0929,43.4087,-2.2957,-1.7391
815,-0.115,-7.7407,-5.9396,42.7826,-2.1565,-2.0174
820,-0.0383,-7.8557,-5.9013,42.2957,-1.9478,-2.2957
825,0.0383,-7.8557,-5.863,41.9478,-1.6,-2.5739
830,-0.0766,-8.0089,-5.978,41.6696,-1.2522,-2.6435
835,0.0766,-7.894,-5.8247,41.5304,-1.4609,-3.3391
840,-0.115,-8.0089,-5.7097,41.4609,-1.1826,-3.4087
845,0.115,-8.0089,-5.863,41.5304,-1.1826,-3.8957
850,0.0766,-8.0473,-5.978,41.4609,-0.6957,-3.8957
855,0.0383,-7.9706,-5.863,41.3217,-0.2087,-4.2435
860,-0.0383,-7.894,-5.863,41.1826,0.1391,-4.313
865,0.1916,-8.0089,-5.7097,40.9739,0.2087,-4.5913
870,0.2299,-8.0089,-5.7864,40.9739,0.8348,-4.4522
875,0.1916,-7.9706,-5.9013,40.6957,2.087,-4.5217
880,0.0766,-7.9323,-5.7864,40.5565,3.1304,-4.3826
885,0.1533,-8.0856,-5.7864,40.2783,3.8261,-4.9391
890,0.2682,-8.0856,-5.5564,40.1391,4.4522,-4.8696
895,0.115,-8.0473,-5.6714,39.9304,4.8696,-5.2174
900,0.0766,-8.1622,-5.6714,39.6522,5.3565,-4.8
905,0.115,-8.1622,-5.5948,39.3043,5.3565,-4.7304
910,0.2682,-8.2005,-5.5564,38.9565,5.287,-4.5913
915,0.1916,-8.2005,-5.6331,38.6783,5.0783,-4.4522
920,0.0383,-8.1622,-5.4798,38.1913,4.8,-3.8261
925,0.0,-8.2005,-5.7097,37.8435,4.3826,-3.4087
930,0.0766,-8.2389,-5.5181,37.0783,4.0348,-2.7826
935,0.0766,-8.2389,-5.4798,36.3826,4.2435,-2.5739
940,0.0,-8.3538,-5.4798,35.8957,4.313,-1.9478
945,0.0766,-8.3921,-5.4032,35.5478,4.5913,-2.0174
950,-0.4598,-8.0473,-4.9816,35.2696,5.1478,-1.6696
955,0.1533,-8.1622,-5.4032,35.1304,5.4261,-1.8087
960,0.2299,-8.2389,-5.4415,35.1304,6.0522,-1.8783
965,0.1916,-8.1622,-5.4032,35.1304,6.6087,-2.2957
970,0.115,-8.1622,-5.2882,34.8522,7.2348,-2.3652
975,0.1916,-8.0473,-5.2116,34.3652,7.7217,-2.713
980,0.1916,-8.0856,-5.3265,33.6,8.1391,-2.6435
985,0.2299,-8.1239,-5.3648,32.5565,8.5565,-2.6435
990,0.1916,-8.1239,-5.1732,31.513,8.8348,-2.3652
995,0.2299,-8.0473,-5.02,30.4696,8.8348,-2.087
1000,0.2299,-8.0856,-5.02,29.6348,8.6957,-1.4609
1005,0.115,-8.0473,-5.0583,29.0087,8.5565,-1.113
1010,0.115,-8.2005,-5.1732,28.3826,8.2783,-0.2087
1015,0.1533,-8.2005,-4.9433,27.7565,7.8609,0.2087
1020,0.1533,-8.3155,-4.8667,27.4087,7.5826,0.7652
1025,-0.115,-8.2772,-4.905,27.2,7.1652,1.113
1030,0.115,-8.2005,-4.7517,27.6174,6.4696,2.087
1035,-0.0383,-8.2772,-4.8667,27.9652,6.0522,2.0174
1040,0.0,-8.1239,-4.79,27.4783,6.1913,1.8087
1045,0.115,-8.3538,-4.7134,26.5739,6.3304,1.1826
1050,-0.0383,-8.4305,-4.7517,25.4609,6.4,1.113
1055,0.0,-8.4305,-4.5984,24.1391,6.6087,0.6957
1060,0.0766,-8.4688,-4.7517,22.7478,6.7478,0.7652
1065,0.115,-8.4305,-4.79,21.2174,6.6087,0.2783
1070,-0.0766,-8.5071,-4.79,19.8261,6.6783,0.1391
1075,-0.0383,-8.5454,-4.7517,18.5043,6.8174,-0.2087
1080,-0.0383,-8.6221,-4.6368,17.4609,6.8174,-0.2087
1085,-0.0766,-8.8137,-4.6368,16.5565,6.8174,-0.4174
1090,-0.1533,-8.737,-4.7134,15.9304,6.6783,-0.2087
1095,-0.2682,-8.9286,-4.6751,15.5826,6.8174,-0.3478
1100,-0.115,-9.0053,-4.7134,16.1391,6.7478,0.2087
1105,-0.0766,-9.0053,-4.7517,16.9739,6.8174,0.2783
1110,-0.1533,-8.8903,-4.7517,17.6,6.8174,0.6261
1115,-0.1533,-9.0436,-4.79,18.0174,6.6783,0.5565
1120,-0.1533,-9.0436,-4.905,18.3652,6.7478,0.9739
1125,-0.115,-8.9286,-4.7134,18.9217,6.6783,1.1826
1130,-0.2299,-8.852,-4.7517,19.687,6.4696,1.8087
1135,-0.2682,-9.0053,-4.5601,20.8696,6.1913,2.2261
1140,-0.1916,-9.0436,-4.6368,22.3304,5.7043,3.0609
1145,-0.0766,-8.8137,-4.7517,24.3478,5.4261,4.1043
1150,-0.1533,-8.852,-4.7517,26.5739,5.1478,4.5217
1155,-0.0766,-8.737,-4.5218,26.9913,5.2174,4.1739
1160,0.0383,-8.7754,-4.4835,26.9913,5.3565,4.4522
1165,-0.115,-8.6221,-4.3302,26.713,5.287,4.6609
1170,-0.115,-8.6221,-4.3302,26.2261,4.8,5.2174
1175,-0.115,-8.6604,-4.3685,25.6696,4.2435,5.6348
1180,-0.0383,-8.7754,-4.2919,25.3913,3.4783,6.1913
1185,0.0383,-8.6221,-4.3302,24.9043,3.2,6.1913
1190,-0.0766,-8.6987,-4.1003,24.0696,3.2696,6.1217
1195,-0.0766,-8.6221,-4.1386,22.7478,3.687,5.8435
1200,-0.1533,-8.737,-3.9853,21.4957,3.8261,5.9826
1205,-0.115,-8.737,-4.1769,20.5217,3.5478,5.6348
1210,0.0,-8.7754,-4.2152,19.9652,2.9913,5.4957
1215,0.1533,-8.852,-3.9853,19.6174,2.713,4.8
1220,0.1916,-8.6604,-4.3685,20.0348,2.4348,4.8
1225,0.1916,-8.5454,-4.3685,19.687,2.5739,3.7565
1230,0.115,-8.6987,-4.3685,18.9913,3.1304,2.9913
1235,0.1533,-8.852,-4.3302,18.5043,3.6174,2.1565
1240,0.1533,-8.8137,-4.1386,18.1565,3.8261,1.6696
1245,0.0766,-8.852,-4.3302,17.8783,3.8957,0.6957
1250,0.0766,-8.7754,-4.3685,17.9478,4.313,0.0696
1255,-0.1533,-9.0436,-4.1769,18.2261,4.313,-0.9043
1260,0.2299,-9.0819,-4.2919,19.6174,3.1304,-0.9739
1265,0.0766,-8.852,-4.2919,20.3826,2.5739,-2.2261
1270,0.0,-8.852,-4.2536,20.5217,2.5043,-2.9913
1275,-0.1533,-8.967,-4.2536,20.4522,2.5043,-3.2696
1280,0.0,-9.1586,-4.4068,20.3826,1.5304,-3.0609
1285,-0.2299,-9.0819,-4.2919,20.1739,0.6261,-3.1304
1290,0.0766,-8.7754,-4.5218,20.4522,-0.3478,-2.713
1295,0.0383,-8.8137,-4.4068,20.0348,0.4174,-3.4087
1300,-0.1533,-8.7754,-4.3685,18.9913,1.2522,-3.4783
1305,-0.2682,-8.7754,-4.3685,18.2261,1.113,-3.687
1310,-0.3066,-8.8137,-4.3302,17.6696,0.7652,-3.4783
1315,-0.2682,-8.737,-4.4452,17.113,0.0,-3.4087
1320,-0.0766,-9.0053,-4.1769,16.2087,0.2783,-2.9913
1325,-0.2682,-8.8137,-4.1003,14.9565,0.5565,-2.8522
1330,-0.4215,-8.8903,-4.062,13.287,1.113,-2.1565
1335,-0.4982,-8.7754,-3.9853,11.5478,1.3217,-1.6696
1340,-0.4982,-8.967,-3.947,9.6,1.113,-1.113
1345,-0.4982,-8.967,-3.7937,8.0696,0.8348,-0.6261
1350,-0.4982,-8.9286,-3.9087,6.6087,0.4174,-0.1391
1355,-0.6131,-8.7754,-3.7937,5.5652,0.0696,0.3478
1360,-0.6131,-8.967,-3.6787,5.0087,-0.487,0.8348
1365,-0.6514,-8.967,-3.6021,5.0783,-1.0435,1.1826
1370,-0.7281,-8.8903,-3.6404,5.8435,-1.3913,1.7391
1375,-0.6898,-8.8903,-3.6021,7.0261,-1.6696,1.8087
1380,-0.5748,-9.0053,-3.5638,8.4174,-1.5304,2.2261
1385,-0.6131,-8.9286,-3.3722,9.8087,-1.3217,2.1565
1390,-0.5365,-9.1202,-3.4871,11.1304,-1.2522,2.2261
1395,-0.6131,-8.9286,-3.2955,12.1739,-1.0435,2.087
1400,-0.5748,-8.8903,-3.4488,12.7304,-0.9739,2.0174
1405,-0.6131,-8.967,-3.4488,12.8696,-1.113,1.6
1410,-0.5748,-8.8903,-3.5638,12.8,-1.1826,1.5304
1415,-0.5748,-8.967,-3.4871,12.1739,-1.5304,1.2522
1420,-0.4982,-9.0819,-3.5255,11.4087,-1.8087,1.3217
1425,-0.6131,-8.967,-3.5638,10.2261,-2.087,1.3217
1430,-0.4215,-9.1586,-3.5638,9.0435,-2.1565,1.3913
1435,-0.4982,-9.1202,-3.6787,7.7217,-2.0174,1.3217
1440,-0.4982,-9.0819,-3.6787,6.3304,-1.8783,1.3217
1445,-0.4215,-9.1586,-3.9087,4.8696,-1.3913,1.0435
1450,-0.3832,-9.0053,-3.8704,3.4087,-0.9739,0.9043
1455,-0.1916,-9.1586,-3.832,1.9478,-0.5565,0.5565
1460,-0.2299,-9.0053,-4.1386,0.5565,0.0696,0.3478
1465,-0.1533,-9.1202,-3.9853,-0.5565,0.7652,-0.3478
1470,-0.115,-9.1202,-4.0236,-1.4609,1.7391,-0.7652
1475,-0.115,-9.0819,-3.9087,-2.1565,2.6435,-1.6
1480,-0.0766,-9.1969,-4.1003,-2.5043,3.8957,-2.087
1485,-0.1533,-9.1202,-4.1386,-2.5739,4.9391,-2.713
1490,-0.1533,-9.0436,-4.0236,-2.6435,5.5652,-3.0609
1495,-0.2299,-9.1202,-4.1386,-2.7826,6.1913,-3.5478
1500,0.0,-8.967,-4.2152,-2.8522,6.2609,-3.9652
1505,-0.115,-8.8137,-4.1386,-2.9217,6.1913,-4.2435
1510,-0.0383,-8.8137,-4.1769,-3.0609,5.913,-4.3826
1515,0.0766,-8.9286,-4.2152,-3.3391,5.5652,-4.313
1520,0.1916,-8.8137,-4.2152,-3.6174,5.1478,-3.9652
1525,0.3066,-8.6221,-4.2152,-3.9652,4.8696,-3.5478
1530,0.3066,-8.6604,-4.1386,-4.4522,4.7304,-2.9913
1535,0.2682,-8.6987,-4.2152,-5.0087,4.5217,-2.6435
1540,0.4215,-8.8903,-4.1769,-5.6348,4.2435,-2.2261
1545,0.4215,-8.852,-3.9853,-6.2609,3.9652,-2.087
1550,0.3832,-9.0053,-3.9087,-7.0261,3.687,-1.8783
1555,0.4598,-9.0436,-3.9853,-7.7913,3.3391,-1.7391
1560,0.4215,-9.0436,-3.947,-8.2783,3.2,-1.6
1565,0.3832,-9.0053,-3.9853,-8.6261,3.2696,-1.5304
1570,0.3832,-9.1202,-3.9853,-8.6957,3.3391,-1.4609
1575,0.1916,-9.1202,-3.9853,-8.3478,3.3391,-1.3217
1580,0.2299,-9.1202,-3.9853,-7.5826,3.6174,-1.2522
1585,0.115,-9.2352,-3.6787,-6.6783,3.8261,-1.2522
1590,0.115,-9.2735,-3.6787,-5.2174,4.1043,-1.113
1595,0.115,-9.2735,-3.7937,-3.9652,4.5217,-0.9739
1600,0.0766,-9.2735,-3.7554,-2.7826,4.7304,-0.9043
1605,0.0383,-9.2352,-3.6404,-1.8783,5.1478,-0.7652
1610,0.0766,-9.1969,-3.6021,-0.9739,5.3565,-0.5565
1615,0.1916,-9.3502,-3.4488,-0.3478,5.7043,-0.5565
1620,0.0766,-9.1202,-3.5638,0.0696,5.9826,-0.2783
1625,0.1916,-9.2352,-3.6787,0.2783,6.3304,-0.1391
1630,0.0,-9.2352,-3.5255,0.487,6.7478,-0.0696
1635,0.0,-9.2352,-3.6404,0.3478,7.0957,0.1391
1640,-0.0383,-9.1202,-3.4488,0.0,7.3043,0.3478
1645,-0.115,-9.1586,-3.6021,-0.2087,7.7217,0.487
1650,-0.1533,-9.1586,-3.7171,-0.7652,7.9304,0.5565
1655,-0.2682,-9.0819,-3.7937,-1.2522,8.1391,0.5565
1660,-0.2299,-9.0819,-3.6404,-1.8087,8.2783,0.5565
1665,-0.3449,-9.0436,-3.7171,-2.5739,8.2087,0.5565
1670,-0.3449,-8.967,-3.832,-3.4087,8.1391,0.4174
1675,-0.4215,-8.852,-3.832,-4.2435,8.1391,0.3478
1680,-0.3449,-8.967,-3.947,-4.9391,8.0,0.2783
1685,-0.4215,-8.9286,-3.8704,-5.7043,7.7913,0.2087
1690,-0.4215,-8.9286,-3.9087,-6.4696,7.6522,0.0696
1695,-0.4598,-8.967,-4.0236,-6.9565,7.5826,-0.1391
1700,-0.4215,-8.8903,-3.9087,-7.6522,7.2348,-0.2783
1705,-0.4215,-8.8903,-4.062,-8.0,7.0261,-0.487
1710,-0.4215,-8.967,-4.1386,-8.3478,6.8174,-0.6261
1715,-0.3832,-8.8903,-4.1769,-8.487,6.6783,-0.7652
1720,-0.3449,-9.0053,-4.2152,-8.6261,6.5391,-0.8348
1725,-0.3066,-8.7754,-4.2152,-9.3217,6.1217,-1.2522
1730,-0.3449,-8.8903,-4.2919,-10.6435,5.913,-1.8087
1735,-0.1916,-9.0053,-4.1003,-11.4087,6.0522,-1.6
1740,-0.3066,-9.1586,-4.3302,-10.8522,6.1217,-1.0435
1745,-0.3066,-9.0436,-4.2152,-9.9478,5.913,-0.9043
1750,-0.1533,-9.0819,-4.2536,-9.0435,5.6348,-1.1826
1755,-0.0766,-9.0819,-4.1769,-8.0,5.1478,-1.2522
1760,-0.2682,-9.0436,-4.2919,-7.3739,4.8,-1.2522
1765,-0.1533,-9.0053,-4.2152,-6.8174,4.7304,-1.1826
1770,-0.115,-9.1202,-4.1769,-6.4,4.5913,-1.3217
1775,-0.0383,-9.0053,-4.1003,-6.1913,4.4522,-1.3913
1780,0.115,-9.0053,-4.2152,-6.1217,4.3826,-1.6696
1785,0.0,-8.8903,-4.1386,-6.1913,4.313,-1.8783
1790,0.0383,-8.8137,-4.1003,-6.3304,4.313,-2.1565
1795,-0.2299,-8.852,-4.2152,-6.6783,4.2435,-2.2957
1800,0.0766,-8.7754,-4.1769,-7.3043,4.1739,-2.713
1805,0.1533,-8.8137,-4.062,-8.9739,4.0348,-3.4087
1810,0.0383,-8.9286,-4.062,-9.7391,4.8696,-2.7826
1815,0.0,-8.967,-4.1386,-9.7391,5.3565,-2.3652
1820,0.0,-8.8137,-4.2152,-9.6696,5.6348,-2.3652
1825,0.0383,-8.9286,-4.1003,-9.8087,5.7043,-2.3652
1830,0.0383,-8.8137,-4.1769,-10.1565,5.8435,-2.3652
1835,0.0383,-8.8137,-4.0236,-10.5739,5.7739,-1.9478
1840,0.0,-8.8903,-4.1386,-11.2696,5.7739,-1.6
1845,-0.0766,-8.8903,-4.1386,-11.8957,5.913,-1.1826
1850,-0.0383,-8.737,-3.9853,-12.5217,5.913,-0.8348
1855,-0.0383,-8.967,-4.1769,-13.2174,5.913,-0.2783
1860,-0.1533,-8.852,-4.1003,-13.913,6.0522,0.3478
1865,0.0383,-8.852,-4.1769,-14.7478,6.2609,0.7652
1870,-0.0383,-8.8903,-4.2152,-15.3739,6.2609,1.113
1875,-0.0383,-8.8903,-4.1769,-16.0696,6.3304,1.6
1880,-0.115,-8.8903,-4.1769,-16.6957,6.4,2.0174
1885,-0.0383,-9.0053,-4.2152,-17.3913,6.6783,2.5043
1890,-0.0766,-8.8903,-4.1386,-18.0174,6.9565,2.713
1895,-0.0383,-8.8903,-4.1769,-18.5043,7.3739,3.2
1900,-0.2682,-8.9286,-4.2919,-18.8522,7.8609,3.4783
1905,-0.2299,-8.7754,-4.3302,-19.0609,8.3478,3.8957
1910,-0.2682,-8.852,-4.2152,-19.0609,8.8348,3.8261
1915,-0.2299,-8.7754,-4.4068,-19.0609,9.2522,3.7565
1920,-0.1533,-8.7754,-4.3685,-18.713,9.7391,3.2696
1925,-0.3066,-8.6604,-4.3685,-18.5739,10.5043,2.9217
1930,-0.0766,-8.8903,-4.4835,-18.8522,10.7826,2.8522
1935,-0.3449,-8.852,-4.2919,-18.9217,10.1565,2.7826
1940,-0.3449,-8.6987,-4.4452,-18.713,9.6696,2.5043
1945,-0.3066,-8.737,-4.4068,-18.8522,9.4609,2.6435
1950,-0.3449,-8.737,-4.4068,-18.9913,8.9043,2.4348
1955,-0.4982,-8.6604,-4.5984,-19.2,8.2783,2.713
1960,-0.3832,-8.852,-4.4835,-19.4783,7.6522,2.5739
1965,-0.3832,-8.737,-4.5601,-19.7565,7.3739,2.713
1970,-0.3832,-8.6604,-4.5218,-20.1043,6.4,2.8522
1975,-0.3832,-8.852,-4.7134,-20.313,6.1217,2.713
1980,-0.2299,-8.6987,-4.7134,-20.3826,5.9826,2.5739
1985,-0.4982,-8.6221,-4.79,-20.6609,6.1913,2.5043
1990,-0.4215,-8.7754,-4.6368,-21.1478,5.9826,2.5043
1995,-0.4982,-8.852,-4.7517,-21.287,4.8696,2.5739
2000,-0.4982,-8.7754,-4.7517,-21.0783,3.8261,2.2957
2005,-0.2682,-8.852,-4.8667,-20.7304,3.2,2.1565
2010,-0.4598,-8.737,-4.8284,-20.0348,2.9217,1.6696
2015,-0.3832,-8.852,-4.79,-19.2,2.7826,1.6696
2020,-0.3832,-8.8903,-4.7134,-18.1565,2.5043,1.2522
2025,-0.3832,-8.9286,-4.7517,-16.9739,2.713,0.9043
2030,-0.3066,-8.9286,-4.7517,-15.5826,2.713,0.5565
2035,-0.2682,-8.852,-4.5218,-14.5391,2.713,0.4174
2040,-0.2299,-8.9286,-4.79,-13.6348,3.2,0.0
2045,-0.2682,-8.8137,-4.6751,-12.7304,3.1304,-0.2783
2050,-0.1533,-8.852,-4.5601,-11.8261,2.9217,-0.6261
2055,-0.115,-8.967,-4.5218,-10.9913,2.7826,-0.7652
2060,-0.0383,-9.0053,-4.7517,-10.0174,2.713,-1.2522
2065,-0.0383,-9.0436,-4.6368,-9.2522,2.6435,-1.3913
2070,0.0766,-9.0436,-4.5601,-8.4174,2.5043,-1.6696
2075,0.0383,-9.0053,-4.6368,-7.6522,2.5043,-1.7391
2080,0.1533,-8.9286,-4.8284,-6.7478,2.3652,-2.2261
2085,0.2682,-8.967,-4.8284,-5.5652,2.2957,-2.2957
2090,0.3066,-8.967,-4.6368,-4.3826,2.2957,-2.6435
2095,0.3449,-8.9286,-4.6751,-3.4783,2.2957,-2.7826
2100,0.1916,-8.852,-4.7517,-2.3652,2.2957,-3.1304
2105,0.3066,-8.8137,-4.7134,-1.6696,2.5739,-2.9913
2110,0.2299,-8.7754,-4.7134,-0.9739,2.8522,-3.3391
2115,0.2682,-8.737,-4.6751,-0.487,3.2696,-3.3391
2120,0.2299,-8.6604,-4.5984,0.0,3.687,-3.4783
2125,0.2299,-8.6604,-4.6368,0.2783,4.2435,-3.3391
2130,0.2682,-8.737,-4.5601,0.2783,4.5913,-3.6174
2135,0.2682,-8.4688,-4.7517,0.0,4.8696,-3.8261
2140,0.2682,-8.5838,-4.4452,-0.6957,5.3565,-3.8957
2145,0.115,-8.5454,-4.4452,-1.1826,5.7043,-3.5478
2150,0.1916,-8.6221,-4.5218,-1.7391,5.913,-3.687
2155,0.2299,-8.5838,-4.5218,-2.5043,6.1913,-3.4087
2160,0.115,-8.5071,-4.5601,-3.3391,6.4696,-3.3391
2165,0.1916,-8.5838,-4.6368,-4.313,6.6783,-3.0609
2170,0.1533,-8.5071,-4.6751,-5.2174,6.887,-2.9217
2175,0.0383,-8.4305,-4.7517,-6.1217,7.0261,-2.5043
2180,-0.0383,-8.5071,-4.7134,-6.7478,7.3739,-2.5043
2185,0.0,-8.5071,-4.7134,-7.513,7.513,-2.087
2190,0.0383,-8.4688,-4.9433,-8.0696,7.8609,-1.9478
2195,0.0383,-8.5838,-4.79,-8.6261,8.0,-1.5304
2200,0.0,-8.6221,-4.9433,-8.6261,8.1391,-1.4609
2205,0.0766,-8.6987,-5.0583,-8.6261,8.0696,-1.2522
2210,0.0383,-8.6221,-5.02,-8.4174,8.1391,-1.3217
2215,-0.115,-8.5454,-5.0966,-8.0696,8.0696,-1.113
2220,0.0,-8.5071,-5.1349,-7.5826,8.1391,-1.2522
2225,-0.0766,-8.6221,-5.0583,-7.1652,7.9304,-1.113
2230,-0.0766,-8.5838,-5.02,-6.6783,7.9304,-1.2522
2235,-0.0766,-8.6221,-4.9433,-6.4,7.6522,-0.9739
2240,-0.1533,-8.737,-5.02,-6.1913,7.4435,-1.2522
2245,-0.115,-8.5454,-4.905,-5.913,7.1652,-1.113
2250,-0.1533,-8.4305,-4.905,-5.7739,6.6783,-1.1826
2255,-0.2682,-8.5071,-4.9433,-5.6348,6.3304,-0.9739
2260,-0.1916,-8.5454,-4.9816,-5.5652,5.9826,-1.0435
2265,-0.1916,-8.5071,-4.9816,-5.5652,5.7043,-0.8348
2270,-0.1533,-8.5838,-4.905,-5.4957,5.287,-0.7652
2275,-0.1916,-8.5071,-4.7134,-5.5652,4.9391,-0.4174
2280,-0.1916,-8.3921,-4.9433,-5.4957,4.7304,-0.3478
2285,-0.1916,-8.5454,-4.79,-5.4957,4.313,-0.0696
2290,-0.2682,-8.4305,-4.9433,-5.5652,3.8957,-0.2783
2295,-0.1916,-8.5454,-4.8667,-5.6348,3.6174,-0.0696
2300,-0.115,-8.5071,-4.8667,-5.7739,3.3391,-0.0696
2305,-0.2299,-8.5838,-4.905,-6.1217,3.0609,0.2087
2310,-0.115,-8.4688,-4.7517,-6.3304,2.8522,0.0
2315,-0.1916,-8.5454,-4.905,-6.7478,2.713,0.2087
2320,-0.2299,-8.4688,-4.7134,-7.2348,2.6435,0.0
2325,-0.1916,-8.5838,-4.8667,-7.4435,2.5043,0.0696
2330,-0.1916,-8.5838,-4.8667,-7.6522,2.5739,-0.2087
2335,-0.2682,-8.5454,-4.8667,-7.9304,2.5739,-0.0696
2340,-0.1533,-8.6221,-4.8284,-8.1391,2.5739,-0.3478
2345,-0.1916,-8.6221,-5.0583,-8.2087,2.6435,-0.1391
2350,-0.115,-8.6221,-4.79,-8.2087,2.713,-0.3478
2355,-0.1916,-8.7754,-4.8667,-8.0,2.713,-0.2783
2360,-0.1916,-8.737,-4.9816,-7.6522,2.9217,-0.487
2365,-0.0766,-8.7754,-4.9816,-7.3739,3.0609,-0.487
2370,-0.115,-8.737,-4.8284,-7.0957,3.2,-0.7652
2375,-0.115,-8.6987,-4.9433,-6.7478,3.4783,-0.5565
2380,-0.0383,-8.6987,-4.8667,-6.5391,3.7565,-0.7652
2385,-0.115,-8.737,-4.9433,-6.3304,4.0348,-0.6957
2390,-0.0766,-8.6221,-5.02,-6.0522,4.313,-0.8348
2395,-0.0766,-8.6604,-4.9433,-5.913,4.5217,-0.6957
2400,0.0,-8.6221,-4.905,-5.913,4.8696,-0.8348
2405,-0.0766,-8.6604,-5.02,-5.8435,5.1478,-0.7652
2410,-0.0766,-8.5838,-4.9816,-5.913,5.4261,-0.7652
2415,0.0383,-8.6221,-4.8284,-5.913,5.7739,-0.6957
2420,0.0383,-8.5454,-5.0583,-5.8435,6.0522,-0.9043
2425,-0.0766,-8.5454,-4.8667,-5.913,6.2609,-0.8348
2430,0.0766,-8.6221,-4.8667,-5.7739,6.3304,-1.0435
2435,-0.0766,-8.6604,-4.8284,-5.8435,6.4,-1.0435
2440,0.0383,-8.5071,-4.8284,-5.913,6.5391,-1.2522
2445,0.0383,-8.5838,-4.9433,-5.913,6.6783,-1.1826
2450,0.0766,-8.5454,-4.9433,-5.7739,6.7478,-1.4609
2455,0.0766,-8.5454,-5.0966,-5.7739,6.6087,-1.3913
2460,0.0383,-8.5838,-4.9433,-5.6348,6.6783,-1.6
2465,0.0383,-8.6604,-5.1349,-5.5652,6.6087,-1.6
2470,0.115,-8.5838,-4.8667,-5.3565,6.6087,-1.7391
2475,0.115,-8.5838,-5.0583,-5.287,6.6087,-1.6696
2480,-0.0383,-8.4305,-5.1732,-4.8,6.4696,-1.9478
2485,0.0,-8.6987,-5.0583,-4.4522,6.4696,-1.8087
2490,0.0383,-8.5454,-4.9816,-4.2435,6.4,-1.8783
2495,0.0,-8.5454,-5.02,-4.0348,6.3304,-1.8087
2500,0.0,-8.4688,-5.0966,-3.7565,6.3304,-1.8783
2505,-0.0766,-8.3921,-4.9433,-3.687,6.2609,-1.7391
2510,0.0766,-8.4305,-4.905,-3.5478,6.1913,-1.7391
2515,0.1916,-8.5838,-4.9433,-3.5478,5.9826,-1.6
2520,0.0766,-8.5071,-5.0583,-3.6174,5.8435,-1.6696
2525,0.0383,-8.3921,-4.9816,-3.6174,5.7043,-1.5304
2530,0.0383,-8.5071,-5.02,-3.687,5.5652,-1.6696
2535,-0.0383,-8.4305,-5.02,-3.687,5.4957,-1.4609
2540,-0.0383,-8.4688,-4.9433,-3.687,5.4261,-1.4609
2545,0.0766,-8.4688,-5.02,-3.9652,5.3565,-1.2522
2550,-0.115,-8.5454,-5.02,-3.9652,5.2174,-1.4609
2555,-0.115,-8.5454,-4.9433,-4.1043,5.287,-1.1826
2560,-0.0383,-8.4688,-4.9433,-4.2435,5.2174,-1.2522
2565,0.0383,-8.4688,-4.9816,-4.313,5.0783,-1.0435
2570,-0.0383,-8.3921,-4.905,-4.4522,5.0783,-0.9739
2575,-0.0383,-8.5071,-4.905,-4.5217,5.0783,-0.7652
2580,-0.0383,-8.5838,-4.905,-4.7304,5.0783,-0.9043
2585,-0.0766,-8.5071,-4.9433,-4.9391,5.1478,-0.6957
2590,0.0383,-8.6221,-4.8667,-5.0087,5.0087,-0.7652
2595,0.0383,-8.5454,-4.9433,-5.1478,5.0783,-0.487
2600,-0.0383,-8.5454,-5.02,-5.3565,5.0087,-0.5565
2605,-0.0383,-8.5454,-5.0583,-5.287,5.0087,-0.3478
2610,0.0,-8.5454,-4.9816,-5.287,4.8696,-0.4174
2615,0.0,-8.6987,-5.02,-5.2174,4.9391,-0.0696
2620,-0.0766,-8.6221,-5.02,-4.9391,4.8696,-0.1391
2625,0.0,-8.5454,-5.1349,-4.6609,4.8696,0.0
2630,-0.0383,-8.5454,-5.02,-4.2435,4.9391,-0.2783
2635,-0.0766,-8.5454,-5.1349,-3.8261,4.9391,-0.0696
2640,0.0383,-8.5454,-5.1349,-3.4783,5.0087,-0.3478
2645,-0.0383,-8.5838,-5.0966,-3.0609,4.9391,-0.1391
2650,-0.115,-8.5071,-5.1349,-2.8522,5.0087,-0.2087
2655,-0.1533,-8.4688,-5.1349,-2.5043,4.9391,-0.2087
2660,0.0,-8.6221,-5.1732,-2.3652,5.0087,-0.2783
2665,0.0,-8.6221,-4.9816,-2.3652,4.8696,-0.2087
2670,0.0,-8.5071,-5.1349,-2.3652,4.9391,-0.2087
2675,0.0,-8.4688,-5.1732,-2.3652,4.8,-0.2087
2680,0.0,-8.5071,-5.2116,-2.3652,4.7304,-0.5565
2685,0.0,-8.3155,-5.0966,-2.2261,4.5217,-0.487
2690,-0.1533,-8.4688,-5.0583,-2.2261,4.4522,-0.6957
2695,0.0383,-8.3155,-5.0966,-2.3652,4.3826,-0.6261
2700,-0.115,-8.3155,-5.1349,-2.5739,4.3826,-0.7652
2705,-0.0383,-8.3921,-5.02,-2.713,4.2435,-0.6957
2710,-0.0383,-8.4688,-5.02,-2.8522,4.2435,-0.8348
2715,-0.0766,-8.4305,-5.0583,-2.9913,4.1739,-0.7652
2720,-0.0383,-8.4305,-5.02,-3.2,4.2435,-0.8348
2725,-0.0383,-8.4305,-4.905,-3.4087,4.313,-0.8348
2730,0.0383,-8.5071,-4.9816,-3.687,4.313,-0.9739
2735,-0.0383,-8.5071,-5.0966,-3.8957,4.313,-0.9739
2740,0.0383,-8.4688,-5.02,-4.2435,4.3826,-1.113
2745,0.115,-8.5454,-5.0583,-4.5217,4.4522,-1.113
2750,-0.2299,-8.5838,-5.4798,-4.7304,4.4522,-1.1826
2755,0.0383,-8.5071,-5.02,-4.9391,4.4522,-1.0435
2760,0.0,-8.4305,-5.2116,-4.9391,4.3826,-1.2522
2765,0.0766,-8.5838,-5.0583,-5.0783,4.5217,-1.1826
2770,-0.0383,-8.4688,-5.1349,-5.0783,4.6609,-1.1826
2775,-0.115,-8.5071,-5.1349,-5.0087,4.7304,-1.1826
2780,-0.115,-8.3921,-5.1349,-4.9391,4.8696,-1.2522
2785,0.115,-8.5071,-5.1732,-5.0087,5.0087,-1.2522
2790,0.0,-8.5071,-5.0966,-5.1478,5.1478,-1.3913
2795,0.0383,-8.5071,-5.0583,-5.1478,5.287,-1.3217
2800,0.115,-8.4688,-5.1732,-5.0087,5.2174,-1.4609
2805,0.0383,-8.4688,-5.1349,-5.0087,5.3565,-1.4609
2810,-0.0383,-8.4305,-5.1349,-5.0087,5.287,-1.4609
2815,0.0383,-8.4305,-5.1349,-4.8696,5.3565,-1.2522
2820,0.1533,-8.5071,-5.0966,-4.5913,5.4261,-1.3217
2825,0.1533,-8.3538,-5.2499,-4.4522,5.3565,-1.2522
2830,0.0383,-8.4305,-5.1732,-4.1739,5.1478,-1.2522
2835,0.0383,-8.3155,-5.1349,-3.8957,5.287,-1.113
2840,-0.0766,-8.3155,-5.2499,-3.7565,5.0783,-1.0435
2845,0.0,-8.3538,-5.2116,-3.687,4.9391,-0.9043
2850,0.1533,-8.3921,-5.3648,-3.6174,4.8696,-0.8348
2855,0.0383,-8.3538,-5.0966,-3.4783,4.8,-0.8348
2860,0.115,-8.3155,-5.0583,-3.4087,4.5913,-0.9043
2865,0.0383,-8.3155,-5.2116,-3.4087,4.4522,-0.8348
2870,0.0,-8.3921,-5.2116,-3.4783,4.3826,-0.9043
2875,0.115,-8.4688,-4.9816,-3.5478,4.4522,-0.9043
2880,0.0766,-8.4688,-5.2882,-3.5478,4.3826,-0.7652
2885,-0.115,-8.2772,-5.0966,-3.7565,4.4522,-0.8348
2890,0.0,-8.3921,-5.1349,-3.8957,4.4522,-0.7652
2895,0.115,-8.3921,-5.2499,-4.0348,4.5913,-0.8348
2900,0.0,-8.3921,-5.0583,-4.1739,4.6609,-0.9739
2905,-0.0766,-8.4688,-5.0583,-4.4522,4.6609,-0.9739
2910,0.0383,-8.4305,-5.0966,-4.5217,4.5913,-1.113
2915,0.0,-8.4688,-5.0966,-4.5217,4.8696,-1.0435
2920,0.1533,-8.4305,-5.1349,-4.3826,4.8696,-1.113
2925,0.0383,-8.4688,-5.1732,-4.313,4.8696,-1.0435
2930,0.0766,-8.3538,-5.2499,-4.2435,4.8696,-1.0435
2935,0.0766,-8.5071,-5.1732,-4.0348,4.9391,-0.9739
2940,0.0766,-8.4305,-5.1732,-3.9652,4.9391,-0.9739
2945,0.0383,-8.3155,-5.2499,-3.7565,5.0087,-0.9739
2950,0.0,-8.3921,-5.1349,-3.6174,5.0087,-0.8348
2955,0.115,-8.4688,-5.2499,-3.4783,5.0087,-0.6957
2960,0.1533,-8.5071,-5.2499,-3.3391,5.0087,-0.6957
2965,0.0766,-8.3155,-5.2882,-3.2,5.0087,-0.6261
2970,0.0383,-8.3538,-5.2499,-3.0609,5.0087,-0.6261
2975,0.0766,-8.3921,-5.2499,-2.9217,5.0087,-0.6957
2980,0.0383,-8.4305,-5.1349,-2.713,5.0087,-0.6261
2985,0.0,-8.3921,-5.2882,-2.7826,5.1478,-0.6261
2990,0.1533,-8.3921,-5.1349,-2.7826,5.0783,-0.5565
2995,0.0383,-8.4688,-5.2116,-2.7826,5.0783,-0.6261
