timestamp,accX,accY,accZ,gyroX,gyroY,gyroZ
0,-10.0399,-0.9963,-0.3832,-7.0957,-13.8435,1.1826
5,-9.9633,-0.843,-0.3066,-7.6522,-13.913,1.113
10,-9.8866,-0.9963,-0.3066,-7.8609,-14.0522,1.3913
15,-9.9633,-0.9197,-0.3832,-7.7913,-13.9826,1.2522
20,-9.8866,-1.0346,-0.3066,-7.6522,-13.9826,1.4609
25,-9.8866,-1.1113,-0.3066,-7.2348,-13.9826,1.3217
30,-10.0016,-0.9963,-0.3449,-6.8174,-13.9826,1.3217
35,-9.9633,-1.073,-0.3449,-6.4696,-13.9826,1.1826
40,-9.925,-0.9197,-0.2299,-5.9826,-13.9826,1.2522
45,-9.925,-1.0346,-0.115,-5.5652,-13.913,1.113
50,-10.0399,-0.958,-0.2682,-5.287,-13.9826,1.1826
55,-9.9633,-0.8814,-0.1533,-5.1478,-13.913,1.0435
60,-10.0782,-0.8047,-0.0766,-5.0087,-13.8435,1.113
65,-9.9633,-0.958,-0.0383,-4.9391,-13.5652,0.9043
70,-9.925,-0.8047,-0.0766,-4.9391,-13.1478,0.9739
75,-10.0399,-0.8047,-0.115,-4.9391,-12.7304,0.9043
80,-10.0782,-0.8814,0.0,-5.0783,-12.2435,0.9739
85,-9.9633,-0.9963,-0.115,-5.0783,-11.9652,0.9043
90,-9.925,-0.843,-0.0383,-5.287,-11.5478,0.7652
95,-10.0016,-0.958,-0.0766,-5.5652,-11.0609,0.7652
100,-10.0399,-0.7664,-0.0383,-5.913,-10.6435,0.6957
105,-9.925,-0.8047,-0.0383,-5.9826,-10.2261,0.487
110,-9.9633,-0.8814,0.0383,-6.1913,-10.087,0.6957
115,-9.8866,-0.9963,0.0,-6.6783,-9.6696,0.6261
120,-9.8866,-0.9197,0.1916,-6.8174,-9.1826,0.487
125,-9.925,-0.843,0.1533,-7.0261,-8.9739,0.1391
130,-9.925,-1.0346,0.0383,-6.9565,-8.6261,0.2783
135,-9.925,-1.0346,0.0,-6.7478,-8.2783,0.0696
140,-9.9633,-0.843,0.115,-6.6087,-7.8609,0.2087
145,-9.8866,-0.958,0.1916,-6.2609,-7.3043,-0.1391
150,-9.8483,-0.8814,0.0383,-5.9826,-6.887,-0.1391
155,-10.0016,-0.8814,0.115,-5.7739,-6.5391,-0.5565
160,-9.8866,-0.7664,0.0766,-5.7043,-5.9826,-0.5565
165,-9.81,-0.8047,0.3066,-5.7043,-5.4957,-0.9043
170,-9.695,-0.7664,0.1533,-5.913,-4.8696,-0.9739
175,-9.81,-0.8814,0.3066,-6.1217,-4.3826,-1.3913
180,-9.7717,-0.8814,0.1916,-6.4696,-3.8261,-1.5304
185,-9.81,-0.843,0.2299,-6.9565,-3.4087,-1.7391
190,-9.7334,-0.8814,0.1533,-7.4435,-2.9913,-1.6696
195,-9.7334,-0.8814,0.2299,-7.7913,-2.5739,-1.8087
200,-9.7717,-1.0346,0.2682,-8.3478,-2.3652,-1.6696
205,-9.7717,-0.9963,0.2299,-8.7652,-2.087,-1.8783
210,-9.8483,-0.843,0.2682,-9.0435,-1.8087,-1.5304
215,-9.7717,-0.843,0.1533,-9.3217,-1.6,-1.6
220,-9.8866,-1.0346,0.3066,-9.4609,-1.3217,-1.3913
225,-9.81,-0.9197,0.2682,-9.6,-1.0435,-1.4609
230,-9.925,-1.0346,0.3066,-9.6,-0.5565,-1.3913
235,-9.81,-0.958,0.2299,-9.2522,-0.2783,-1.4609
240,-9.8866,-0.958,0.0766,-8.9739,0.2783,-1.3217
245,-9.81,-0.8047,0.2682,-8.8348,0.5565,-1.3913
250,-9.8866,-0.958,0.115,-8.7652,1.0435,-1.113
255,-9.8866,-0.843,0.2299,-8.8348,1.3217,-1.4609
260,-9.81,-0.9963,0.1916,-8.9739,1.5304,-1.4609
265,-9.9633,-0.8814,0.0383,-9.1826,1.8087,-1.7391
270,-9.81,-0.9963,0.115,-9.4609,1.8087,-1.6696
275,-9.8483,-0.958,0.1916,-9.6,1.8087,-1.8087
280,-9.7717,-1.1113,0.115,-9.6,2.087,-1.5304
285,-9.8866,-0.958,0.2682,-9.3913,2.2261,-1.5304
290,-9.7334,-1.1496,0.115,-9.2522,2.4348,-1.3217
295,-9.925,-1.0346,0.2299,-9.3217,2.7826,-1.4609
300,-9.8483,-1.0346,0.0383,-9.4609,2.9913,-1.3913
305,-9.925,-1.073,0.115,-9.6,3.2696,-1.6
310,-9.81,-1.073,0.0383,-9.6696,3.4783,-1.3913
315,-9.8483,-1.2263,0.0383,-9.6696,3.687,-1.4609
320,-9.695,-1.2646,0.1533,-9.6,3.8957,-1.1826
325,-9.7334,-1.3029,0.1916,-9.6,4.1739,-1.2522
330,-9.695,-1.2263,0.1533,-9.4609,4.4522,-1.0435
335,-9.6184,-1.3029,0.1916,-9.2522,4.4522,-0.9739
340,-9.7334,-1.4562,0.2299,-8.7652,4.5217,-0.6261
345,-9.7717,-1.3412,0.3832,-8.2087,4.6609,-0.5565
350,-9.695,-1.3795,0.0766,-7.4435,4.6609,-0.0696
355,-9.5801,-1.4179,0.3449,-6.5391,4.5217,0.0
360,-9.7334,-1.3029,0.2682,-5.7043,4.5217,0.2087
365,-9.81,-1.3795,0.1533,-4.6609,4.4522,0.2087
370,-9.7717,-1.3795,0.2299,-3.8957,4.5217,0.5565
375,-9.7334,-1.3412,0.0766,-2.9217,4.5217,0.5565
380,-9.81,-1.2263,0.0766,-2.4348,4.6609,0.9043
385,-9.81,-1.073,0.115,-2.1565,4.8,0.8348
390,-9.925,-1.1496,0.1533,-1.9478,4.8,1.113
395,-9.8866,-1.0346,0.0766,-2.0174,4.9391,1.113
400,-10.0016,-1.0346,0.1533,-2.3652,5.0087,1.3217
405,-10.0016,-1.0346,0.0,-2.7826,4.9391,1.2522
410,-9.9633,-1.0346,0.115,-3.0609,5.0087,1.5304
415,-10.0399,-1.073,-0.0383,-3.5478,5.1478,1.4609
420,-10.0016,-1.2263,0.0,-3.8261,5.287,1.5304
425,-9.8866,-1.1113,-0.0383,-3.9652,5.287,1.3913
430,-9.9633,-1.1113,0.0766,-4.0348,5.3565,1.4609
435,-10.0016,-1.1879,0.115,-3.8957,5.5652,1.2522
440,-9.925,-1.2263,0.1533,-3.7565,5.4957,1.2522
445,-10.0016,-0.9963,0.0,-3.6174,5.4261,1.113
450,-9.8866,-1.1496,0.0383,-3.4087,5.3565,1.113
455,-9.925,-1.1496,0.0,-3.1304,5.1478,0.9043
460,-9.81,-1.1113,0.1533,-2.8522,4.9391,0.9739
465,-9.9633,-1.073,0.0766,-2.5739,4.6609,0.6957
470,-9.9633,-1.0346,0.0383,-2.4348,4.3826,0.6957
475,-10.0016,-1.073,0.0766,-2.3652,4.1739,0.487
480,-10.0399,-1.073,0.0766,-2.3652,3.9652,0.4174
485,-9.925,-1.1113,0.0766,-2.1565,3.8261,0.3478
490,-9.9633,-1.1113,0.0766,-1.9478,3.8261,0.4174
495,-9.925,-1.0346,0.0383,-1.8783,3.6174,0.2783
500,-9.925,-1.0346,0.0383,-1.8087,3.4783,0.4174
505,-10.1166,-1.0346,0.0383,-1.7391,3.4087,0.2783
510,-10.1166,-0.9963,0.115,-1.7391,3.4087,0.3478
515,-9.8866,-1.1113,0.115,-1.7391,3.4783,0.2783
520,-9.9633,-0.958,0.0383,-1.7391,3.687,0.2783
525,-9.925,-1.0346,0.0383,-1.7391,3.687,0.2783
530,-9.8483,-0.8814,0.115,-1.8783,3.8261,0.4174
535,-9.8483,-0.9197,0.115,-1.8783,3.8957,0.3478
540,-9.8866,-0.843,0.0383,-1.8087,3.8957,0.4174
545,-9.925,-1.0346,0.115,-2.0174,4.0348,0.4174
550,-9.9633,-0.9963,0.2299,-2.087,4.1043,0.5565
555,-9.925,-0.9963,0.0766,-2.2261,4.0348,0.487
560,-9.81,-0.9963,0.0766,-2.0174,3.9652,0.6957
565,-9.9633,-1.0346,0.1533,-2.0174,4.0348,0.7652
570,-9.925,-0.958,0.1916,-1.8087,3.9652,0.9739
575,-10.0016,-0.958,0.0383,-1.8087,3.8957,0.9739
580,-9.8483,-1.073,0.0383,-1.6696,3.8957,1.113
585,-9.9633,-0.8047,0.0383,-1.6,3.8957,1.113
590,-9.9633,-0.843,0.0766,-1.6,3.8261,1.1826
595,-9.8866,-0.8814,0.0383,-1.7391,3.9652,1.1826
600,-9.925,-0.843,0.0383,-2.0174,3.9652,1.2522
605,-9.8866,-0.8047,0.0,-2.4348,4.0348,1.2522
610,-9.8483,-0.8814,0.115,-2.8522,3.9652,1.2522
615,-9.8866,-1.1113,0.1533,-2.9913,4.0348,1.113
620,-10.0016,-0.9197,0.0766,-3.0609,3.9652,1.113
625,-9.8483,-1.1113,0.1916,-2.9217,4.1043,1.113
630,-9.8483,-1.1879,0.0766,-2.8522,4.2435,1.1826
635,-9.9633,-1.0346,0.0,-2.713,4.1739,1.0435
640,-9.9633,-0.9963,0.115,-2.5739,4.2435,1.1826
645,-9.8866,-1.0346,0.0383,-2.2261,4.313,1.1826
650,-9.8483,-1.1496,0.1916,-2.2261,4.5217,1.1826
655,-9.8866,-1.1113,0.2299,-2.0174,4.8,1.1826
660,-9.81,-0.958,0.0766,-1.8783,5.0783,1.0435
665,-9.925,-1.1496,0.1916,-1.4609,5.2174,0.9739
670,-9.8866,-1.2263,0.1916,-1.2522,5.2174,1.0435
675,-9.8866,-1.1113,0.0383,-1.113,5.2174,1.0435
680,-9.8483,-1.1113,0.1916,-0.9739,5.1478,1.1826
685,-9.9633,-1.073,0.1533,-0.9043,5.0783,1.0435
690,-10.0016,-1.1113,0.0383,-0.8348,4.9391,1.0435
695,-9.925,-1.0346,0.0383,-0.6957,4.8696,0.9043
700,-10.0399,-1.073,0.0766,-0.6261,4.8696,0.9043
705,-10.0016,-0.8814,0.0383,-0.6261,5.0783,0.7652
710,-9.925,-0.9197,0.0766,-0.5565,5.287,0.5565
715,-9.925,-1.073,0.0383,-0.4174,5.4957,0.487
720,-9.8866,-1.0346,0.0766,-0.3478,5.6348,0.487
725,-9.925,-0.9197,0.0,-0.2783,5.7043,0.3478
730,-9.9633,-1.0346,0.0383,0.0,5.8435,0.3478
735,-9.81,-0.9197,-0.0383,0.2087,5.9826,0.2783
740,-9.8866,-1.0346,0.1533,0.3478,5.913,0.2783
745,-9.9633,-0.958,0.0383,0.4174,5.7739,0.2783
750,-9.9633,-0.9197,0.0766,0.487,5.5652,0.2087
755,-9.8866,-0.9963,0.0766,0.4174,5.287,0.3478
760,-9.9633,-1.073,0.0,0.487,4.9391,0.4174
765,-9.9633,-0.958,0.115,0.487,4.6609,0.5565
770,-9.9633,-0.843,0.0383,0.5565,4.313,0.6261
775,-9.8866,-0.8047,0.0,0.5565,4.1739,0.6957
780,-10.0016,-0.9197,0.0383,0.5565,4.1043,0.6261
785,-9.9633,-0.958,0.0,0.5565,4.0348,0.6261
790,-9.925,-0.8814,0.0383,0.3478,4.1043,0.5565
795,-9.9633,-0.958,0.0,0.2783,4.0348,0.6261
800,-9.9633,-0.958,0.0766,0.1391,3.8957,0.5565
805,-9.8866,-0.958,0.0383,0.1391,3.9652,0.5565
810,-10.0016,-0.8047,0.0766,0.2087,3.8957,0.487
815,-9.8866,-0.9197,0.0766,0.0696,3.7565,0.6261
820,-9.8866,-1.0346,0.0,0.1391,3.7565,0.487
825,-9.8866,-0.9963,0.115,0.0696,3.7565,0.4174
830,-10.0016,-0.9197,0.0,0.0,3.6174,0.4174
835,-10.0016,-0.9197,0.0383,0.1391,3.6174,0.487
840,-9.9633,-0.9963,0.115,0.1391,3.4783,0.2087
845,-9.8866,-0.958,0.115,0.2087,3.4783,0.487
850,-10.0016,-0.8047,0.115,0.1391,3.5478,0.2087
855,-9.8866,-1.0346,0.0,0.1391,3.7565,0.2087
860,-9.925,-1.0346,0.0383,0.1391,3.9652,0.0696
865,-9.925,-0.9963,0.0383,0.1391,4.0348,0.0696
870,-10.0016,-1.0346,0.0766,0.2783,4.0348,0.0
875,-9.9633,-0.9963,0.0383,0.3478,4.1043,0.1391
880,-10.0399,-0.9963,0.115,0.5565,3.8957,0.0
885,-9.925,-0.958,0.1916,0.6957,3.4783,0.2087
890,-10.0016,-0.958,0.0383,0.9043,3.1304,0.2783
895,-9.9633,-0.958,0.2299,0.9739,2.8522,0.5565
900,-9.8483,-0.8814,0.0,0.8348,2.713,0.4174
905,-10.0016,-0.8814,0.0766,0.5565,2.5739,0.6261
910,-9.925,-0.958,0.0766,0.2087,2.3652,0.4174
915,-10.0016,-0.9963,0.0,-0.1391,2.2261,0.487
920,-9.9633,-0.9963,0.115,-0.3478,2.087,0.3478
925,-9.9633,-0.958,0.0383,-0.4174,2.0174,0.3478
930,-10.0782,-0.843,0.115,-0.3478,1.9478,0.1391
935,-9.9633,-1.073,0.0766,-0.2087,1.8087,0.3478
940,-10.0399,-0.8814,0.0766,-0.2087,1.6696,0.1391
945,-10.0016,-0.9963,0.0766,-0.1391,1.8087,0.2087
950,-9.8866,-1.073,0.1916,-0.2783,1.8783,-0.0696
955,-9.925,-0.9963,0.0766,-0.487,1.8087,-0.0696
960,-10.0016,-0.958,0.0383,-0.6261,1.9478,-0.3478
965,-10.0399,-0.8814,0.0,-0.6957,2.0174,-0.2783
970,-9.925,-0.8047,0.115,-0.7652,2.087,-0.4174
975,-9.9633,-0.958,0.0383,-0.5565,2.1565,-0.3478
980,-10.0016,-0.9963,0.2299,-0.3478,2.0174,-0.487
985,-10.0399,-0.9963,0.0766,0.0,1.8783,-0.2783
990,-9.8866,-1.073,0.0383,0.4174,1.6696,-0.4174
995,-10.0016,-1.073,0.0383,0.7652,1.3217,-0.2783
1000,-9.81,-0.9197,0.0383,0.9739,1.3217,-0.2783
1005,-9.925,-0.8814,0.0766,1.1826,1.113,-0.2087
1010,-9.9633,-0.8814,0.2299,1.3913,1.0435,-0.2783
1015,-9.925,-0.958,0.0383,1.4609,0.9739,-0.0696
1020,-10.0016,-0.8814,0.1533,1.5304,0.7652,-0.0696
1025,-9.8866,-0.9963,0.115,1.6,0.3478,0.2087
1030,-10.0399,-0.7281,0.115,1.5304,0.0,0.0696
1035,-9.9633,-0.958,0.0766,1.4609,-0.2087,0.3478
1040,-10.0016,-0.7664,0.1533,1.3913,-0.487,0.2087
1045,-10.0016,-0.9197,0.0766,1.113,-0.487,0.2783
1050,-9.9633,-0.8814,0.0383,0.9739,-0.6957,0.1391
1055,-10.0016,-0.843,0.115,0.7652,-0.6261,0.1391
1060,-10.0782,-0.958,0.0766,0.6261,-0.5565,0.0
1065,-10.0016,-0.8047,0.1533,0.5565,-0.5565,0.1391
1070,-9.925,-0.9197,0.2299,0.6261,-0.487,0.0
1075,-10.0016,-0.8814,0.3066,0.6957,-0.487,0.1391
1080,-9.925,-1.073,0.1916,0.6261,-0.6261,-0.1391
1085,-9.9633,-0.8047,0.115,0.6957,-0.6957,0.1391
1090,-9.925,-0.958,0.0383,0.6261,-0.6261,0.0
1095,-9.925,-0.843,0.2299,0.5565,-0.7652,0.0696
1100,-9.8866,-0.9963,0.1533,0.6261,-0.6957,0.0
1105,-9.8866,-0.9197,0.1533,0.6957,-0.7652,0.1391
1110,-9.9633,-1.0346,0.0383,0.7652,-0.6957,-0.0696
1115,-10.0399,-0.958,0.1533,0.8348,-0.6957,0.0696
1120,-9.925,-0.9963,0.115,0.9739,-0.8348,0.0
1125,-10.0016,-0.9197,0.1533,1.1826,-1.113,0.2087
1130,-9.9633,-0.843,0.1533,1.1826,-1.2522,0.0
1135,-10.0016,-0.8814,0.1533,1.2522,-1.2522,0.2087
1140,-9.8866,-0.8814,0.1916,1.1826,-1.3913,0.1391
1145,-9.9633,-0.9197,0.0766,1.1826,-1.6,0.4174
1150,-9.9633,-0.7664,0.2299,1.0435,-1.8783,0.4174
1155,-10.0016,-0.7664,0.2682,1.0435,-2.087,0.5565
1160,-9.925,-0.9197,0.1916,0.9739,-2.1565,0.487
1165,-9.925,-0.8814,0.3832,0.9739,-2.2261,0.6261
1170,-9.925,-0.843,0.1533,1.0435,-2.5043,0.5565
1175,-9.925,-0.7664,0.1533,1.113,-2.6435,0.7652
1180,-9.8866,-0.9197,0.115,1.113,-2.5739,0.5565
1185,-9.9633,-0.9963,0.2682,1.1826,-2.7826,0.7652
1190,-9.8483,-0.8814,0.1533,1.1826,-2.7826,0.6261
1195,-10.0399,-0.843,0.115,1.2522,-2.7826,0.7652
1200,-9.8866,-0.9963,0.2682,1.2522,-2.7826,0.6957
1205,-9.8483,-0.958,0.1533,1.1826,-2.7826,0.8348
1210,-9.925,-0.9197,0.3832,1.113,-2.9217,0.7652
1215,-10.0782,-0.843,0.2682,1.1826,-3.2,0.9043
1220,-9.925,-0.9197,0.2299,1.113,-3.2,0.7652
1225,-9.925,-0.9197,0.3832,1.0435,-3.2,0.9739
1230,-10.0016,-0.843,0.2299,1.113,-3.2,0.8348
1235,-9.925,-0.843,0.2299,1.0435,-3.0609,0.9739
1240,-9.9633,-0.9963,0.1916,1.1826,-3.0609,0.8348
1245,-9.9633,-0.958,0.3832,1.0435,-3.0609,0.9739
1250,-9.8483,-0.9197,0.3449,0.9739,-2.9913,0.8348
1255,-9.925,-0.843,0.3449,0.9043,-2.9913,0.9043
1260,-9.8483,-0.958,0.3449,0.6957,-2.9217,0.7652
1265,-10.0399,-0.958,0.1533,0.5565,-2.9913,0.7652
1270,-9.9633,-0.9963,0.4215,0.2783,-3.0609,0.6957
1275,-9.9633,-0.9963,0.4598,0.2783,-2.7826,0.6957
1280,-9.8866,-0.9197,0.3832,0.1391,-2.713,0.6261
1285,-9.925,-0.958,0.4598,0.2087,-2.713,0.6957
1290,-9.8866,-0.8814,0.3832,0.1391,-2.6435,0.6957
1295,-9.8866,-0.8047,0.3066,0.1391,-2.5739,0.7652
1300,-9.8483,-0.8047,0.4215,0.2783,-2.5043,0.6261
1305,-9.8483,-1.0346,0.4598,0.3478,-2.087,0.7652
1310,-9.8866,-0.9963,0.2682,0.5565,-1.8087,0.487
1315,-9.81,-1.073,0.2682,1.113,-1.6,0.487
1320,-9.8866,-0.8814,0.2682,1.6696,-1.5304,0.4174
1325,-9.8866,-0.9963,0.3449,2.087,-1.3217,0.5565
1330,-9.7717,-0.843,0.5365,2.3652,-1.3217,0.4174
1335,-9.7717,-1.0346,0.4598,2.5739,-1.1826,0.6957
1340,-9.81,-0.8047,0.4598,2.713,-1.2522,0.5565
1345,-9.7717,-0.958,0.4215,2.7826,-1.3217,0.7652
1350,-9.81,-0.8814,0.4215,2.713,-1.4609,0.8348
1355,-9.7717,-0.8814,0.5748,2.5739,-1.4609,0.8348
1360,-9.7717,-0.8047,0.4982,2.6435,-1.4609,0.6261
1365,-9.81,-0.9197,0.6514,2.5739,-1.3913,0.7652
1370,-9.81,-0.7664,0.5748,2.6435,-1.4609,0.7652
1375,-9.7717,-0.843,0.6131,2.6435,-1.5304,0.8348
1380,-9.7717,-0.843,0.5365,2.5739,-1.5304,0.6957
1385,-9.8866,-0.8047,0.4982,2.6435,-1.4609,0.7652
1390,-9.8483,-0.7281,0.4982,2.3652,-1.3217,0.6261
1395,-9.7717,-0.8814,0.6131,2.087,-1.0435,0.5565
1400,-9.925,-0.7281,0.4982,1.8087,-0.7652,0.4174
1405,-9.695,-0.958,0.4982,1.3217,-0.487,0.4174
1410,-9.695,-0.8814,0.4982,1.0435,-0.2783,0.2783
1415,-9.8866,-0.9197,0.4598,0.8348,0.0,0.2087
1420,-9.8866,-0.843,0.6131,0.6957,0.2783,0.0696
1425,-9.925,-0.7664,0.5365,0.6957,0.487,0.0696
1430,-9.8483,-0.7664,0.6131,0.9043,0.5565,-0.1391
1435,-9.81,-0.958,0.6131,1.113,0.7652,-0.0696
1440,-9.8483,-0.8814,0.6131,1.3217,0.9739,-0.1391
1445,-9.8483,-0.9197,0.5748,1.6696,1.113,-0.1391
1450,-9.81,-0.8814,0.4598,1.9478,1.1826,-0.2087
1455,-9.695,-0.843,0.4982,2.2957,1.2522,-0.0696
1460,-9.8483,-0.7664,0.5365,2.4348,1.4609,0.0
1465,-9.8483,-0.843,0.7664,2.5739,1.3913,0.0
1470,-9.81,-0.843,0.4982,2.4348,1.4609,-0.1391
1475,-9.8483,-0.8047,0.5748,2.2957,1.6,-0.0696
1480,-9.8866,-0.8047,0.6514,2.1565,1.8087,-0.1391
1485,-9.8483,-0.8047,0.5748,1.8783,1.9478,-0.0696
1490,-9.7717,-0.7664,0.6514,1.7391,2.1565,0.0
1495,-9.695,-0.7664,0.6131,1.4609,2.2261,0.1391
1500,-9.8483,-0.7664,0.5748,1.3217,2.2957,0.2087
1505,-9.7717,-0.8814,0.6131,0.9043,2.5739,0.1391
1510,-9.7717,-0.8814,0.6514,0.6957,2.713,0.0
1515,-9.81,-0.843,0.5748,0.3478,2.7826,0.0696
1520,-9.8866,-0.8814,0.8047,0.2087,2.9217,0.0
1525,-9.8483,-0.958,0.6514,0.0696,2.9913,0.0
1530,-9.925,-0.843,0.6514,0.0,2.9913,0.0696
1535,-9.81,-0.7664,0.6514,-0.2087,3.0609,0.0
1540,-9.81,-0.843,0.5365,-0.3478,3.1304,0.0696
1545,-9.8483,-0.843,0.6131,-0.5565,3.2696,0.0696
1550,-9.8483,-0.8047,0.6898,-0.7652,3.4087,-0.0696
1555,-9.81,-0.843,0.5365,-0.9043,3.5478,-0.1391
1560,-9.8483,-0.843,0.5748,-1.1826,3.5478,-0.0696
1565,-9.81,-0.843,0.5748,-1.2522,3.4087,-0.0696
1570,-9.81,-0.843,0.7281,-1.3913,3.4087,-0.0696
1575,-9.925,-0.7664,0.5365,-1.3913,3.4783,-0.1391
1580,-9.7717,-0.9963,0.6514,-1.5304,3.4087,-0.0696
1585,-10.0016,-0.8814,0.5365,-1.4609,3.5478,-0.1391
1590,-9.8866,-0.843,0.4598,-1.6,3.6174,-0.2087
1595,-9.925,-0.8814,0.6514,-1.6696,3.6174,-0.2087
1600,-9.81,-0.958,0.5748,-1.8087,3.6174,-0.2783
1605,-9.8483,-0.8047,0.4598,-1.6696,3.687,-0.3478
1610,-9.925,-0.8047,0.7664,-1.6696,3.687,-0.2783
1615,-10.0016,-0.843,0.6514,-1.4609,3.687,-0.3478
1620,-9.925,-0.9197,0.5365,-1.2522,3.6174,-0.2087
1625,-9.925,-0.8814,0.5365,-1.2522,3.5478,-0.3478
1630,-9.8866,-0.9197,0.5365,-1.113,3.5478,-0.2087
1635,-9.8866,-0.8047,0.5748,-1.113,3.5478,-0.3478
1640,-9.81,-0.9197,0.6514,-1.113,3.5478,-0.2087
1645,-9.8483,-0.8814,0.4598,-1.1826,3.5478,-0.2783
1650,-9.925,-0.8047,0.4982,-1.2522,3.5478,-0.2087
1655,-9.8866,-0.8047,0.4982,-1.1826,3.4783,-0.2783
1660,-9.925,-0.8814,0.5365,-1.2522,3.4783,-0.1391
1665,-9.925,-0.8047,0.7281,-1.1826,3.6174,-0.2087
1670,-9.8483,-0.843,0.4982,-1.1826,3.5478,-0.1391
1675,-9.81,-0.958,0.4982,-1.1826,3.5478,-0.2783
1680,-9.7717,-0.843,0.5748,-1.1826,3.5478,-0.0696
1685,-9.7717,-0.9197,0.5365,-1.1826,3.6174,-0.1391
1690,-9.81,-0.8814,0.5748,-1.1826,3.4783,0.0696
1695,-9.8483,-0.9963,0.6131,-1.1826,3.5478,0.0
1700,-9.8483,-0.958,0.6514,-1.1826,3.5478,0.0696
1705,-9.925,-0.843,0.6131,-1.113,3.5478,0.0
1710,-9.9633,-0.7664,0.4598,-1.113,3.687,0.0696
1715,-9.9633,-0.9963,0.5748,-1.113,3.7565,0.0
1720,-9.925,-0.843,0.6514,-0.9739,3.7565,0.1391
1725,-9.9633,-0.8047,0.6514,-1.0435,3.7565,0.0696
1730,-9.8483,-0.7664,0.5365,-1.113,3.8261,0.1391
1735,-9.8483,-0.7664,0.5748,-1.3913,3.9652,0.0
1740,-9.8866,-0.843,0.5365,-1.6,3.8957,0.1391
1745,-9.8866,-0.9197,0.6514,-1.7391,3.9652,0.0
1750,-9.8866,-0.8047,0.6514,-1.8783,4.1739,0.0
1755,-9.695,-0.8047,0.4598,-1.9478,4.313,-0.1391
1760,-9.81,-0.9197,0.5748,-2.087,4.4522,0.0
1765,-9.8866,-0.843,0.5748,-2.0174,4.5913,-0.2783
1770,-9.695,-0.8814,0.6131,-1.8783,4.7304,-0.2783
1775,-9.695,-0.8047,0.5365,-1.8087,4.8696,-0.4174
1780,-9.8483,-0.7664,0.5748,-1.8783,4.8696,-0.2087
1785,-9.8866,-0.7664,0.5365,-2.0174,4.8696,-0.4174
1790,-9.8483,-0.843,0.6131,-2.0174,4.9391,-0.2783
1795,-9.8483,-0.843,0.8047,-2.0174,5.0087,-0.487
1800,-9.8483,-0.8814,0.6898,-2.087,5.1478,-0.3478
1805,-9.8483,-0.8814,0.5748,-2.2261,5.2174,-0.3478
1810,-9.81,-0.843,0.5748,-2.2957,5.287,-0.2783
1815,-9.8483,-0.843,0.6131,-2.3652,5.287,-0.3478
1820,-9.7717,-0.843,0.6514,-2.5043,5.1478,-0.1391
1825,-9.925,-0.8047,0.6131,-2.713,5.2174,-0.2087
1830,-9.8483,-0.9963,0.6898,-2.8522,5.0783,-0.1391
1835,-9.8866,-0.9197,0.6514,-2.9217,5.2174,-0.2087
1840,-9.925,-0.843,0.6131,-3.0609,5.2174,-0.0696
1845,-9.8483,-0.843,0.6131,-3.3391,5.3565,-0.2783
1850,-9.81,-0.8047,0.6131,-3.5478,5.3565,-0.2783
1855,-9.81,-0.7664,0.4215,-3.687,5.4261,-0.3478
1860,-9.8866,-0.8814,0.4982,-4.0348,5.6348,-0.2783
1865,-9.925,-0.8814,0.5748,-4.5217,5.4957,-0.4174
1870,-9.81,-0.7664,0.5365,-4.8,5.6348,-0.2783
1875,-9.8866,-0.8814,0.4982,-5.1478,5.7043,-0.3478
1880,-9.925,-0.8047,0.5365,-5.3565,5.6348,-0.2087
1885,-9.8483,-0.8814,0.4982,-5.6348,5.5652,-0.4174
1890,-9.81,-0.9197,0.4598,-5.6348,5.5652,-0.2087
1895,-10.0016,-0.8814,0.5748,-5.6348,5.4957,-0.4174
1900,-9.8483,-0.958,0.5365,-5.4957,5.3565,-0.2783
1905,-9.925,-1.0346,0.4982,-5.3565,5.287,-0.2783
1910,-9.7717,-1.073,0.4982,-4.9391,5.2174,-0.0696
1915,-10.0399,-0.958,0.4215,-4.7304,5.0783,-0.2783
1920,-9.8483,-1.0346,0.4982,-4.3826,4.7304,-0.1391
1925,-9.8866,-0.9963,0.5365,-4.1043,4.5913,-0.3478
1930,-9.925,-0.958,0.4215,-3.8957,4.5217,-0.2783
1935,-9.925,-1.0346,0.4982,-3.4783,4.4522,-0.2783
1940,-9.8866,-0.958,0.5365,-3.2696,4.313,-0.2087
1945,-9.9633,-0.8814,0.5748,-2.9217,4.2435,-0.3478
1950,-9.81,-0.958,0.4598,-2.713,4.1739,-0.1391
1955,-9.81,-0.9197,0.4598,-2.5043,4.0348,-0.2783
1960,-9.8483,-0.8047,0.5365,-2.3652,4.1043,-0.2087
1965,-9.8483,-0.958,0.4215,-2.5043,4.1739,-0.2783
1970,-9.8483,-0.9963,0.3832,-2.5043,4.313,-0.2087
1975,-9.8866,-1.073,0.3832,-2.3652,4.5217,-0.4174
1980,-9.8866,-1.1113,0.4598,-2.087,4.5913,-0.2783
1985,-9.9633,-0.8814,0.5365,-1.6,4.5217,-0.4174
1990,-9.7717,-1.073,0.4598,-1.2522,4.3826,-0.0696
1995,-9.8483,-0.9963,0.4982,-0.9043,4.1043,-0.2783
2000,-9.9633,-1.073,0.5365,-0.6261,3.8957,0.0
2005,-9.925,-0.8814,0.4598,-0.5565,3.5478,-0.0696
2010,-9.925,-0.843,0.5365,-0.6957,3.3391,0.0696
2015,-9.9633,-0.8047,0.4598,-0.487,3.1304,-0.0696
2020,-9.8866,-0.9197,0.4598,-0.2783,2.9913,0.0
2025,-10.0399,-0.8047,0.6131,-0.2087,2.9217,-0.1391
2030,-10.0016,-0.9963,0.5365,0.0,2.8522,0.0
2035,-9.9633,-0.8047,0.5365,0.2783,2.8522,-0.2087
2040,-9.925,-0.9197,0.4598,0.4174,2.6435,-0.1391
2045,-9.8866,-0.843,0.4982,0.6261,2.6435,-0.4174
2050,-9.81,-0.843,0.4598,1.0435,2.6435,-0.4174
2055,-9.8866,-0.958,0.6514,1.2522,2.5043,-0.6957
2060,-9.8483,-0.9963,0.6131,1.5304,2.5043,-0.6957
2065,-9.81,-0.9197,0.6131,1.7391,2.6435,-0.9043
2070,-9.9633,-0.843,0.4982,2.0174,2.713,-0.9043
2075,-9.8866,-0.9197,0.4982,2.1565,2.713,-1.113
2080,-9.8483,-0.843,0.5748,2.1565,2.7826,-0.9739
2085,-9.925,-0.8047,0.4598,2.2261,2.9217,-1.2522
2090,-9.8866,-0.843,0.4598,2.1565,3.0609,-1.113
2095,-9.8866,-0.7664,0.6131,1.9478,3.1304,-1.113
2100,-9.8483,-0.7664,0.5748,1.5304,3.3391,-1.1826
2105,-9.81,-0.8047,0.5365,1.1826,3.5478,-1.1826
2110,-9.925,-0.7281,0.6131,0.5565,3.687,-1.113
2115,-9.8483,-0.7664,0.7281,-0.0696,3.8957,-1.1826
2120,-9.8483,-0.7664,0.6898,-0.6261,3.8261,-0.9739
2125,-9.8866,-0.8047,0.8047,-1.3217,3.8957,-1.113
2130,-9.81,-0.7664,0.6898,-1.9478,3.8261,-0.9739
2135,-9.81,-0.9197,0.6898,-2.2957,3.8957,-1.113
2140,-9.7717,-0.8047,0.7664,-2.7826,4.0348,-0.9739
2145,-9.7334,-0.958,0.7664,-2.9217,4.1043,-1.113
2150,-9.8483,-0.8047,0.6898,-3.0609,4.0348,-0.9739
2155,-9.81,-0.958,0.4215,-2.9913,3.9652,-0.9043
2160,-9.8483,-0.8814,0.6131,-2.9217,3.8957,-0.7652
2165,-9.81,-0.9963,0.4598,-2.7826,3.8957,-0.9043
2170,-9.925,-0.958,0.4982,-2.6435,3.8957,-0.6261
2175,-9.81,-0.9963,0.5365,-2.6435,3.7565,-0.7652
2180,-9.8483,-0.9963,0.4215,-2.5739,3.687,-0.6261
2185,-9.9633,-0.9963,0.5365,-2.5739,3.687,-0.7652
2190,-9.9633,-1.073,0.3449,-2.6435,3.6174,-0.6957
2195,-9.81,-1.0346,0.5365,-2.6435,3.5478,-0.7652
2200,-9.925,-0.9963,0.4982,-2.6435,3.5478,-0.6957
2205,-9.9633,-0.8047,0.5748,-2.5739,3.5478,-0.7652
2210,-9.925,-0.9963,0.4598,-2.7826,3.6174,-0.6261
2215,-9.81,-1.0346,0.4982,-2.9913,3.4087,-0.6261
2220,-9.8483,-0.9963,0.6131,-3.2,3.3391,-0.487
2225,-9.925,-1.073,0.6514,-3.2,3.1304,-0.487
2230,-9.81,-1.0346,0.4215,-3.2696,3.0609,-0.487
2235,-9.9633,-0.9963,0.5365,-3.4783,2.7826,-0.3478
2240,-9.925,-1.073,0.5748,-3.3391,2.5043,-0.2087
2245,-9.81,-0.958,0.5365,-3.4087,2.4348,-0.3478
2250,-9.8866,-1.073,0.6514,-3.1304,2.2957,-0.2087
2255,-9.8866,-1.0346,0.4598,-2.9913,2.2261,-0.2087
2260,-9.81,-1.1113,0.5748,-2.713,1.9478,-0.1391
2265,-9.8866,-0.958,0.6131,-2.5739,1.8783,-0.2087
2270,-9.925,-0.9963,0.4215,-2.5043,1.7391,0.0
2275,-9.8483,-1.073,0.6131,-2.2957,1.8087,0.0
2280,-9.7717,-1.073,0.5365,-2.1565,1.8783,0.0
2285,-9.8483,-1.073,0.6514,-2.0174,1.8087,0.0696
2290,-9.925,-1.0346,0.5365,-2.087,1.9478,0.0696
2295,-9.81,-0.843,0.5748,-2.1565,2.0174,0.1391
2300,-9.81,-0.9197,0.6898,-2.3652,1.9478,0.0696
2305,-9.8483,-1.0346,0.6898,-2.5043,2.087,0.0696
2310,-9.925,-0.8814,0.3832,-2.713,2.2261,0.1391
2315,-9.7717,-1.0346,0.5748,-2.8522,2.3652,0.2087
2320,-9.8483,-0.9197,0.5748,-3.2,2.2957,0.3478
2325,-9.81,-0.958,0.5365,-3.3391,2.2261,0.4174
2330,-9.8483,-0.8814,0.6898,-3.4783,2.1565,0.5565
2335,-9.8483,-0.7281,0.5748,-3.6174,2.087,0.6261
2340,-9.8483,-0.958,0.6514,-3.7565,2.087,0.7652
2345,-9.81,-0.8814,0.6131,-3.8261,2.087,0.6957
2350,-9.8483,-0.843,0.6514,-4.0348,2.087,0.5565
2355,-9.7717,-0.8047,0.7281,-4.1739,2.2957,0.5565
2360,-9.8483,-0.8814,0.6131,-4.4522,2.3652,0.5565
2365,-9.925,-0.8047,0.6131,-4.6609,2.5043,0.487
2370,-9.8866,-0.8814,0.843,-4.5913,2.5739,0.3478
2375,-9.8866,-0.958,0.6898,-4.4522,2.713,0.4174
2380,-9.7334,-0.843,0.6898,-4.313,2.713,0.4174
2385,-9.7334,-0.9197,0.6514,-4.1043,2.9217,0.4174
2390,-9.7717,-0.9197,0.7281,-3.8957,2.9217,0.2783
2395,-9.81,-0.958,0.5748,-3.5478,2.9913,0.2087
2400,-9.7717,-0.8814,0.6131,-3.4783,3.1304,0.0696
2405,-9.8483,-0.8814,0.6514,-3.4087,3.3391,0.0
2410,-9.8483,-0.958,0.5748,-3.2696,3.4783,-0.1391
2415,-9.81,-0.9963,0.7281,-3.2,3.5478,-0.2087
2420,-9.81,-0.8814,0.6514,-3.3391,3.8261,-0.2783
2425,-9.7717,-0.958,0.6131,-3.2,3.8957,-0.2087
2430,-9.8866,-0.958,0.7281,-2.9217,3.8261,-0.3478
2435,-9.7717,-0.9197,0.5748,-2.7826,3.8957,-0.2783
2440,-9.81,-0.9963,0.6131,-2.5739,3.8957,-0.3478
2445,-9.925,-0.8814,0.6898,-2.1565,3.9652,-0.3478
2450,-9.8483,-0.9197,0.6131,-1.8087,4.0348,-0.3478
2455,-9.81,-0.958,0.4982,-1.3913,3.9652,-0.3478
2460,-9.8483,-0.958,0.6514,-1.2522,4.1043,-0.487
2465,-9.8483,-0.8047,0.6131,-1.0435,4.1043,-0.3478
2470,-9.8483,-0.958,0.4982,-0.8348,4.1739,-0.4174
2475,-9.8483,-0.843,0.4982,-0.7652,4.1043,-0.3478
2480,-9.81,-0.9963,0.5748,-0.8348,4.1739,-0.487
2485,-9.925,-0.8814,0.7664,-0.7652,4.1043,-0.3478
2490,-9.81,-0.9197,0.6898,-0.7652,4.1739,-0.5565
2495,-9.81,-0.9963,0.6514,-0.6957,4.2435,-0.4174
2500,-9.925,-0.8814,0.4982,-0.6957,4.2435,-0.6261
2505,-9.7717,-1.0346,0.6131,-0.6261,4.313,-0.487
2510,-9.81,-0.9197,0.5365,-0.6261,4.313,-0.6261
2515,-9.7717,-1.073,0.6514,-0.6957,4.3826,-0.4174
2520,-9.925,-0.843,0.4598,-0.5565,4.3826,-0.487
2525,-9.81,-1.1496,0.7281,-0.5565,4.3826,-0.2783
2530,-9.8483,-1.073,0.7664,-0.5565,4.3826,-0.4174
2535,-9.8483,-1.073,0.6514,-0.5565,4.3826,-0.1391
2540,-9.81,-0.9963,0.6514,-0.487,4.4522,-0.2087
2545,-9.8483,-0.9197,0.6514,-0.3478,4.5217,-0.1391
2550,-9.7717,-0.958,0.6514,-0.3478,4.4522,0.0
2555,-9.81,-1.0346,0.6514,-0.2087,4.4522,0.2783
2560,-9.81,-0.9197,0.5365,-0.2783,4.4522,0.2087
2565,-9.7717,-0.9963,0.6898,-0.2783,4.3826,0.4174
2570,-9.8483,-0.9197,0.4598,-0.487,4.4522,0.2783
2575,-9.8483,-0.843,0.7281,-0.6957,4.5913,0.2783
2580,-9.8483,-1.073,0.5748,-0.6957,4.6609,0.2087
2585,-9.7717,-1.0346,0.6514,-0.6261,4.7304,0.2783
2590,-9.81,-0.958,0.6514,-0.487,4.7304,0.2087
2595,-9.8866,-0.9963,0.6131,-0.3478,4.8696,0.3478
2600,-9.8483,-1.0346,0.5748,0.0,4.8696,0.1391
2605,-9.7717,-1.073,0.5365,0.2087,4.9391,0.4174
2610,-9.7717,-0.9197,0.6514,0.2783,4.8696,0.1391
2615,-9.7717,-1.073,0.5748,0.3478,4.9391,0.3478
2620,-9.8866,-0.958,0.7281,0.1391,5.1478,0.1391
2625,-9.8483,-0.958,0.5748,0.1391,5.3565,0.2087
2630,-9.925,-0.958,0.7664,0.2087,5.5652,0.0
2635,-9.7717,-1.073,0.6514,0.2783,5.6348,0.2087
2640,-9.7717,-1.0346,0.4215,0.487,5.6348,0.0
2645,-9.8483,-0.9197,0.5748,0.487,5.5652,0.2087
2650,-9.81,-0.8814,0.5748,0.487,5.3565,0.0696
2655,-9.8866,-0.958,0.6514,0.2783,5.2174,0.2087
2660,-9.7334,-0.843,0.5365,0.0696,5.0783,0.0
2665,-9.8483,-0.843,0.5365,0.0,4.9391,0.1391
2670,-9.925,-0.8047,0.3832,-0.0696,4.8,-0.0696
2675,-9.8483,-0.958,0.6514,0.0696,4.6609,0.1391
2680,-9.8483,-0.958,0.6131,0.2087,4.5913,0.0
2685,-9.81,-0.843,0.5748,0.4174,4.5913,0.2087
2690,-9.8866,-0.9963,0.6131,0.4174,4.3826,0.0
2695,-10.0016,-0.8814,0.7664,0.5565,4.1739,0.1391
2700,-9.8866,-0.8814,0.7281,0.487,4.1739,0.0
2705,-9.925,-0.8814,0.5365,0.5565,4.0348,0.0696
2710,-9.8866,-0.8047,0.5748,0.487,4.1739,-0.1391
2715,-9.925,-0.843,0.5748,0.487,4.2435,-0.1391
2720,-9.8866,-0.9197,0.3832,0.3478,4.313,-0.4174
2725,-9.8483,-0.843,0.4982,0.3478,4.2435,-0.2783
2730,-9.925,-0.9197,0.4982,0.2087,4.2435,-0.5565
2735,-9.925,-0.958,0.5365,0.4174,4.1739,-0.487
2740,-9.925,-0.958,0.5365,0.5565,4.0348,-0.7652
2745,-9.8866,-0.8814,0.3066,0.9043,3.8957,-0.6957
2750,-9.8483,-1.073,0.5365,1.0435,3.8261,-0.9739
2755,-9.925,-0.958,0.5365,1.5304,3.6174,-0.8348
2760,-10.0399,-1.073,0.4215,1.8087,3.2696,-1.0435
2765,-9.8483,-1.1113,0.4982,2.087,2.8522,-0.8348
2770,-9.8866,-0.9963,0.4982,2.3652,2.4348,-1.113
2775,-9.5418,-0.6898,1.2263,2.5043,1.8783,-0.9043
2780,-10.0016,-0.9963,0.4982,2.5043,1.5304,-1.2522
2785,-10.0399,-1.073,0.5365,2.3652,0.9739,-1.3217
2790,-10.0016,-1.0346,0.3832,2.087,0.2087,-1.6696
2795,-10.1166,-1.0346,0.5748,1.8783,-0.5565,-1.6
2800,-10.0016,-1.073,0.5748,1.6696,-1.2522,-2.0174
2805,-9.9633,-1.1879,0.6131,1.2522,-1.6696,-2.1565
2810,-10.0782,-1.2646,0.7281,0.9739,-1.8783,-2.713
2815,-10.2315,-1.1496,0.6898,1.4609,-1.9478,-2.9217
2820,-10.2698,-1.0346,0.5748,2.2261,-1.9478,-3.3391
2825,-10.3465,-0.9963,0.5365,2.9913,-2.2957,-3.4783
2830,-10.3848,-0.843,0.3066,3.8261,-2.5043,-3.9652
2835,-10.3848,-0.843,0.115,4.1043,-2.5739,-4.1739
2840,-10.3465,-0.7664,0.3066,3.8261,-2.7826,-4.8
2845,-10.3465,-0.8047,0.2682,3.1304,-3.2,-5.1478
2850,-10.5381,-0.7664,0.3066,2.1565,-3.6174,-5.5652
2855,-10.5381,-0.7664,0.3449,1.113,-4.6609,-5.6348
2860,-10.5381,-0.6514,0.4215,0.1391,-5.7043,-5.7043
2865,-10.5381,-0.4598,0.2682,-0.6261,-6.5391,-5.0783
2870,-10.5381,-0.8814,0.115,-1.6,-8.0,-4.8
2875,-10.5764,-0.7664,0.4982,-4.9391,-10.5043,-3.3391
2880,-10.5381,-0.8814,0.4598,-7.7217,-14.8174,-2.7826
2885,-10.3465,-0.8047,0.4215,-8.9043,-18.713,-2.5043
2890,-10.3465,-0.9197,0.4598,-10.087,-22.1217,-2.2261
2895,-10.0782,-1.0346,0.1916,-11.4087,-24.487,-1.5304
2900,-10.1549,-0.7281,0.6131,-13.0087,-26.0174,-1.6
2905,-10.3082,-1.2263,0.1533,-13.287,-26.8522,-1.8783
2910,-10.6914,-1.073,0.6131,-14.9565,-28.6609,-1.8783
2915,-10.6914,-1.0346,0.843,-14.6783,-32.2783,-0.4174
2920,-10.653,-1.073,0.843,-12.5217,-36.9391,-0.0696
2925,-10.6147,-1.0346,0.7281,-10.0174,-42.5739,0.2783
2930,-10.5764,-0.7281,0.9197,-9.2522,-45.913,-0.0696
2935,-10.3465,-1.3029,0.3832,-8.6261,-47.0261,-0.8348
2940,-10.4614,-1.3795,0.6514,-11.9652,-47.3739,-0.6957
2945,-10.6147,-1.6095,0.9197,-14.4,-48.2087,0.6957
2950,-10.8063,-1.5328,0.958,-14.3304,-49.0435,0.6957
2955,-10.7297,-1.4562,1.1113,-13.1478,-51.8261,1.0435
2960,-10.5764,-1.4179,1.2263,-12.1043,-56.1391,2.7826
2965,-10.4614,-1.3412,1.1879,-9.7391,-59.9652,4.313
2970,-10.2698,-1.5328,1.2263,-9.113,-63.7217,4.8696
2975,-10.3082,-1.3029,1.4562,-10.9913,-66.6435,6.9565
2980,-10.0016,-1.2646,1.6095,-11.1304,-68.6609,7.9304
2985,-9.7717,-1.4179,1.6095,-11.0609,-69.7043,6.887
2990,-9.5034,-1.2646,1.5711,-11.687,-70.6087,5.7043
2995,-9.4268,-1.7244,1.8011,-12.4522,-70.8174,6.4696
