timestamp,accX,accY,accZ,gyroX,gyroY,gyroZ
0,-0.9963,-8.7754,5.0966,2.6435,5.0783,-1.1826
5,-0.9197,-8.852,5.1349,2.087,5.2174,-1.1826
10,-0.9197,-9.0436,5.0966,1.6,5.0087,-1.1826
15,-0.9197,-9.0053,5.1732,1.2522,4.9391,-0.9739
20,-0.9197,-8.9286,5.2499,1.0435,4.5913,-0.6957
25,-0.8814,-9.0819,5.2116,0.9739,4.3826,-0.4174
30,-0.843,-8.9286,5.3648,1.0435,4.313,-0.1391
35,-0.958,-8.8903,5.2499,0.9739,4.4522,0.0696
40,-0.8814,-8.8137,5.1349,0.8348,4.4522,0.2087
45,-0.9197,-8.8137,5.2116,0.7652,4.4522,0.1391
50,-0.8047,-8.8903,5.1349,0.4174,4.313,0.0696
55,-0.8047,-8.967,5.0966,0.1391,4.1043,0.0696
60,-0.9197,-8.852,5.1732,-0.2783,3.687,0.0
65,-0.9197,-8.852,5.1349,-0.6261,3.5478,-0.0696
70,-0.7281,-8.8137,5.0966,-0.7652,3.4087,-0.2783
75,-0.6514,-8.8903,5.1349,-0.6957,3.4783,-0.2087
80,-0.6514,-8.967,5.0966,-0.5565,3.687,-0.2783
85,-0.7664,-8.852,5.0966,-0.3478,3.9652,-0.487
90,-0.8047,-8.8903,5.2116,-0.0696,4.2435,-0.5565
95,-0.8047,-8.8137,5.02,0.2783,4.2435,-0.487
100,-0.8047,-8.852,5.2116,0.487,4.3826,-0.5565
105,-0.843,-8.967,5.0583,0.6957,4.4522,-0.6957
110,-0.8047,-8.967,5.0966,0.7652,4.4522,-0.8348
115,-0.7664,-8.967,5.1349,0.9739,4.5913,-0.7652
120,-0.8814,-9.0053,5.0583,1.0435,4.8,-0.6957
125,-0.8047,-9.0819,4.9433,1.0435,4.7304,-0.6261
130,-0.7281,-8.967,5.02,1.113,4.8696,-0.6261
135,-1.1879,-9.1202,5.1732,1.3217,4.8696,-0.5565
140,-0.843,-8.8903,5.1349,1.3217,4.8696,-0.3478
145,-0.7664,-9.0053,5.02,1.3217,5.1478,-0.2783
150,-0.843,-8.8903,4.9816,1.3217,5.2174,-0.2087
155,-0.7281,-8.9286,5.0966,1.1826,5.4261,-0.0696
160,-0.8814,-8.8903,5.0966,1.113,5.5652,-0.0696
165,-0.8814,-8.852,5.0583,1.0435,5.7043,0.0696
170,-0.8047,-8.9286,5.0966,0.9739,5.8435,0.0
175,-0.8814,-8.8903,4.9816,0.9043,6.0522,0.0696
180,-0.8814,-8.9286,5.1349,0.6957,6.1913,-0.0696
185,-0.9963,-9.0053,5.1349,0.6261,6.2609,0.0
190,-0.843,-8.9286,5.0583,0.487,6.4,0.0696
195,-0.9197,-8.8137,5.0583,0.2783,6.3304,-0.0696
200,-0.9963,-8.737,5.0583,0.0696,6.3304,-0.0696
205,-0.8814,-8.8137,5.0583,-0.1391,6.0522,-0.0696
210,-0.8814,-8.8903,5.0966,-0.2783,5.913,-0.0696
215,-0.8814,-8.7754,4.9816,-0.3478,5.7739,-0.2783
220,-0.8047,-8.967,5.1732,-0.4174,5.7043,-0.3478
225,-0.8047,-8.8903,5.1349,-0.3478,5.7043,-0.2783
230,-0.8047,-8.8137,5.1732,-0.3478,5.6348,-0.3478
235,-0.843,-8.9286,5.0583,-0.487,5.7043,-0.3478
240,-0.7281,-8.8903,5.1732,-0.6261,5.5652,-0.5565
245,-0.7281,-8.7754,5.5564,-0.6261,5.4957,-0.5565
250,-0.843,-8.9286,5.1349,-0.6957,5.5652,-0.487
255,-0.8814,-8.9286,5.1349,-0.6261,5.4957,-0.487
260,-0.8047,-8.8903,5.0966,-0.4174,5.6348,-0.487
265,-0.958,-8.9286,5.1732,-0.487,5.5652,-0.4174
270,-0.9197,-8.967,5.02,-0.4174,5.7043,-0.3478
275,-0.958,-8.8903,5.1732,-0.4174,5.4957,-0.2087
280,-0.9197,-8.9286,5.2882,-0.2783,5.4261,-0.0696
285,-0.8814,-8.852,5.02,-0.2087,5.4261,0.0
290,-0.8814,-8.852,5.1349,-0.0696,5.2174,-0.0696
295,-0.9197,-8.8137,5.2499,0.0696,5.3565,0.0
300,-0.8047,-8.852,5.1732,0.1391,5.4957,0.0
305,-0.9197,-8.8137,5.2116,0.2783,5.6348,0.0696
310,-0.8814,-8.8137,5.2116,0.3478,5.5652,0.0696
315,-0.8814,-8.8137,5.2116,0.3478,5.5652,0.2783
320,-0.9197,-8.6987,5.0583,0.2087,5.5652,0.0696
325,-0.9197,-8.852,5.3265,0.1391,5.5652,0.0
330,-1.0346,-8.737,5.2116,0.0,5.4957,-0.1391
335,-0.9963,-8.8137,5.1349,-0.1391,5.287,-0.1391
340,-0.958,-8.967,5.0966,-0.4174,5.2174,-0.1391
345,-0.8814,-8.8903,5.2116,-0.5565,5.1478,-0.2783
350,-0.9963,-8.8137,5.1349,-0.5565,5.2174,-0.2783
355,-1.1496,-8.967,5.3265,-0.4174,5.287,-0.0696
360,-0.8814,-8.852,5.1732,-0.2783,5.2174,0.0696
365,-0.843,-8.8903,5.1349,-0.2087,5.0783,0.0696
370,-1.0346,-8.737,5.1732,-0.0696,5.0087,0.0696
375,-0.8814,-8.852,5.0583,-0.0696,4.8,0.2783
380,-0.958,-8.7754,5.02,-0.2087,4.8696,0.3478
385,-0.8814,-8.7754,5.2882,-0.3478,4.9391,0.2783
390,-0.8814,-8.7754,5.0966,-0.487,5.0087,0.2087
395,-0.958,-8.8903,5.2499,-0.7652,5.0783,0.1391
400,-0.7664,-8.8903,5.1349,-1.1826,5.2174,0.1391
405,-0.958,-9.0053,5.1349,-1.3913,5.2174,-0.0696
410,-0.8814,-8.8903,5.1349,-1.3217,5.2174,-0.2087
415,-0.8814,-9.0053,5.0583,-1.2522,5.0783,-0.2087
420,-0.9197,-8.8137,4.9816,-1.1826,4.8696,-0.2783
425,-0.9197,-8.852,4.9816,-1.1826,4.6609,-0.4174
430,-0.8814,-8.967,4.9816,-1.2522,4.5913,-0.3478
435,-0.8047,-8.9286,5.0583,-1.2522,4.5217,-0.3478
440,-0.843,-8.9286,5.0966,-0.9739,4.7304,-0.487
445,-0.958,-8.8903,5.0583,-0.7652,4.7304,-0.487
450,-0.958,-8.9286,5.0966,-0.4174,4.5913,-0.4174
455,-0.9197,-8.8137,5.1349,-0.1391,4.5217,-0.3478
460,-0.9197,-8.8903,5.1732,-0.0696,4.4522,-0.3478
465,-0.7281,-8.5071,5.2499,0.0696,4.3826,-0.2087
470,-0.9197,-8.852,5.2499,0.1391,4.4522,-0.2087
475,-0.9197,-8.852,5.02,0.1391,4.5913,-0.2087
480,-0.958,-8.8903,5.1349,0.1391,4.4522,-0.2087
485,-0.9197,-8.852,5.1732,0.0696,4.2435,-0.2783
490,-0.958,-8.8137,5.1732,0.0696,4.2435,-0.3478
495,-0.958,-8.7754,5.1349,0.0696,4.313,-0.4174
500,-0.8047,-8.8903,5.0583,0.0,4.3826,-0.5565
505,-0.7664,-8.852,5.02,-0.2087,4.5913,-0.6957
510,-0.8814,-8.8137,5.02,-0.3478,4.8,-0.7652
515,-0.843,-8.7754,5.2116,-0.487,5.0087,-0.7652
520,-0.843,-8.852,5.2116,-0.7652,5.1478,-0.9043
525,-0.8814,-8.6987,5.1349,-1.0435,5.287,-0.9043
530,-0.843,-8.6987,5.1349,-1.2522,5.1478,-0.9043
535,-0.6898,-8.852,5.02,-1.3217,5.0783,-0.9043
540,-0.9197,-8.7754,5.0583,-1.5304,5.0087,-0.9043
545,-0.8047,-8.8137,5.1349,-1.8087,5.0087,-0.7652
550,-0.8047,-8.8903,5.0583,-1.8087,5.1478,-0.7652
555,-0.9197,-8.9286,5.2116,-1.7391,5.2174,-0.6957
560,-0.9197,-8.9286,5.1349,-1.6696,5.287,-0.6261
565,-0.8814,-8.9286,5.2499,-1.6,5.3565,-0.6261
570,-0.9963,-8.8903,5.0966,-1.4609,5.4261,-0.6261
575,-0.958,-8.737,5.1349,-1.3217,5.2174,-0.5565
580,-0.8814,-8.737,5.1349,-1.113,5.2174,-0.5565
585,-0.843,-8.852,5.0583,-0.9739,5.0087,-0.4174
590,-0.843,-8.9286,5.02,-0.9043,5.0087,-0.4174
595,-0.9197,-8.967,5.0966,-0.9043,5.0087,-0.3478
600,-0.9197,-8.8903,5.02,-0.8348,4.8,-0.3478
605,-0.8814,-8.8903,5.1349,-0.8348,4.7304,-0.3478
610,-0.8047,-8.7754,5.2116,-0.8348,4.7304,-0.3478
615,-0.8047,-8.8137,5.1349,-0.8348,5.0087,-0.4174
620,-0.843,-8.967,5.1349,-0.7652,5.0783,-0.4174
625,-0.8814,-8.7754,4.9433,-0.9043,5.287,-0.2783
630,-0.8814,-8.9286,5.0966,-1.0435,5.3565,-0.2783
635,-0.8047,-8.852,5.1732,-0.9739,5.4261,-0.3478
640,-0.958,-8.8137,5.0966,-1.0435,5.287,-0.2087
645,-0.9197,-8.852,5.1349,-1.0435,5.3565,-0.1391
650,-0.958,-8.9286,5.0966,-1.0435,5.2174,0.0
655,-0.8814,-8.852,5.0583,-1.0435,5.1478,0.0
660,-0.9963,-8.9286,5.0583,-1.0435,5.1478,0.0
665,-0.843,-8.967,5.0583,-0.9739,4.9391,0.0696
670,-0.9197,-8.852,5.1349,-0.8348,4.8,-0.0696
675,-0.958,-8.9286,5.2116,-0.7652,4.7304,-0.1391
680,-0.9963,-8.737,4.905,-0.7652,4.8696,-0.2087
685,-1.0346,-8.8903,5.0966,-0.7652,5.0087,-0.1391
690,-0.8814,-8.8903,5.3265,-0.5565,5.0087,-0.2087
695,-0.8814,-8.8137,5.02,-0.4174,5.0087,-0.2783
700,-1.0346,-8.8137,5.1349,-0.2087,5.0087,-0.4174
705,-1.0346,-8.8903,5.0583,-0.0696,5.0783,-0.487
710,-0.958,-8.737,5.1349,-0.0696,5.0087,-0.487
715,-0.843,-8.8903,5.0966,-0.0696,5.0783,-0.487
720,-1.0346,-8.8137,5.1349,-0.0696,5.0783,-0.2783
725,-0.9197,-8.852,5.1349,-0.2087,5.0087,-0.2087
730,-0.8814,-8.852,5.02,-0.2087,5.0087,-0.2783
735,-0.9197,-8.9286,5.1349,-0.2783,5.0783,-0.0696
740,-0.9197,-8.8903,5.1349,-0.3478,5.0783,-0.0696
745,-0.8814,-8.852,5.02,-0.5565,5.2174,0.0
750,-0.8814,-8.8903,5.0966,-0.6261,5.1478,0.0696
755,-0.8814,-8.9286,5.1349,-0.6957,5.4261,0.0696
760,-0.843,-8.8137,5.2116,-0.6261,5.4261,0.1391
765,-0.9197,-9.0053,5.2882,-0.6957,5.3565,0.0
770,-0.8814,-8.9286,5.0966,-0.5565,5.287,0.0696
775,-0.9197,-8.852,5.2882,-0.487,5.2174,0.0
780,-0.8047,-8.852,5.0583,-0.487,5.2174,-0.0696
785,-0.9963,-8.737,5.0966,-0.6261,5.1478,-0.0696
790,-0.843,-8.8137,5.4415,-0.6957,5.1478,-0.2087
795,-0.843,-8.8137,5.0583,-0.9043,5.0783,-0.2087
800,-0.8814,-8.852,5.02,-1.1826,4.9391,-0.3478
805,-0.7664,-8.8137,5.0583,-1.3913,4.9391,-0.4174
810,-0.7664,-9.0053,5.0966,-1.3913,4.7304,-0.4174
815,-0.7664,-8.8903,5.1732,-1.3217,4.5913,-0.3478
820,-0.9197,-8.9286,5.1732,-1.2522,4.3826,-0.3478
825,-0.843,-8.967,5.1732,-0.9043,4.2435,-0.487
830,-0.8814,-8.8903,5.2499,-0.4174,4.0348,-0.3478
835,-0.843,-8.8903,5.1732,-0.1391,3.8261,-0.2087
840,-0.9197,-8.9286,5.1732,0.2087,3.8261,-0.2087
845,-1.073,-8.737,5.1349,0.487,3.8957,-0.1391
850,-0.9963,-8.8903,5.1732,0.7652,3.9652,-0.1391
855,-0.8047,-8.7754,5.1349,0.7652,4.0348,-0.0696
860,-0.9197,-8.9286,5.2116,0.6957,4.1739,-0.0696
865,-0.9197,-8.8903,5.0583,0.5565,4.3826,0.0
870,-0.9963,-8.737,5.0583,0.4174,4.313,0.0
875,-0.843,-8.8137,5.2499,0.0696,4.5217,-0.1391
880,-0.9197,-8.8903,5.0966,0.0,4.5217,0.0
885,-0.843,-8.8903,5.0583,-0.2087,4.5913,0.0696
890,-0.7664,-8.967,5.1349,-0.2087,4.5913,0.1391
895,-0.9197,-8.8137,5.2882,-0.2783,4.5913,0.2087
900,-0.8814,-8.967,5.3648,-0.3478,4.4522,0.2087
905,-0.958,-8.852,5.2499,-0.4174,4.4522,0.2087
910,-0.8047,-8.8137,5.2116,-0.5565,4.3826,0.0696
915,-0.958,-8.8903,5.2116,-0.6957,4.3826,0.1391
920,-0.9963,-8.7754,5.1732,-0.8348,4.313,0.1391
925,-0.8814,-8.9286,5.1732,-0.9739,4.4522,0.0
930,-1.0346,-8.8903,5.2116,-1.0435,4.4522,0.0696
935,-0.8814,-8.8903,5.1349,-1.0435,4.4522,0.0696
940,-0.9197,-8.967,5.2499,-1.113,4.3826,0.1391
945,-0.8047,-8.852,5.1349,-1.113,4.5217,0.0
950,-0.8047,-8.9286,5.1732,-1.113,4.4522,0.0
955,-0.843,-8.8903,5.1349,-1.0435,4.5913,0.0696
960,-0.9197,-8.7754,5.0966,-0.9739,4.7304,0.0
965,-0.9197,-8.737,5.0966,-1.0435,4.7304,0.0696
970,-0.958,-8.967,5.2882,-1.0435,4.8,-0.0696
975,-0.8814,-8.852,5.1732,-1.0435,4.8696,-0.0696
980,-0.9963,-8.852,5.2499,-1.1826,5.0783,-0.1391
985,-0.9197,-8.737,5.1732,-1.3913,5.1478,-0.1391
990,-0.843,-8.9286,5.1732,-1.4609,5.2174,-0.2783
995,-0.9197,-8.9286,5.1732,-1.6,5.287,-0.2783
1000,-0.843,-8.8903,5.02,-1.6696,5.287,-0.2783
1005,-0.9197,-8.7754,5.0966,-1.6696,5.1478,-0.2783
1010,-0.9963,-9.0053,5.2882,-1.6,4.9391,-0.2087
1015,-0.843,-8.8137,5.02,-1.4609,4.7304,-0.2087
1020,-0.9963,-8.852,5.02,-1.5304,4.3826,-0.1391
1025,-0.9197,-8.852,5.2116,-1.5304,4.5217,-0.1391
1030,-0.9197,-8.852,5.1732,-1.3913,4.5913,-0.2087
1035,-0.843,-8.9286,5.0583,-1.113,4.5913,-0.0696
1040,-0.9197,-8.852,5.0966,-0.8348,4.6609,-0.0696
1045,-0.8814,-8.8903,5.2499,-0.6261,4.7304,-0.1391
1050,-0.8047,-8.967,5.1349,-0.2087,4.7304,0.0
1055,-0.843,-8.8137,5.1349,-0.2087,4.7304,-0.0696
1060,-0.958,-8.737,5.1732,-0.0696,4.8,-0.1391
1065,-0.9197,-8.7754,5.0583,-0.2087,4.9391,-0.2087
1070,-0.9197,-8.8903,5.02,-0.3478,5.0087,-0.0696
1075,-0.9963,-8.7754,5.1732,-0.5565,5.0783,-0.2087
1080,-0.8047,-8.852,5.1349,-0.7652,5.2174,-0.2087
1085,-0.8047,-8.9286,5.2499,-0.9043,5.1478,-0.4174
1090,-0.958,-8.852,5.0583,-0.9043,5.0783,-0.3478
1095,-0.843,-8.9286,5.2882,-0.9739,5.0783,-0.3478
1100,-0.8814,-8.852,5.1349,-1.113,5.0783,-0.3478
1105,-0.8814,-8.852,5.0966,-0.9739,5.0783,-0.2783
1110,-0.9197,-8.7754,5.2116,-0.9043,5.0087,-0.4174
1115,-1.0346,-8.8903,4.9816,-0.9043,4.8696,-0.3478
1120,-0.8047,-8.852,5.0583,-0.9739,4.8696,-0.3478
1125,-0.8814,-8.967,5.2499,-1.1826,4.8696,-0.3478
1130,-0.8814,-8.8137,5.0966,-1.2522,4.8696,-0.3478
1135,-0.7664,-8.8137,5.1349,-1.3913,4.8,-0.2087
1140,-0.8047,-8.967,5.1732,-1.3913,4.8,-0.1391
1145,-0.8047,-8.852,5.1349,-1.3913,4.8,-0.1391
1150,-0.8047,-8.852,5.2116,-1.3913,4.8,-0.0696
1155,-0.958,-8.852,5.0583,-1.3913,4.8,-0.1391
1160,-0.958,-8.8137,5.0966,-1.2522,4.8696,0.0
1165,-0.7281,-8.8903,5.0966,-1.113,4.8696,0.0696
1170,-0.843,-8.8903,5.1349,-0.9043,4.9391,0.1391
1175,-0.9197,-8.9286,5.1349,-0.6957,5.0087,0.2087
1180,-0.8814,-8.9286,5.1732,-0.487,4.9391,0.1391
1185,-0.8047,-8.967,5.1732,-0.3478,4.8696,0.1391
1190,-0.9963,-8.8903,5.2116,-0.2783,5.0087,0.0696
1195,-0.9197,-8.9286,5.1732,-0.2087,5.0087,0.0696
1200,-0.8047,-8.852,5.0583,-0.1391,5.0087,0.0696
1205,-0.8814,-8.737,5.1732,-0.3478,5.1478,0.0
1210,-0.843,-8.967,5.2116,-0.2783,5.287,-0.1391
1215,-0.9197,-8.967,5.0966,-0.2087,5.287,-0.0696
1220,-0.958,-8.852,5.2499,-0.3478,5.2174,-0.0696
1225,-1.0346,-9.0436,5.3648,-0.487,5.0783,-0.1391
1230,-0.843,-8.8137,5.1732,-0.487,5.0087,-0.0696
1235,-0.843,-8.852,5.2116,-0.487,5.0087,0.0
1240,-0.9963,-8.737,5.0966,-0.487,4.9391,-0.1391
1245,-0.8814,-8.9286,5.2116,-0.5565,5.0783,-0.0696
1250,-0.9197,-8.8903,5.2116,-0.5565,5.0087,0.0
1255,-0.8814,-8.9286,5.02,-0.5565,5.0087,-0.0696
1260,-0.8814,-8.9286,5.0966,-0.487,5.0087,0.0
1265,-0.958,-8.8903,5.2116,-0.4174,5.2174,-0.0696
1270,-0.958,-8.9286,5.1349,-0.487,5.287,-0.0696
1275,-0.9197,-8.9286,5.0966,-0.487,5.287,0.0
1280,-0.9963,-8.8137,5.1732,-0.487,5.287,-0.0696
1285,-0.958,-8.8903,5.0966,-0.5565,5.287,0.0
1290,-0.9197,-8.8137,5.3265,-0.4174,5.287,0.0
1295,-0.8814,-8.8137,5.02,-0.2783,5.1478,-0.0696
1300,-0.9197,-8.7754,5.2116,-0.2087,5.1478,0.0
1305,-0.8814,-8.8137,5.1732,-0.0696,5.1478,0.0
1310,-0.8814,-8.8903,5.0966,0.0,5.2174,-0.1391
1315,-0.958,-8.852,5.1349,0.0,5.2174,-0.2087
1320,-0.9197,-8.7754,5.2499,0.0,5.0783,-0.2087
1325,-0.9197,-8.852,5.0966,0.1391,5.0087,-0.0696
1330,-0.8814,-8.7754,5.1732,0.0696,5.0087,-0.1391
1335,-1.2263,-9.1202,5.1349,0.1391,5.0087,-0.2783
1340,-0.9197,-8.967,5.1349,0.1391,5.0783,-0.2783
1345,-0.958,-8.8137,5.1732,0.0,4.9391,-0.2087
1350,-0.958,-8.7754,5.2116,-0.0696,4.9391,-0.3478
1355,-0.843,-8.8903,5.0583,-0.1391,4.8696,-0.2783
1360,-0.9197,-8.8903,5.0966,-0.2087,4.7304,-0.2783
1365,-0.843,-8.852,5.2882,-0.1391,4.7304,-0.3478
1370,-0.9197,-8.8903,5.2116,-0.1391,4.6609,-0.2087
1375,-0.958,-8.8137,5.1732,-0.2087,4.6609,-0.1391
1380,-0.9197,-8.852,5.0966,-0.2087,4.6609,-0.2087
1385,-0.9197,-8.967,5.1732,-0.1391,4.5217,-0.1391
1390,-0.958,-8.8137,5.0966,-0.0696,4.3826,-0.1391
1395,-0.843,-8.8903,4.8667,-0.0696,4.2435,-0.1391
1400,-0.843,-8.852,5.1732,-0.0696,4.1739,-0.0696
1405,-0.8047,-8.7754,5.2499,-0.1391,4.1739,-0.2783
1410,-0.9963,-8.9286,5.2116,-0.0696,4.313,-0.2783
1415,-0.843,-8.8137,5.1349,0.0,4.4522,-0.3478
1420,-0.8814,-8.852,5.1732,0.0696,4.3826,-0.3478
1425,-0.7664,-8.852,5.0966,0.1391,4.5217,-0.2783
1430,-0.843,-8.6987,5.1732,0.1391,4.5217,-0.1391
1435,-0.8814,-8.8137,5.1732,0.1391,4.5217,-0.1391
1440,-0.8047,-8.8903,5.2499,0.0696,4.5217,-0.0696
1445,-0.8814,-8.9286,5.3265,0.0696,4.5913,-0.1391
1450,-0.9197,-8.8903,5.1732,0.0,4.5217,-0.2087
1455,-0.9197,-8.852,5.2499,0.0,4.4522,-0.2087
1460,-0.9197,-8.9286,5.2499,0.0696,4.3826,-0.2087
1465,-0.8814,-8.7754,5.2116,0.0696,4.4522,-0.2087
1470,-0.9963,-8.7754,5.1732,-0.0696,4.5217,-0.2087
1475,-0.9963,-8.8137,5.0966,-0.0696,4.4522,-0.2087
1480,-0.9197,-8.7754,5.1732,0.0,4.3826,-0.2087
1485,-0.8047,-8.9286,5.3265,0.0696,4.3826,-0.2783
1490,-0.8047,-8.8903,5.1349,-0.0696,4.3826,-0.2087
1495,-0.8814,-8.7754,5.1349,-0.1391,4.5217,-0.2087
1500,-0.843,-8.8903,5.2116,-0.1391,4.6609,-0.2087
1505,-0.9963,-8.7754,5.2499,-0.1391,4.6609,-0.1391
1510,-0.9197,-8.8137,5.0583,-0.3478,4.5217,-0.0696
1515,-0.9963,-8.8137,5.1349,-0.487,4.5217,-0.0696
1520,-0.843,-8.852,5.2499,-0.6957,4.4522,-0.0696
1525,-0.843,-8.9286,5.1732,-0.8348,4.3826,-0.1391
1530,-0.9197,-8.737,5.2882,-1.0435,4.5217,-0.1391
1535,-0.8814,-8.967,5.2499,-0.9739,4.5913,-0.0696
1540,-0.8047,-8.852,5.2116,-0.8348,4.7304,-0.0696
1545,-0.9197,-8.737,5.2116,-0.6957,4.6609,-0.0696
1550,-0.8047,-8.8137,5.1732,-0.6957,4.7304,-0.0696
1555,-1.1113,-9.0819,4.9433,-0.6957,4.8696,-0.0696
1560,-0.958,-8.7754,5.0583,-0.6957,4.8696,-0.0696
1565,-0.8814,-8.852,5.1732,-0.6957,4.7304,-0.2783
1570,-0.9197,-8.8137,5.2882,-0.6957,4.8,-0.2783
1575,-0.8047,-8.8903,5.1349,-0.8348,4.8,-0.2783
1580,-0.8814,-8.852,5.1349,-0.9043,4.8,-0.2087
1585,-0.7664,-8.9286,5.1349,-1.0435,4.8,-0.3478
1590,-0.843,-8.9286,5.1732,-1.113,4.7304,-0.3478
1595,-0.9197,-8.8903,5.0966,-1.0435,4.7304,-0.3478
1600,-0.9197,-8.852,5.0583,-0.9739,4.7304,-0.2783
1605,-0.9197,-8.8137,5.1349,-0.9043,4.8,-0.2087
1610,-0.843,-8.7754,5.0583,-0.8348,4.7304,-0.1391
1615,-0.9197,-8.7754,5.0583,-0.7652,4.5217,-0.0696
1620,-1.0346,-8.7754,4.9433,-0.7652,4.3826,0.0
1625,-0.8814,-8.9286,5.0583,-0.7652,4.3826,-0.0696
1630,-0.9197,-8.8137,5.0966,-0.4174,4.313,0.0
1635,-0.958,-8.8903,5.2116,-0.0696,4.2435,0.0
1640,-0.8814,-8.8137,5.0966,0.1391,4.2435,0.1391
1645,-0.843,-8.8903,5.2499,0.4174,4.1043,0.2087
1650,-0.958,-8.852,5.3265,0.5565,4.0348,0.1391
1655,-0.9197,-8.9286,5.1732,0.7652,4.1043,0.1391
1660,-0.8047,-9.0053,5.4415,0.7652,4.1043,0.0696
1665,-0.9197,-8.8903,5.2499,0.7652,4.313,0.1391
1670,-0.9197,-8.9286,5.2882,0.8348,4.3826,0.1391
1675,-0.958,-8.7754,5.2116,0.7652,4.4522,0.0696
1680,-0.8047,-8.852,5.2499,0.6261,4.3826,0.1391
1685,-0.8814,-8.8137,5.1349,0.487,4.4522,0.1391
1690,-0.843,-8.852,5.2499,0.4174,4.5217,0.0696
1695,-0.843,-8.852,5.2882,0.2783,4.5913,0.1391
1700,-0.8814,-8.8903,5.1732,0.1391,4.6609,0.1391
1705,-0.8814,-8.6604,5.2882,0.0,4.5913,0.1391
1710,-0.843,-8.737,5.2116,0.0,4.5913,0.0696
1715,-0.843,-8.8903,5.2882,-0.0696,4.7304,0.0696
1720,-0.843,-8.7754,5.2116,-0.1391,4.7304,0.0696
1725,-0.8047,-8.7754,5.2116,-0.2783,4.6609,0.0
1730,-0.8814,-8.852,5.1732,-0.3478,4.6609,0.0
1735,-0.958,-8.737,5.2882,-0.3478,4.7304,0.0
1740,-0.7664,-8.8137,5.1732,-0.487,4.6609,0.0
1745,-0.9197,-8.852,5.2116,-0.6957,4.7304,0.0
1750,-0.958,-8.8137,5.1732,-0.6957,4.5913,0.0
1755,-0.8814,-8.8137,5.0966,-0.6261,4.5217,-0.0696
1760,-0.9197,-8.852,5.0583,-0.6957,4.313,-0.1391
1765,-0.9197,-8.8903,5.1349,-0.7652,4.313,-0.0696
1770,-0.6131,-8.7754,5.1732,-0.6957,4.5217,-0.1391
1775,-0.8814,-8.8137,5.2882,-0.8348,4.6609,-0.1391
1780,-0.8814,-8.9286,5.0966,-0.7652,4.8,-0.1391
1785,-0.8814,-8.852,5.1349,-0.5565,4.8,-0.1391
1790,-0.8814,-8.9286,5.2499,-0.487,4.8,-0.0696
1795,-0.9197,-8.8903,5.0966,-0.4174,4.7304,0.0
1800,-0.843,-8.7754,5.0583,-0.3478,4.5913,0.0
1805,-0.9197,-8.852,5.1732,-0.3478,4.5913,0.0
1810,-0.8814,-8.852,5.3265,-0.487,4.5913,0.1391
1815,-0.8814,-8.8903,5.1349,-0.487,4.7304,0.0
1820,-0.8047,-8.7754,5.1349,-0.5565,4.8696,0.0
1825,-0.958,-8.852,5.1732,-0.4174,4.8696,-0.1391
1830,-0.843,-8.8903,5.3648,-0.487,4.9391,-0.1391
1835,-0.958,-8.737,5.1732,-0.4174,4.7304,-0.2087
1840,-0.958,-8.7754,5.1349,-0.5565,4.7304,-0.2087
1845,-1.0346,-8.8137,5.3265,-0.6957,4.5913,-0.2783
1850,-0.8814,-8.8137,5.1732,-0.8348,4.7304,-0.2783
1855,-0.843,-8.8137,5.2499,-0.6957,4.6609,-0.2783
1860,-0.9197,-8.8903,5.02,-0.7652,4.7304,-0.2783
1865,-0.843,-8.9286,5.0966,-0.8348,4.7304,-0.2087
1870,-0.8814,-8.8903,5.2499,-0.7652,4.8,-0.1391
1875,-0.8814,-8.7754,5.0583,-0.6957,4.8,-0.1391
1880,-0.9197,-8.8137,5.3648,-0.6957,4.5217,-0.1391
1885,-0.9197,-8.8903,5.2499,-0.6957,4.4522,0.0
1890,-0.7664,-8.852,5.1732,-0.6957,4.6609,-0.1391
1895,-0.9963,-8.8903,5.1349,-0.6261,4.6609,-0.0696
1900,-0.9963,-8.8903,5.2499,-0.5565,4.7304,-0.2087
1905,-0.8814,-8.8903,5.2499,-0.4174,4.8,-0.1391
1910,-0.958,-8.737,5.3265,-0.3478,4.7304,-0.3478
1915,-0.9197,-8.7754,5.0583,-0.2087,4.7304,-0.2087
1920,-0.843,-8.6604,5.0966,-0.3478,4.7304,-0.2783
1925,-0.8814,-8.7754,5.2499,-0.4174,4.8,-0.2087
1930,-0.9963,-8.737,5.1349,-0.4174,4.8,-0.2087
1935,-0.9197,-8.852,5.0966,-0.487,4.8,-0.2783
1940,-0.958,-8.8903,5.1732,-0.5565,4.8696,-0.2783
1945,-0.843,-8.7754,5.2116,-0.6261,4.9391,-0.2783
1950,-0.9197,-8.8137,5.2499,-0.6957,4.9391,-0.2087
1955,-0.9963,-8.6604,5.0583,-0.8348,5.0087,-0.2087
1960,-0.9197,-8.8137,5.2116,-0.9043,4.8696,-0.2087
1965,-0.9197,-8.852,5.1732,-0.9043,4.8,-0.2087
1970,-0.958,-8.8137,5.1349,-1.0435,4.8696,-0.1391
1975,-0.958,-8.737,5.2882,-1.2522,4.9391,-0.2783
1980,-0.8814,-8.9286,5.1349,-1.1826,4.8,-0.3478
1985,-0.9963,-8.7754,5.0583,-1.113,4.7304,-0.2783
1990,-1.1879,-8.852,5.2882,-1.113,4.6609,-0.3478
1995,-0.9197,-8.852,5.0966,-0.9739,4.5217,-0.2783
2000,-0.8047,-8.8137,5.2499,-0.8348,4.5913,-0.3478
2005,-0.9197,-8.852,5.0966,-0.8348,4.5913,-0.2087
2010,-0.8814,-8.8137,5.1732,-0.6957,4.5217,-0.2087
2015,-0.9197,-8.8137,5.1349,-0.487,4.6609,-0.2783
2020,-0.958,-8.8903,5.2882,-0.4174,4.8696,-0.2783
2025,-0.8814,-8.8903,5.2499,-0.4174,4.8,-0.2087
2030,-0.958,-8.852,5.2116,-0.487,4.9391,-0.2087
2035,-0.9197,-8.852,5.2499,-0.5565,4.9391,-0.3478
2040,-0.9963,-8.6604,5.1349,-0.5565,4.9391,-0.3478
2045,-0.958,-8.737,5.2116,-0.5565,4.9391,-0.2783
2050,-0.9197,-8.967,5.2116,-0.6261,4.8,-0.2783
2055,-0.843,-8.9286,5.1732,-0.5565,4.7304,-0.1391
2060,-0.958,-8.852,5.1732,-0.487,4.8,-0.0696
2065,-0.843,-8.852,5.1732,-0.4174,4.6609,-0.0696
2070,-0.958,-8.8137,5.2116,-0.4174,4.6609,-0.0696
2075,-0.8047,-8.852,5.0583,-0.4174,4.7304,0.0
2080,-0.843,-8.8903,5.1732,-0.3478,4.5913,0.0696
2085,-0.7664,-8.8903,5.2116,-0.4174,4.4522,-0.0696
2090,-0.8814,-8.852,5.1349,-0.4174,4.3826,-0.0696
2095,-0.843,-8.852,5.2499,-0.4174,4.3826,-0.0696
2100,-0.9963,-9.0053,5.0966,-0.4174,4.5217,-0.1391
2105,-0.843,-8.852,5.1349,-0.4174,4.5913,-0.1391
2110,-0.9963,-8.737,5.3265,-0.4174,4.4522,-0.2783
2115,-0.9197,-8.8903,5.1732,-0.5565,4.5913,-0.2783
2120,-0.9197,-8.7754,5.2116,-0.5565,4.6609,-0.2087
2125,-0.9197,-8.8137,5.2116,-0.5565,4.8,-0.0696
2130,-0.843,-8.852,5.2116,-0.6957,4.8,-0.0696
2135,-0.958,-8.8137,5.2882,-0.6957,4.9391,-0.1391
2140,-0.9963,-8.7754,5.2499,-0.8348,4.9391,-0.2087
2145,-0.9197,-8.8137,5.2882,-0.8348,5.1478,-0.2087
2150,-0.9197,-8.8137,5.1349,-0.7652,5.0783,-0.1391
2155,-0.843,-8.7754,5.1349,-0.6957,4.8,-0.0696
2160,-0.8814,-8.737,5.1349,-0.8348,4.8696,0.0
2165,-0.9197,-8.7754,5.1732,-0.7652,4.8696,-0.0696
2170,-0.8047,-8.8903,5.3648,-0.7652,4.7304,-0.1391
2175,-0.9197,-8.9286,5.2882,-0.6957,4.8,-0.0696
2180,-0.843,-8.852,5.1349,-0.7652,4.8696,-0.0696
2185,-0.8047,-8.8903,5.2499,-0.8348,4.8696,-0.0696
2190,-0.8047,-8.8903,5.3265,-0.7652,4.8,-0.1391
2195,-0.8814,-8.8903,5.2116,-0.7652,4.8,-0.2783
2200,-0.8814,-8.8137,5.1349,-0.8348,4.8696,-0.2783
2205,-1.0346,-8.7754,5.2116,-0.9739,4.8,-0.2783
2210,-0.8047,-8.852,5.1732,-0.9739,4.8,-0.3478
2215,-0.9197,-8.9286,5.1349,-1.113,4.8696,-0.3478
2220,-0.9963,-8.7754,5.1349,-1.113,4.9391,-0.4174
2225,-0.8814,-8.852,5.1732,-1.113,4.9391,-0.3478
2230,-0.8814,-8.9286,5.1349,-1.0435,4.9391,-0.2783
2235,-0.8814,-8.8903,5.2882,-0.9043,4.8696,-0.1391
2240,-0.958,-8.852,5.1349,-0.9739,4.9391,-0.0696
2245,-0.9197,-8.737,5.2116,-0.9043,4.8696,0.0
2250,-0.843,-8.737,5.1732,-0.9043,4.8696,-0.1391
2255,-0.843,-8.9286,5.2116,-1.0435,4.8,-0.1391
2260,-0.9197,-8.852,5.2499,-1.0435,4.9391,-0.2087
2265,-0.843,-8.8137,5.2116,-1.113,4.8696,-0.2087
2270,-0.8814,-8.8137,5.1732,-1.2522,4.8,-0.3478
2275,-1.073,-8.852,5.3265,-1.3913,4.8,-0.2783
2280,-0.9197,-8.8903,5.0966,-1.3913,4.8,-0.3478
2285,-0.8047,-8.967,5.1732,-1.3913,4.8,-0.4174
2290,-0.958,-8.8137,5.0966,-1.3913,4.9391,-0.4174
2295,-0.8814,-8.8903,5.2499,-1.2522,4.8696,-0.3478
2300,-0.9197,-8.6987,5.02,-1.1826,4.7304,-0.487
2305,-0.843,-8.8137,5.1732,-1.113,4.6609,-0.5565
2310,-0.958,-8.8903,5.1349,-0.9739,4.7304,-0.3478
2315,-0.5365,-8.9286,5.2116,-0.6261,4.8696,-0.3478
2320,-0.8814,-8.852,5.1349,-0.3478,4.8696,-0.3478
2325,-0.8047,-8.967,5.2499,0.1391,4.7304,-0.4174
2330,-1.0346,-8.7754,5.2499,0.2783,4.8,-0.2783
2335,-0.9197,-8.8903,5.2882,0.3478,4.6609,-0.2087
2340,-0.8814,-8.8903,5.2116,0.2087,4.5913,-0.2783
2345,-0.8047,-8.852,5.3265,0.1391,4.6609,-0.2783
2350,-0.8814,-8.9286,5.2882,-0.0696,4.6609,-0.2783
2355,-0.9197,-8.8137,5.1732,-0.3478,4.8,-0.3478
2360,-0.9197,-8.7754,5.2882,-0.6261,4.8696,-0.4174
2365,-0.843,-8.737,5.1732,-0.9739,5.0087,-0.4174
2370,-0.843,-8.5838,5.4032,-1.3217,4.9391,-0.4174
2375,-1.073,-8.7754,5.2116,-1.6,5.0087,-0.3478
2380,-0.9197,-8.6987,5.2882,-1.7391,4.8696,-0.3478
2385,-0.843,-8.6987,5.2116,-1.8783,4.8,-0.3478
2390,-0.8814,-8.7754,5.1349,-2.0174,4.8696,-0.4174
2395,-0.843,-8.8137,5.02,-2.2261,4.9391,-0.4174
2400,-0.843,-8.852,5.3265,-2.4348,4.8696,-0.4174
2405,-0.843,-8.9286,5.2499,-2.6435,5.0783,-0.6261
2410,-0.6898,-8.8903,5.1732,-2.7826,5.0087,-0.6261
2415,-0.8814,-8.9286,5.1349,-2.7826,4.8,-0.8348
2420,-0.958,-8.737,5.1349,-2.8522,4.5913,-0.6261
2425,-0.7664,-8.967,5.1732,-2.8522,4.4522,-0.6261
2430,-0.8814,-8.8137,5.2499,-2.8522,4.3826,-0.6261
2435,-0.7664,-8.852,5.2499,-2.7826,4.4522,-0.5565
2440,-0.8814,-8.852,5.1732,-2.8522,4.4522,-0.6261
2445,-0.9197,-8.7754,5.2116,-2.9913,4.5913,-0.487
2450,-0.8814,-8.852,5.2882,-3.2696,4.5913,-0.5565
2455,-0.9197,-8.737,5.1732,-3.5478,4.5217,-0.6261
2460,-0.8814,-8.852,5.2882,-3.7565,4.3826,-0.487
2465,-0.9963,-8.7754,5.1349,-3.8957,4.3826,-0.4174
2470,-0.9197,-8.6987,5.3265,-4.1043,4.2435,-0.2783
2475,-0.9197,-8.8137,5.2116,-4.3826,4.2435,-0.3478
2480,-0.8814,-8.8137,5.1732,-4.7304,4.313,-0.487
2485,-0.9197,-8.8137,5.2882,-5.0087,4.313,-0.487
2490,-0.9963,-8.8137,5.2116,-5.4261,4.2435,-0.487
2495,-0.8814,-8.6987,5.0966,-5.7739,4.313,-0.5565
2500,-0.843,-8.8903,5.1732,-6.1913,4.313,-0.5565
2505,-0.9197,-8.7754,5.1732,-6.3304,4.313,-0.6261
2510,-0.958,-8.7754,5.1349,-6.2609,4.313,-0.6957
2515,-0.8814,-8.6987,5.2116,-6.1217,4.1739,-0.6957
2520,-0.9963,-8.8137,5.1732,-6.0522,3.8261,-0.6957
2525,-0.8814,-8.8137,5.1349,-6.0522,3.7565,-0.6957
2530,-0.958,-8.6987,5.3265,-6.2609,3.6174,-0.6957
2535,-0.7664,-8.6987,5.4032,-6.6087,3.5478,-0.5565
2540,-0.9963,-8.737,5.0966,-7.0261,3.6174,-0.487
2545,-0.9197,-8.6604,5.1732,-7.513,3.8957,-0.487
2550,-0.9197,-8.737,5.0966,-8.0696,4.313,-0.6261
2555,-0.9197,-8.737,5.1349,-8.5565,4.4522,-0.7652
2560,-0.958,-8.6604,5.0583,-9.0435,4.5217,-0.8348
2565,-0.9197,-8.6987,5.1349,-9.6,4.4522,-0.7652
2570,-1.073,-8.6987,5.2116,-10.0174,4.313,-0.9043
2575,-0.9197,-8.7754,5.0966,-10.3652,4.313,-0.9043
2580,-0.9197,-8.852,5.0966,-10.6435,4.2435,-0.8348
2585,-0.9963,-8.8137,5.0583,-10.7826,4.2435,-0.9043
2590,-0.958,-8.8137,5.0583,-10.9217,4.2435,-0.9739
2595,-0.9197,-8.8137,5.0966,-11.0609,4.313,-0.9739
2600,-0.9197,-8.8137,4.9433,-11.0609,4.3826,-0.9043
2605,-1.0346,-8.737,5.0583,-11.1304,4.5913,-0.9739
2610,-0.9963,-8.737,5.0583,-11.2,4.5913,-0.8348
2615,-0.843,-8.6604,5.02,-11.3391,4.4522,-0.6957
2620,-0.958,-8.5838,5.02,-11.6174,4.3826,-0.7652
2625,-0.9963,-8.5454,4.905,-12.3826,4.3826,-0.6957
2630,-0.843,-8.5838,4.905,-13.5652,4.4522,-0.487
2635,-0.8814,-8.4688,4.9433,-14.8174,4.7304,-0.2783
2640,-0.843,-8.3921,4.8284,-16.0,4.9391,-0.0696
2645,-0.843,-8.5838,4.9433,-17.113,4.9391,0.1391
2650,-0.843,-8.6221,4.9816,-18.5043,4.8696,0.1391
2655,-0.843,-8.7754,5.0966,-19.8261,4.5217,0.2783
2660,-0.8814,-8.852,4.9433,-20.9391,4.313,0.2783
2665,-0.8814,-8.9286,5.02,-21.6348,3.8957,0.2087
2670,-0.843,-9.0436,4.8667,-21.9826,3.5478,0.2087
2675,-0.843,-9.0819,5.0583,-22.1217,3.2696,0.0
2680,-0.9197,-9.1586,4.9816,-21.913,3.1304,-0.0696
2685,-0.7664,-9.1969,4.9816,-21.7043,3.0609,-0.2087
2690,-0.8814,-9.1586,4.905,-21.5652,3.0609,-0.487
2695,-0.8047,-9.1969,4.905,-21.287,2.9913,-0.6261
2700,-0.8047,-8.8903,4.905,-21.0087,2.9217,-0.8348
2705,-0.7281,-8.967,4.8667,-20.7304,2.6435,-0.9739
2710,-0.8814,-8.7754,4.9433,-20.5913,2.5739,-1.1826
2715,-0.843,-8.9286,4.905,-20.7304,2.2261,-1.4609
2720,-0.8814,-8.7754,4.8284,-20.8696,2.087,-1.4609
2725,-0.8047,-8.8903,4.8667,-21.2174,2.1565,-1.4609
2730,-0.9197,-8.6987,4.8667,-21.6348,2.2261,-1.3913
2735,-0.9197,-8.6987,4.8667,-22.1217,2.2261,-1.3217
2740,-0.8814,-8.7754,4.6751,-22.8174,2.2957,-1.4609
2745,-0.8047,-8.7754,4.7517,-23.8609,2.5043,-1.5304
2750,-1.1113,-9.0819,4.6368,-24.9739,2.9217,-1.5304
2755,-1.0346,-8.852,4.7517,-25.9478,3.4783,-1.3913
2760,-0.9963,-8.9286,4.6751,-26.7826,3.9652,-1.2522
2765,-0.9197,-9.0436,4.5601,-27.4783,3.9652,-0.9043
2770,-0.9963,-9.1969,4.7517,-27.8957,3.7565,-0.7652
2775,-1.0346,-9.1202,4.7134,-28.1043,3.3391,-0.4174
2780,-0.8814,-9.2352,4.7134,-28.313,2.6435,-0.2087
2785,-0.8047,-9.1586,4.5601,-28.1739,1.8783,0.0696
2790,-0.9197,-9.1586,4.5601,-28.1043,1.113,0.2087
2795,-0.9963,-9.0436,4.5218,-28.1043,0.4174,0.3478
2800,-0.958,-8.967,4.5601,-28.1043,-0.2087,0.5565
2805,-0.8047,-8.967,4.4452,-28.4522,-0.5565,0.8348
2810,-0.8047,-8.7754,4.4068,-29.2174,-0.7652,0.9043
2815,-0.8814,-8.7754,4.3302,-30.2609,-0.6261,0.9739
2820,-0.8814,-8.9286,4.3685,-31.5826,-0.6957,1.0435
2825,-0.8047,-8.6987,4.4452,-32.9043,-0.6957,1.2522
2830,-0.7664,-9.0053,4.2536,-34.5739,-0.6261,1.1826
2835,-0.6898,-8.8903,4.5218,-36.1043,-0.4174,1.2522
2840,-0.9197,-9.0819,4.2152,-37.287,-0.2087,1.0435
2845,-0.6898,-9.1969,4.3302,-37.9826,-0.2783,1.113
2850,-0.843,-9.4651,4.3685,-38.3304,-0.2087,1.0435
2855,-0.7281,-9.4651,4.3302,-38.1913,-0.1391,0.6261
2860,-0.8047,-9.0819,4.3302,-37.5652,0.0696,0.2783
2865,-0.8047,-9.3885,4.3685,-36.6609,0.2087,0.2087
2870,-0.6898,-9.3118,4.4068,-35.9652,0.0,0.3478
2875,-0.8047,-9.2352,4.4068,-35.5478,-0.2087,0.2783
2880,-0.7281,-9.0053,4.3302,-35.4783,-0.2783,0.0696
2885,-0.7281,-9.1202,4.3685,-36.0348,-0.2087,-0.1391
2890,-0.6514,-9.3502,4.3685,-36.6609,0.487,-0.3478
2895,-0.7281,-9.2735,4.3302,-35.687,1.3217,-0.2783
2900,-0.5365,-9.1586,4.2919,-35.4087,2.1565,-0.487
2905,-0.6131,-9.1586,4.3302,-35.8261,3.0609,-0.7652
2910,-0.5748,-9.1586,4.3302,-36.8,3.687,-0.9739
2915,-0.6131,-9.2735,4.2536,-37.7739,4.0348,-1.1826
2920,-0.5748,-9.2735,4.4068,-38.5391,4.1739,-1.4609
2925,-0.5748,-9.3502,4.2919,-39.4435,4.2435,-1.7391
2930,-0.6898,-9.3118,4.2919,-40.2087,4.5913,-1.9478
2935,-0.6514,-9.4268,4.1769,-41.113,5.0783,-2.0174
2940,-0.7281,-9.2352,4.2152,-42.1565,5.4957,-2.087
2945,-0.7664,-9.4268,4.1003,-43.1304,6.1217,-2.0174
2950,-0.8047,-9.3118,4.2919,-44.1043,6.7478,-2.1565
2955,-0.8047,-9.3118,4.1769,-45.1478,6.9565,-2.087
2960,-0.7281,-9.3118,3.832,-46.1217,7.2348,-2.1565
2965,-0.8047,-9.4651,3.832,-47.4435,7.4435,-2.1565
2970,-0.4982,-9.5801,4.1386,-48.9043,7.7217,-2.2957
2975,-0.7664,-9.5034,3.6787,-50.5043,8.1391,-2.2957
2980,-0.843,-9.5418,3.5255,-52.1043,8.6261,-2.2261
2985,-0.7664,-9.6567,3.7171,-54.1913,8.8348,-2.6435
2990,-0.8047,-9.81,3.4488,-56.6957,9.0435,-2.9913
2995,-0.843,-9.7717,3.6021,-58.7826,9.113,-3.2
