timestamp,accX,accY,accZ,gyroX,gyroY,gyroZ
0,6.8977,-16.5161,-3.7554,376.5565,-53.3565,37.4261
5,7.3958,-11.6877,-2.874,370.7826,-62.1217,25.3217
10,7.0509,-7.4725,-2.989,344.6957,-63.4435,5.0087
15,5.0583,-4.9433,-3.6787,301.4957,-62.4,-13.287
20,3.0656,-3.7171,-4.4068,245.6348,-60.8,-25.3913
25,1.5328,-3.5638,-4.4452,182.3304,-58.087,-32.2783
30,0.8047,-4.4452,-4.0236,122.5043,-55.7217,-33.4609
35,0.5748,-5.863,-3.7171,81.2522,-56.8348,-29.913
40,0.2299,-7.0126,-3.6787,37.0087,-63.3043,-24.0696
45,0.2682,-8.2389,-3.7937,-2.2261,-72.2783,-18.2957
50,0.1916,-9.0819,-3.9853,-38.1913,-85.3565,-15.0957
55,0.0,-9.81,-3.832,-69.8435,-96.1391,-14.4696
60,-0.115,-11.3428,-3.3722,-95.3043,-101.4957,-15.4435
65,-0.3832,-12.6074,-2.989,-112.9043,-100.5913,-17.8087
70,-0.4215,-14.2552,-2.6441,-121.113,-94.887,-21.2174
75,-0.7281,-15.5964,-2.1843,-119.8609,-86.5391,-25.3217
80,-1.0346,-16.7077,-1.8394,-110.3304,-77.6348,-28.8696
85,-1.3412,-17.4357,-1.2263,-91.5478,-70.3304,-31.4435
90,-1.6095,-17.5507,-0.9197,-63.6522,-66.1565,-33.8783
95,-1.8777,-17.0525,-0.7281,-28.8696,-64.2783,-35.8957
100,-1.7244,-16.1329,-0.6514,10.2957,-63.3739,-37.4957
105,-1.6095,-14.83,-0.4215,51.0609,-62.3304,-37.913
110,-1.6095,-13.2971,-0.1916,90.2261,-59.8957,-37.287
115,-1.3412,-11.8027,-0.2299,123.8957,-56.0,-35.3391
120,-1.2646,-9.7334,-0.2299,149.0783,-51.6174,-32.1391
125,-0.843,-7.6641,-0.4598,165.5652,-47.3043,-28.0348
130,-0.843,-5.748,-0.4598,173.0783,-44.0348,-24.5565
135,-0.5748,-3.7171,-0.6898,170.9913,-42.713,-22.0522
140,-0.6131,-1.916,-0.8047,160.1391,-43.8261,-20.0348
145,-0.3832,-0.0766,-1.1879,141.3565,-47.4435,-18.3652
150,0.0,1.5328,-1.5711,116.4522,-53.7043,-16.7652
155,0.0,2.4142,-1.916,89.5304,-63.0261,-15.0261
160,0.0766,2.874,-2.4142,63.7913,-74.3652,-12.8
165,0.1533,3.0656,-2.6058,41.4609,-85.4957,-9.6696
170,0.3832,2.9507,-3.6404,25.4609,-95.3739,-6.5391
175,0.4982,2.9507,-4.5601,15.3043,-102.1913,-4.1043
180,0.6514,2.874,-5.1732,10.087,-105.113,-1.8783
185,0.7281,2.7591,-5.8247,9.8087,-104.5565,-0.3478
190,0.8814,2.8357,-6.0929,13.3565,-100.6609,0.5565
195,0.958,2.7591,-6.9743,19.7565,-94.6783,0.9043
200,0.9963,2.9507,-7.4341,26.9217,-87.8609,0.9739
205,1.1496,3.1423,-7.9323,32.4174,-81.5304,0.6957
210,1.2263,3.3722,-8.2005,35.5478,-76.1043,0.0696
215,1.3412,3.7554,-8.2772,35.6174,-72.4174,-1.4609
220,1.3795,4.3302,-8.2389,32.1391,-69.913,-3.2
225,1.4179,4.7517,-7.9706,24.9043,-67.6174,-5.0783
230,1.3795,4.9816,-7.2425,15.7217,-65.2522,-7.0261
235,1.1879,4.8667,-6.6294,6.8174,-63.4435,-8.7652
240,1.4562,4.5218,-5.4415,-0.8348,-62.6783,-10.2957
245,1.5711,3.9087,-4.5218,-5.5652,-62.0522,-12.1043
250,1.9543,3.0273,-3.8704,-7.6522,-60.9391,-13.4957
255,2.5291,2.4142,-3.3339,-6.9565,-58.3652,-14.5391
260,3.2572,1.6095,-3.0656,-3.1304,-53.287,-15.513
265,3.5638,0.8047,-3.0656,3.1304,-45.5652,-16.2087
270,3.4488,0.3832,-3.832,8.9043,-36.0348,-16.4174
275,2.4908,0.1916,-4.9433,14.4,-27.4783,-15.1652
280,0.958,0.4598,-7.1276,14.4,-23.7913,-11.1304
285,-1.2646,1.1879,-8.9286,3.4087,-26.2261,-4.4522
290,-2.4525,1.3795,-10.9596,-17.9478,-36.5217,4.2435
295,-1.6095,0.5748,-12.4541,-41.2522,-50.9913,17.113
300,2.5675,-1.916,-13.1822,-57.5304,-62.4,28.5217
305,6.5145,-4.4835,-12.1092,-66.2261,-62.2609,34.1565
310,8.1239,-8.0089,-8.4305,-74.3652,-46.7478,35.6174
315,8.2005,-13.7953,-1.5328,-83.6174,-21.5652,36.8696
320,5.9013,-17.3974,-3.6787,-81.6696,7.0957,38.0522
325,2.7974,-18.2405,-8.1239,-100.5913,28.4522,47.3739
330,5.5948,-19.1985,-13.1822,-173.3565,25.4609,72.9043
335,7.1276,-26.556,-18.3938,-302.5391,0.5565,110.6783
340,7.779,-41.7691,-21.4211,-462.3304,-43.2,155.6174
345,7.894,-52.0773,-20.7696,-624.9043,-89.2522,180.3826
350,3.832,-54.3765,-15.9413,-728.2783,-111.9304,166.887
355,-0.3449,-56.2542,-13.872,-699.3391,-106.2957,122.5739
360,-4.7134,-55.7561,-12.3008,-536.5565,-64.4174,59.1304
365,-3.0273,-54.1849,-13.3355,-279.6522,11.5478,9.8087
370,1.4179,-51.1576,-12.7607,1.9478,101.3565,-17.8087
375,2.5291,-42.8038,-9.8866,208.2783,163.8261,-38.4
380,1.6478,-34.1817,-7.6641,321.8087,179.4087,-44.7304
385,0.2299,-26.8625,-7.0509,387.3391,162.713,-38.6087
390,-1.6095,-20.2331,-5.9013,419.8957,130.6435,-25.1826
395,-3.0273,-15.0982,-5.5948,431.5826,96.2087,-12.9391
400,-4.062,-11.3045,-5.863,429.1478,70.3304,-7.9304
405,-4.6368,-8.3155,-5.8247,411.0609,58.7826,-9.6696
410,-4.79,-6.4761,-5.1349,373.0783,60.5217,-15.1652
415,-4.1769,-4.9433,-4.1769,315.8957,70.6087,-20.7304
420,-2.989,-4.1769,-2.5291,243.5478,82.9217,-24.5565
425,-2.1459,-4.2536,-1.9543,165.8435,93.2174,-26.1565
430,-1.4945,-4.905,-1.2646,90.5043,99.4087,-25.113
435,-0.843,-6.2079,-0.6514,25.6696,101.7043,-21.1478
440,-0.2299,-7.5108,-0.1916,-26.4348,101.8435,-16.2087
445,0.4598,-8.737,0.4215,-65.7391,101.1478,-11.8261
450,1.1496,-9.7717,0.9963,-92.4522,99.9652,-8.5565
455,1.6478,-10.768,1.3412,-109.287,97.9478,-6.887
460,2.0693,-11.2662,1.6861,-118.6087,95.0957,-5.913
465,2.6058,-11.8793,1.9927,-119.6522,91.1304,-5.4957
470,2.7591,-11.9943,1.6478,-111.6522,86.8174,-5.8435
475,2.6441,-11.7643,1.5328,-97.8783,82.8522,-6.6783
480,2.7591,-11.3045,1.3029,-79.0261,78.887,-7.6522
485,2.5675,-10.5764,1.2263,-55.5826,75.687,-9.1826
490,2.3375,-9.6184,0.7281,-34.0174,73.6696,-11.1304
495,1.916,-8.2005,0.3066,-6.5391,71.5826,-13.5652
500,1.6861,-6.8977,-0.1533,19.3391,69.8435,-16.0
505,1.3795,-5.1732,-0.3066,42.6435,68.1739,-18.5043
510,1.2646,-3.7554,-1.1496,62.6783,67.0609,-20.4522
515,1.3795,-2.4142,-1.8777,76.6609,66.3652,-22.6087
520,1.6095,-0.9963,-2.4525,84.313,66.1565,-23.8609
525,1.5328,0.1916,-2.9123,86.887,66.6435,-23.7217
530,1.4179,1.4179,-3.4105,85.0087,67.687,-22.5391
535,1.3029,2.1459,-4.4452,79.8609,69.0087,-20.4522
540,0.8047,2.874,-4.6368,70.0522,70.3304,-17.6696
545,0.5748,3.5255,-5.1349,57.7391,70.9565,-13.7043
550,0.2299,3.9853,-5.4798,43.8957,70.7478,-9.113
555,0.0383,4.3302,-5.863,29.6348,69.7043,-4.2435
560,-0.115,4.4452,-5.9013,15.7217,67.6174,1.0435
565,0.0,4.4835,-5.8247,4.3826,64.1391,6.4
570,0.0,4.5984,-5.5181,-3.4783,59.1304,11.6174
575,-0.0766,4.8667,-5.2882,-7.0957,53.3565,16.2783
580,0.6514,4.7517,-5.1732,-6.2609,47.3043,20.0348
585,0.8814,4.9816,-4.79,-2.7826,41.3913,22.5391
590,1.073,4.9816,-4.8284,2.6435,36.313,24.6957
595,0.958,4.9433,-4.8667,8.2087,32.0,26.3652
600,0.958,4.905,-4.9816,12.1043,28.7304,27.4087
605,0.3832,4.8667,-5.2499,13.7043,27.1304,27.8957
610,0.1533,4.5601,-5.4798,13.5652,27.6174,28.1043
615,0.0,4.0236,-5.8247,12.7304,29.8435,28.1043
620,0.115,3.6404,-5.8247,12.5217,34.087,28.0348
625,0.8047,3.2189,-6.1313,13.5652,40.3478,27.4087
630,1.9927,2.4525,-6.3995,16.2087,48.9739,26.2261
635,2.7207,1.7627,-6.936,19.4783,60.6609,23.1652
640,2.9507,0.9963,-7.6257,22.6087,73.8087,17.5304
645,2.9123,0.115,-8.3155,24.5565,85.6348,10.0174
650,3.0656,-0.6514,-9.4651,24.9739,93.1478,2.1565
655,3.2572,-1.1879,-10.5764,22.2609,95.0261,-5.4261
660,3.2572,-1.916,-11.4578,15.2348,91.7565,-11.687
665,2.9507,-2.9123,-11.6494,5.3565,84.5913,-15.5826
670,2.6441,-4.3685,-10.7297,-5.5652,77.4957,-16.4174
675,2.7974,-6.5528,-8.5454,-19.6174,74.5043,-15.8609
680,3.5638,-10.5764,-3.832,-38.5391,80.4174,-16.487
685,5.2116,-16.0179,0.1533,-58.2957,98.5739,-19.6174
690,4.7517,-19.7733,2.1459,-77.1478,131.8261,-30.1217
695,2.0693,-21.8043,0.958,-100.5913,176.2783,-50.087
700,-3.832,-24.41,-1.3795,-142.8174,207.513,-79.3739
705,-13.4121,-35.2164,-6.2079,-207.513,209.6696,-117.9826
710,-21.1145,-47.7471,-11.8027,-301.0783,172.4522,-153.0435
715,-23.8736,-56.829,-20.8463,-391.3739,103.9304,-158.8174
720,-17.9339,-58.745,-23.9502,-507.4783,27.8957,-115.1304
725,-9.3502,-54.1083,-13.872,-557.0087,-27.4783,-44.313
730,-4.9816,-51.2726,-7.8173,-442.713,-96.487,13.8435
735,-2.6824,-50.0846,-6.1696,-210.5043,-160.0,30.0522
740,-1.8394,-46.9424,-5.7097,20.0348,-196.8696,16.6957
745,-1.7244,-40.3896,-6.0546,177.2522,-201.0435,1.3217
750,-0.0383,-31.7292,-6.4378,247.7913,-173.287,8.7652
755,2.6441,-23.4904,-4.905,265.8087,-125.6348,29.287
760,4.5984,-15.2898,-2.874,276.6609,-83.1304,37.7739
765,5.0583,-8.4688,-1.6478,302.8174,-61.2174,25.5304
770,4.0236,-5.3265,-2.6058,338.2957,-64.2783,5.0087
775,3.0656,-4.1386,-4.1769,357.1478,-80.0696,-9.3217
780,2.4142,-3.2955,-4.7134,338.6435,-89.9478,-16.1391
785,2.2226,-2.8357,-4.7517,284.5913,-87.3739,-17.0435
790,1.7244,-2.989,-4.4068,212.9391,-80.2783,-14.3304
795,1.2646,-3.6787,-4.2152,140.7304,-77.0783,-11.9652
800,0.7281,-4.5218,-4.0236,75.8957,-78.887,-11.3391
805,0.2299,-5.5948,-3.4105,20.9391,-83.0609,-11.4087
810,-0.2299,-6.7444,-2.5675,-24.7652,-88.0696,-10.6435
815,-0.3832,-7.9323,-1.6861,-60.8,-93.1478,-8.8348
820,-0.5365,-9.1969,-0.7281,-86.887,-97.8783,-7.3739
825,-0.4982,-9.9633,0.0383,-103.1652,-102.6783,-6.6783
830,-0.3449,-10.768,0.958,-109.5652,-107.3391,-6.6087
835,-0.6514,-11.1512,0.9963,-106.2261,-111.6522,-7.0261
840,-0.7664,-11.4578,1.3412,-94.9565,-114.7826,-6.6087
845,-1.1113,-11.2662,1.0346,-76.5913,-116.3826,-5.7739
850,-0.958,-10.9596,1.2263,-51.687,-116.1739,-4.4522
855,-1.0346,-10.3082,0.8047,-19.5478,-115.1304,-3.4087
860,-0.958,-9.5418,0.2299,16.7652,-113.3913,-2.8522
865,-0.843,-8.4688,-0.6514,53.913,-111.0261,-2.5739
870,-0.8814,-7.2425,-1.3029,88.5565,-108.1043,-2.3652
875,-0.6514,-5.9013,-1.9543,118.6783,-105.1826,-0.5565
880,-0.3832,-4.5601,-2.4525,142.5391,-102.887,1.7391
885,-0.2682,-2.9507,-2.7974,157.2174,-101.5652,3.687
890,-0.0383,-1.4562,-2.989,162.9913,-101.4957,5.9826
895,0.0766,0.0766,-2.7591,160.9739,-102.1217,8.487
900,0.2299,1.5328,-2.874,152.5565,-102.8174,11.3391
905,0.4598,2.7974,-3.3722,137.6696,-102.7478,14.1913
910,0.4982,4.1003,-3.7554,115.2,-101.4957,16.487
915,0.843,5.1732,-4.2919,85.4261,-98.4348,17.7391
920,0.958,5.978,-4.9816,50.4348,-93.4261,18.4348
925,0.6514,6.2462,-5.7864,21.0087,-86.3304,19.6174
930,0.5365,6.0546,-6.7061,-15.6522,-78.887,20.3826
935,0.2682,5.1732,-7.894,-48.7652,-73.6696,20.1739
940,0.3066,4.2919,-7.9706,-75.6174,-68.3826,18.6435
945,0.4598,3.6404,-8.4688,-92.5913,-64.8348,16.4174
950,0.843,3.0273,-8.6221,-100.2435,-62.8174,13.0783
955,1.3412,2.3759,-8.2389,-99.5478,-61.4957,9.3913
960,1.7244,2.1076,-7.8173,-92.9391,-60.3826,5.287
965,2.1076,1.8394,-7.3192,-82.6435,-58.6435,0.9739
970,2.1076,1.9543,-6.6294,-70.7478,-56.5565,-3.5478
975,2.3375,1.9927,-5.9396,-58.7826,-54.6087,-7.3043
980,2.4142,2.1076,-5.1349,-47.0261,-53.0087,-9.7391
985,2.7591,2.0693,-4.6751,-34.7826,-51.4783,-10.9913
990,3.3339,1.6478,-4.3685,-20.9391,-49.8783,-10.713
995,3.7554,1.0346,-4.3685,-4.9391,-47.3043,-9.3217
1000,3.2189,0.8814,-4.79,12.5217,-43.8957,-7.0261
1005,2.1459,0.6898,-5.4415,27.3391,-41.5304,-3.2696
1010,0.843,0.958,-7.2042,33.3217,-42.0174,3.4087
1015,0.115,0.8047,-8.2389,28.313,-46.9565,13.0087
1020,1.1113,-0.7281,-8.4305,16.0,-55.4435,22.6783
1025,2.4908,-2.874,-7.3575,0.9043,-63.7217,25.4609
1030,3.947,-5.3648,-4.79,-12.5913,-67.7565,20.6609
1035,5.978,-8.5838,0.0,-16.7652,-66.087,14.4
1040,8.737,-12.3391,5.978,-5.0783,-56.2783,8.7652
1045,10.653,-13.8336,6.2845,24.9043,-29.4957,2.713
1050,10.6914,-12.0326,-1.5328,31.7217,1.3913,2.5739
1055,9.7717,-11.4195,-7.0509,-36.2435,6.4696,19.9652
1060,8.8903,-14.9832,-12.6457,-155.9652,-6.887,51.8957
1065,8.8137,-27.1308,-18.8536,-285.7739,-21.0783,101.8435
1070,6.3995,-37.1707,-21.9575,-424.2783,-32.6261,155.3391
1075,2.1843,-44.26,-22.8006,-552.2087,-45.1478,194.2261
1080,-0.6131,-47.134,-19.0069,-636.8,-57.5304,212.2435
1085,-2.3375,-49.5865,-15.9413,-640.4174,-65.3913,192.6957
1090,-6.7061,-50.5445,-13.642,-557.4957,-40.0,122.2957
1095,-8.3155,-50.2763,-11.2662,-407.9304,23.8609,38.887
1100,-6.7827,-50.2763,-10.6147,-218.0174,98.9913,-17.8087
1105,-3.6404,-48.8201,-11.6877,-27.1304,166.7478,-47.0261
1110,-2.2992,-42.5355,-11.2279,126.7478,212.7304,-51.8261
1115,-1.5328,-34.9864,-9.7334,243.8957,225.0435,-49.5304
1120,-1.5328,-28.0121,-7.7024,337.8087,207.6522,-52.8696
1125,-2.1459,-21.651,-5.7097,400.0,172.2435,-51.1304
1130,-1.8777,-16.746,-3.947,429.4261,134.0522,-44.3826
1135,-1.6861,-11.1129,-2.2609,432.0,105.5304,-39.0957
1140,-1.4179,-7.8173,-1.8011,409.5304,89.9478,-37.2174
1145,-1.2646,-5.9013,-2.1843,360.5565,84.1739,-39.2348
1150,-0.8047,-5.0966,-2.3759,303.3043,85.0087,-43.2
1155,-0.6898,-4.905,-2.2992,216.0696,89.6,-46.5391
1160,-0.5748,-5.7097,-1.8777,123.9652,94.6087,-47.3739
1165,-0.5748,-7.0126,-1.4562,41.9478,100.7304,-45.0087
1170,-0.4982,-8.2772,-0.8047,-20.8,104.6261,-42.0174
1175,-0.0766,-9.5034,-0.2682,-61.2174,106.1565,-36.8
1180,0.4598,-10.1932,0.2299,-80.9739,106.9217,-31.1652
1185,0.958,-10.3465,0.958,-84.313,106.713,-26.2957
1190,1.3795,-10.0399,1.3795,-76.2435,105.3913,-22.6783
1195,1.7627,-9.4268,2.4525,-60.8696,103.7913,-20.1043
1200,2.1843,-8.8903,2.4525,-39.5826,102.1913,-18.6435
1205,2.3759,-8.0089,2.1076,-18.087,100.8696,-18.6435
1210,2.4908,-6.7827,1.9927,-0.2087,99.5478,-19.2696
1215,2.7974,-5.9013,1.6861,16.2087,98.1565,-19.8957
1220,3.0273,-4.7517,1.1879,30.7478,96.0696,-21.4957
1225,3.1423,-3.5638,0.5748,42.3652,93.5652,-23.7217
1230,3.3339,-2.5291,-0.3832,51.7565,90.6435,-25.6696
1235,3.1039,-1.4945,-0.9963,57.8783,88.0696,-27.0609
1240,3.2189,-0.7281,-1.9927,59.6174,86.0522,-27.5478
1245,3.0656,0.0766,-2.4525,55.7913,83.9652,-27.0609
1250,2.874,0.7281,-2.9123,48.7652,82.4348,-25.7391
1255,2.6441,1.073,-3.9087,40.4174,81.5304,-23.3043
1260,2.2609,1.4179,-4.2536,32.1391,81.0435,-19.687
1265,1.9543,1.8777,-4.7134,24.487,80.6261,-15.1652
1270,1.5328,2.2226,-5.2499,16.6957,79.2348,-10.6435
1275,1.1496,2.4525,-5.6714,8.6957,76.5913,-6.0522
1280,0.6898,2.9123,-5.863,1.9478,73.3913,-1.2522
1285,0.2299,3.2189,-6.0546,-2.5739,70.0522,4.0348
1290,-0.1916,3.2955,-6.2079,-4.5217,66.5739,9.6
1295,-0.5748,3.3722,-6.0163,-3.4783,62.2609,15.1652
1300,-0.7281,3.2572,-5.9013,1.3913,57.0435,21.0087
1305,-0.6898,3.4871,-5.7864,10.1565,51.2,26.5739
1310,-0.958,3.5255,-5.3265,21.6348,45.287,32.487
1315,-0.9197,3.6787,-5.02,33.5304,40.1391,38.6087
1320,-0.4982,3.6787,-5.02,44.2435,35.8261,43.8261
1325,-0.3066,3.8704,-5.0966,51.2,32.9043,47.1652
1330,-0.1533,4.1003,-5.0583,53.3565,31.513,48.3478
1335,-0.2299,3.9087,-5.2116,50.087,31.5826,47.9304
1340,-0.8047,3.7554,-5.0583,42.7826,33.0435,45.6348
1345,-1.1879,3.3722,-5.02,34.1565,34.9913,42.2261
1350,-0.9963,2.6824,-5.0583,26.5043,37.2174,38.0522
1355,-0.1533,1.9927,-5.0583,21.7043,40.2087,33.6696
1360,1.3412,0.9963,-5.0583,21.2174,45.287,29.6348
1365,2.7591,0.3449,-5.863,24.0,53.9826,25.8087
1370,3.9087,-0.2682,-7.3192,28.8696,65.9478,21.2174
1375,4.3685,-0.2682,-9.1202,30.0522,75.2696,16.0696
1380,4.4835,0.0,-11.4195,20.5217,82.6435,11.4783
1385,4.1769,0.0383,-13.2971,-2.1565,82.8522,7.0261
1390,3.7937,-0.8814,-14.3318,-31.7913,76.1043,0.487
1395,2.874,-2.874,-14.0636,-57.0435,65.3913,-4.0348
1400,1.8777,-6.2845,-11.5344,-72.8348,55.9304,-2.9913
1405,0.4598,-11.6877,-5.2499,-84.7304,50.2261,-3.3391
1410,0.2682,-18.4321,-1.8777,-94.4696,44.6609,-8.6957
1415,-0.5748,-23.2604,-1.5328,-111.3739,47.6522,-22.9565
1420,-2.8357,-26.2494,-1.6095,-139.3391,78.1913,-52.5913
1425,-6.936,-29.545,-3.0273,-172.8696,130.8522,-97.2522
1430,-13.757,-36.9025,-6.5145,-223.7217,174.8174,-153.4609
1435,-20.6163,-49.8164,-12.8373,-313.6696,182.1217,-196.5913
1440,-21.1145,-55.4878,-19.1602,-412.1739,151.3043,-199.513
1445,-14.9832,-52.997,-15.7113,-457.6,98.8522,-151.1652
1450,-5.863,-51.5408,-9.1586,-401.7391,30.0522,-76.313
1455,-0.843,-51.1193,-5.8247,-250.8522,-62.5391,-7.6522
1460,-0.6898,-48.8967,-4.905,-79.7913,-171.3391,31.7913
1465,-1.8011,-43.9534,-5.5181,53.7043,-245.1478,51.5478
1470,-1.1113,-36.4043,-6.1313,113.1826,-255.8609,68.0348
1475,3.6787,-26.0961,-2.874,109.7739,-213.9826,84.5217
1480,6.2845,-17.7806,-0.0383,114.5739,-163.2696,81.113
1485,6.0163,-11.6877,-0.6131,154.5043,-127.4435,55.3043
1490,5.3648,-8.0089,-3.0273,205.287,-101.7739,21.2174
1495,4.2536,-6.3229,-6.4378,243.1304,-78.887,-8.0
1500,3.1806,-4.6751,-8.6604,251.687,-57.1826,-26.5739
1505,2.6441,-3.832,-9.0819,227.8261,-40.9739,-33.1826
1510,2.4908,-3.7171,-8.0473,180.8,-35.1304,-31.0261
1515,2.3759,-4.4068,-6.9743,125.5652,-39.2348,-26.1565
1520,2.5291,-5.7864,-5.748,73.113,-48.5565,-22.4696
1525,2.2226,-7.3958,-5.1732,28.2435,-58.9913,-20.0348
1530,1.7244,-9.3118,-4.4068,-9.7391,-68.5913,-18.5043
1535,1.3029,-10.7297,-3.2572,-39.513,-77.6348,-17.1826
1540,0.7664,-12.1092,-2.1459,-58.9913,-85.4957,-16.3478
1545,0.3066,-12.9906,-0.9963,-67.1304,-91.0609,-16.1391
1550,0.115,-13.5271,-0.0766,-62.5391,-93.8435,-16.9043
1555,0.0,-13.6804,0.6131,-45.7043,-94.2609,-18.3652
1560,-0.0383,-13.3355,0.6898,-19.9652,-92.1043,-19.9652
1565,-0.3066,-12.5691,0.7281,9.8087,-87.4435,-20.2435
1570,-0.3832,-11.3811,0.6131,39.9304,-81.113,-19.2696
1575,-0.1916,-9.9633,0.7281,67.6174,-74.0174,-17.113
1580,-0.0383,-8.3921,0.4215,91.4087,-66.9913,-14.4696
1585,-0.115,-6.7061,0.115,109.0087,-60.1739,-11.687
1590,0.0,-4.8284,-0.115,119.0261,-53.287,-8.4174
1595,0.3066,-3.1039,-0.1533,122.5739,-48.0,-5.3565
1600,0.3449,-1.5711,-0.7664,120.487,-44.313,-3.5478
1605,0.5748,-0.1916,-0.9963,112.487,-42.3652,-2.1565
1610,0.6131,0.9963,-1.3029,102.6783,-41.7391,-0.7652
1615,0.958,1.6478,-1.6478,87.5826,-42.713,0.6261
1620,0.9197,2.3375,-1.916,71.0957,-44.5217,1.8087
1625,1.1113,2.5291,-2.4525,55.3043,-47.7217,3.5478
1630,0.9963,2.9507,-2.989,41.3913,-51.2,4.5913
1635,0.9197,3.1039,-3.6404,29.8435,-53.7043,5.8435
1640,0.8814,3.4488,-4.5984,20.5217,-54.6783,6.6783
1645,0.6131,3.6021,-5.5181,13.2174,-54.1913,7.513
1650,0.4215,3.4488,-6.3612,8.0,-52.9391,7.513
1655,0.2299,3.1806,-7.0126,4.8696,-51.9652,6.4696
1660,0.2682,2.9123,-7.5874,3.6174,-51.8261,4.3826
1665,0.1533,2.7591,-7.779,4.8,-53.1478,1.6
1670,0.6898,2.7591,-7.7024,8.2783,-55.8609,-1.1826
1675,0.7664,3.0656,-7.4341,11.6174,-59.8957,-3.3391
1680,0.7281,3.6404,-7.6641,13.4957,-63.9304,-4.8
1685,0.8814,4.2152,-7.2425,13.5652,-67.2696,-5.7043
1690,0.3066,4.7517,-7.0893,10.5739,-69.3565,-5.913
1695,0.115,4.905,-6.5145,5.1478,-70.6087,-5.7043
1700,-0.2299,5.0966,-6.3612,-1.7391,-71.9304,-5.6348
1705,-0.0766,4.8667,-5.8247,-8.7652,-73.6696,-5.3565
1710,0.0,4.3302,-5.8247,-15.5826,-75.2696,-4.5913
1715,0.0383,3.5638,-5.748,-21.8435,-75.7565,-2.7826
1720,0.115,2.7591,-6.0929,-27.1304,-74.2957,0.2783
1725,0.0,1.916,-6.821,-30.6783,-71.7913,3.4087
1730,-0.8047,1.1113,-8.1622,-32.4174,-70.887,6.6087
1735,-1.5328,0.3066,-10.0782,-32.3478,-74.3652,10.5043
1740,-1.7627,-0.5365,-11.841,-30.6087,-83.9652,15.6522
1745,-1.1113,-0.9963,-13.3355,-30.8174,-98.6435,21.5652
1750,0.4598,-1.2646,-13.9103,-38.9565,-113.3217,27.687
1755,3.6787,-2.1459,-13.0672,-56.5565,-121.8087,35.0609
1760,7.3575,-3.5255,-11.0363,-79.6522,-119.513,41.113
1765,8.5454,-6.821,-6.6677,-104.2783,-102.6783,43.4783
1770,9.6567,-12.6457,-0.8047,-121.3217,-75.0609,41.3217
1775,8.9286,-16.5927,-6.5911,-129.0435,-41.4609,38.6087
1780,8.6604,-18.4321,-14.0636,-184.4174,-12.0348,47.7217
1785,14.1019,-27.7056,-19.3134,-329.113,-1.5304,73.2522
1790,16.9376,-42.3823,-22.1491,-527.0957,-28.2435,85.4261
1795,12.5307,-54.2999,-19.4284,-713.3913,-69.9826,82.5739
1800,5.6331,-58.86,-13.4888,-797.3565,-95.1652,73.113
1805,-0.4982,-60.891,-13.9103,-709.0783,-89.9478,54.6087
1810,-2.6441,-60.4695,-16.8226,-447.3739,-24.1391,35.1304
1815,-2.1459,-55.9477,-14.8683,-104.1391,68.7304,11.2
1820,-0.0766,-48.2836,-12.4924,182.1217,115.4087,-9.8783
1825,0.6514,-39.125,-9.8483,349.2174,117.9826,-14.4
1830,0.2682,-29.5066,-8.1239,419.1304,97.3913,-7.3739
1835,-0.8814,-21.1528,-7.2042,436.313,71.4435,5.5652
1840,-2.4142,-14.3701,-6.6677,429.7043,51.687,17.0435
1845,-3.6021,-9.695,-5.9013,411.4087,41.3913,21.1478
1850,-4.4452,-6.6677,-4.5984,392.0696,41.1826,16.0
1855,-4.3685,-5.02,-3.7171,361.4609,49.3217,2.9217
1860,-4.5984,-4.4068,-2.9123,316.2435,59.3391,-13.7739
1865,-4.3685,-4.1386,-2.3375,253.3565,72.4174,-26.0174
1870,-3.6021,-4.9433,-2.0693,180.8,83.8261,-36.8
1875,-2.8357,-6.2845,-1.6095,109.287,93.3565,-41.8783
1880,-2.1459,-7.8557,-1.1879,47.3043,101.913,-42.6435
1885,-1.4179,-9.4268,-0.5748,0.2783,110.6783,-39.3739
1890,-0.5365,-10.4231,-0.0383,-33.3913,119.1652,-34.6435
1895,-0.0383,-11.4195,0.6131,-56.4174,125.9826,-29.5652
1900,0.4982,-12.1092,1.3412,-71.3739,129.8087,-25.1826
1905,0.9963,-12.3008,1.8394,-79.9304,129.2522,-21.287
1910,1.7244,-12.3775,2.3759,-84.1043,124.4522,-18.3652
1915,2.1843,-12.2242,2.5291,-83.6174,116.8696,-16.0
1920,2.3375,-11.7643,2.7591,-78.3304,107.9652,-13.7043
1925,2.6441,-11.3428,3.0273,-67.1304,98.9217,-10.6435
1930,2.8357,-10.6914,2.7207,-49.6696,90.7826,-8.2783
1935,2.874,-9.7717,2.3759,-28.8,83.3391,-6.5391
1940,2.9507,-8.5071,1.9543,-6.9565,75.5478,-4.9391
1945,3.2189,-7.1276,1.4562,13.4957,67.5478,-4.0348
1950,3.1423,-5.5948,0.8047,32.8348,60.0348,-3.8957
1955,3.1039,-4.062,0.115,48.3478,53.7043,-4.5217
1960,2.7207,-2.5291,-0.5365,59.7565,48.7652,-4.9391
1965,2.4525,-1.1879,-1.4945,65.5304,45.1478,-5.0783
1970,2.2992,0.0383,-2.3759,65.8783,42.5739,-4.6609
1975,2.1459,0.8047,-3.3722,63.4435,41.1826,-3.8261
1980,1.7627,1.5328,-4.2152,59.687,41.3913,-2.9913
1985,1.6095,1.9543,-4.8284,56.5565,42.7826,-1.5304
1990,1.3795,2.1076,-5.4032,54.3304,44.1043,0.0696
1995,1.2646,2.4525,-5.7864,51.1304,44.6609,1.6696
2000,1.073,2.7974,-6.2079,47.3043,44.1739,4.0348
2005,0.843,3.0656,-6.7827,42.9217,42.713,6.887
2010,0.6898,3.6787,-6.821,38.5391,40.5565,10.0174
2015,0.4215,3.9853,-6.5911,35.4783,38.4,13.4261
2020,0.1533,4.4835,-6.3995,34.7826,36.5217,16.487
2025,0.1533,4.7134,-6.2079,36.7304,35.0609,19.6174
2030,0.3832,4.905,-5.9396,40.5565,34.1565,22.4
2035,0.7281,5.02,-5.7097,45.0087,34.087,24.0696
2040,1.1879,5.0966,-5.5948,48.487,34.9913,24.9043
2045,1.6095,5.1349,-5.2882,49.2522,36.5913,25.3217
2050,1.8394,5.1732,-5.4415,47.3043,39.2348,24.9739
2055,1.6478,4.8667,-5.1349,42.7826,42.3652,24.2087
2060,1.2263,4.3685,-4.9433,36.3826,45.6348,22.6087
2065,1.0346,3.7937,-4.6751,30.1217,48.2783,20.1043
2070,0.5748,3.1039,-4.1003,25.7391,50.087,16.8348
2075,0.3066,2.1843,-3.8704,25.5304,51.0609,13.2174
2080,0.0,1.0346,-3.6787,29.7043,51.6174,9.5304
2085,-0.6131,-0.3066,-3.6404,42.1565,52.7304,6.0522
2090,0.3449,-1.8011,-4.7517,63.4435,55.3739,2.2957
2095,3.1806,-3.1423,-6.7827,91.2696,63.7217,-3.2696
2100,6.7444,-3.7937,-10.0782,118.9565,80.0696,-9.6696
2105,8.852,-3.3722,-13.0289,133.5652,100.6609,-18.4348
2110,7.2425,-2.8357,-12.6457,126.1217,112.7652,-23.8609
2115,4.3302,-2.4142,-9.8866,96.487,103.6522,-25.4609
2120,2.6058,-3.2572,-6.7444,50.0174,78.7478,-28.3826
2125,3.2572,-6.936,-1.1113,-1.2522,57.2522,-36.8696
2130,6.5145,-13.3738,3.1423,-36.3826,49.1826,-46.1913
2135,6.3612,-17.2825,2.1076,-55.9304,61.3565,-61.5652
2140,2.1843,-18.6237,-2.989,-85.7739,95.6522,-83.687
2145,-2.9123,-21.1528,-7.6641,-142.3304,146.6435,-102.7478
2150,-7.1276,-29.2001,-10.6914,-215.1652,195.4783,-126.9565
2155,-14.6,-42.6505,-14.2552,-303.4435,205.4261,-169.8783
2160,-21.9575,-55.8327,-17.7806,-429.8435,149.7739,-198.6087
2165,-22.2641,-63.2285,-23.4137,-571.8957,62.5391,-167.3043
2170,-12.0709,-58.4385,-14.5234,-662.1217,-4.5217,-88.9739
2175,-7.0126,-53.8017,-9.7717,-568.7652,-52.9391,-15.0957
2180,-3.3722,-53.112,-8.1239,-329.7391,-103.9304,36.0348
2185,-3.2189,-49.7398,-6.1313,-73.3913,-150.1913,48.6261
2190,-2.2226,-44.4516,-4.4068,134.4,-177.7391,51.6174
2195,-0.958,-37.324,-4.4068,251.4087,-178.1565,63.0261
2200,-0.4215,-27.7822,-2.5675,257.4609,-150.2609,83.6174
2205,2.1843,-20.4247,0.1533,229.4957,-104.4174,108.5913
2210,4.5218,-13.1439,2.0693,237.7739,-59.4087,106.5043
2215,4.7517,-7.2425,1.7627,284.7304,-35.1304,70.887
2220,2.8357,-3.5638,0.5748,346.5043,-39.5826,26.5739
2225,1.5328,-2.3375,-2.9123,387.6174,-63.5826,3.5478
2230,1.4179,-0.958,-6.8593,378.2261,-85.0783,-0.487
2235,1.6478,-0.0383,-7.5491,321.7391,-93.4261,0.1391
2240,1.6095,-0.1916,-7.3575,242.7826,-93.913,-0.1391
2245,1.7244,-1.1879,-6.5528,159.6522,-95.513,-2.2261
2250,1.4945,-2.4525,-5.1732,81.6,-102.4696,-6.3304
2255,1.4562,-3.832,-4.1003,12.5913,-112.7652,-12.5217
2260,1.2263,-5.1349,-2.5291,-44.9391,-121.6,-19.0609
2265,0.958,-6.6294,-0.843,-89.7391,-126.3304,-24.3478
2270,0.7281,-8.2005,0.5748,-121.1826,-126.6783,-27.6174
2275,0.4598,-9.695,2.0693,-140.313,-124.5217,-29.4261
2280,-0.1533,-10.883,2.989,-147.5478,-122.087,-30.5391
2285,-0.6898,-11.841,3.4488,-144.0,-120.3478,-30.7478
2290,-1.5711,-12.4924,2.9123,-132.2435,-118.4696,-29.287
2295,-2.2226,-12.9523,2.2992,-113.9478,-115.687,-25.4609
2300,-2.4908,-13.2205,1.1113,-89.0435,-111.9304,-19.4783
2305,-2.4525,-12.9139,0.0383,-56.6957,-109.0087,-13.287
2310,-2.5291,-12.3008,-1.3029,-17.6696,-107.3391,-8.0696
2315,-2.3759,-11.4961,-2.2609,16.9739,-106.5739,-4.3826
2320,-1.7627,-10.0782,-3.1423,62.2609,-106.4348,-2.4348
2325,-1.6095,-8.3538,-3.9087,105.1826,-105.8087,-0.2783
2330,-1.2646,-6.4378,-4.8284,142.0522,-104.0696,3.7565
2335,-0.6131,-4.79,-4.905,169.3217,-101.3565,7.5826
2340,-0.3832,-2.7974,-5.2882,185.6696,-99.1304,11.2696
2345,0.115,-0.9963,-5.0583,190.4,-97.8087,15.0261
2350,0.7664,0.958,-4.9433,186.0174,-97.6696,18.7826
2355,1.5711,2.4908,-4.8284,174.4696,-97.9478,22.4696
2360,1.916,3.9087,-4.9816,156.6609,-97.8783,25.1826
2365,2.2609,4.9433,-5.3648,132.5217,-97.0435,27.5478
2370,2.1843,5.4415,-5.978,102.6087,-95.3739,29.4261
2375,1.9927,6.0546,-6.3995,69.4957,-93.0087,29.5652
2380,1.7244,5.863,-6.821,37.4957,-89.6696,29.913
2385,1.8394,5.5948,-7.4725,8.4174,-85.4261,30.887
2390,1.7627,5.02,-8.0473,-15.3043,-81.6,31.3043
2395,1.8394,4.4835,-8.2389,-34.1565,-77.913,30.8174
2400,1.9543,4.1769,-8.3921,-46.8174,-75.4087,29.3565
2405,2.031,4.062,-8.0856,-53.8435,-73.8783,26.8522
2410,2.3375,3.9087,-7.3958,-56.2087,-73.2522,23.3739
2415,2.3759,3.7554,-6.7061,-54.4,-73.0435,18.8522
2420,2.2226,3.3722,-5.8247,-50.0174,-72.8348,13.6348
2425,2.0693,3.1039,-5.2116,-43.9652,-72.6261,8.6261
2430,1.9927,2.874,-4.1769,-36.5913,-72.5565,4.3826
2435,1.916,2.5291,-3.7554,-27.2696,-72.3478,0.9739
2440,2.2226,2.1076,-3.2955,-15.4435,-71.3043,-1.2522
2445,2.6058,1.5711,-3.2189,-1.3913,-69.0783,-2.1565
2450,2.989,1.1879,-3.1423,13.3565,-65.4609,-1.6
2455,2.9123,0.8814,-3.6787,26.3652,-61.5652,0.2783
2460,2.1076,0.9197,-4.9433,33.4609,-60.3826,3.6174
2465,0.5748,1.3029,-6.7444,29.8435,-65.113,8.9739
2470,-0.5365,1.7244,-8.967,11.0609,-76.8696,15.5826
2475,-0.8814,1.8011,-10.2315,-21.9826,-92.3826,22.4
2480,0.0766,0.8047,-10.7297,-58.713,-105.6,29.7739
2485,3.7554,-1.2263,-10.4231,-87.7913,-110.3304,37.3565
2490,7.9323,-4.0236,-7.9323,-106.5043,-100.4522,40.7652
2495,11.3811,-9.0436,-1.5328,-113.3913,-72.3478,39.3739
2500,11.9559,-14.6,0.6514,-99.6174,-28.2435,33.2522
2505,8.8137,-16.9376,-6.6677,-96.487,17.5304,30.6087
2510,7.1659,-16.1712,-10.6147,-151.3043,46.1217,40.1391
2515,5.4032,-17.4357,-15.1748,-256.6261,46.7478,57.4609
2520,4.0236,-28.0505,-21.4977,-389.4261,20.8,106.2957
2525,2.5675,-42.4972,-25.2148,-543.3043,-3.6174,173.9826
2530,2.2992,-61.6957,-23.3754,-697.8783,-18.9913,212.4522
2535,0.3066,-68.2102,-21.2295,-785.9478,-41.7391,194.2261
2540,-5.2116,-65.2978,-18.2405,-721.3913,-48.5565,143.0261
2545,-4.1003,-64.3781,-17.1675,-548.8696,-7.0261,75.3391
2550,-1.6861,-62.3088,-13.4121,-243.6174,80.487,17.6696
2555,-0.0383,-53.6868,-7.3575,58.5739,141.5652,-12.4522
2560,1.0346,-42.8038,-4.4068,241.0435,162.9217,-10.2261
2565,0.3066,-33.5686,-4.062,348.4522,150.1217,-6.4
2570,-1.5328,-26.3261,-4.2152,418.2957,128.0,-5.287
2575,-3.4105,-20.0798,-4.7517,452.8,105.1826,-6.9565
2580,-4.79,-14.2552,-5.0966,460.7304,89.9478,-10.9913
2585,-5.863,-9.2352,-4.6751,452.5217,87.2348,-18.7826
2590,-5.7864,-4.2152,-2.5291,431.5826,94.8174,-30.4696
2595,-4.6751,-1.916,-1.7627,401.113,104.0696,-45.0087
2600,-3.5638,-0.4982,-1.1113,354.9913,106.713,-60.5217
2605,-2.5675,-0.3832,-1.4945,289.2522,103.3043,-72.7652
2610,-1.7627,-1.2263,-1.4945,206.9565,98.0174,-77.9826
2615,-1.1113,-2.989,-1.5711,124.2435,94.7478,-75.6174
2620,-0.2682,-5.1349,-1.6861,52.313,94.4,-68.9391
2625,0.3832,-7.0126,-1.2646,-6.7478,96.4174,-60.8
2630,0.8814,-8.5454,-0.7664,-53.7043,98.8522,-51.3391
2635,1.4179,-9.7717,0.0766,-89.1826,99.4087,-40.487
2640,1.7627,-10.6914,0.8814,-114.0174,95.5826,-30.3304
2645,1.9927,-11.3428,1.5711,-129.113,87.0261,-22.0522
2650,1.9927,-11.8027,2.0693,-134.6087,75.8261,-15.9304
2655,2.1459,-12.0709,2.1459,-131.6174,64.5565,-11.4783
2660,2.1459,-11.9176,2.1076,-121.6,55.1652,-8.2783
2665,1.9927,-11.3811,2.0693,-105.9478,49.2522,-5.4957
2670,2.0693,-10.4998,2.031,-83.687,47.7913,-2.7826
2675,2.031,-9.6567,1.4945,-54.887,50.8522,0.3478
2680,1.7244,-8.3155,1.073,-21.7043,56.2087,2.713
2685,1.916,-7.1659,0.8047,14.9565,61.4261,3.8261
2690,1.7627,-5.6331,0.2682,54.2609,65.6696,3.1304
2695,1.8777,-4.1769,-0.6514,91.1304,69.0087,-0.1391
2700,1.9927,-2.9507,-1.6095,120.5565,71.2348,-5.2174
2705,2.1843,-1.2263,-2.3759,140.1739,72.4174,-11.687
2710,2.4525,-0.0383,-2.989,150.7478,73.2522,-19.3391
2715,2.5291,1.3795,-3.6787,153.0435,73.3217,-26.5739
2720,2.6058,2.7591,-4.1386,148.1739,72.5565,-31.513
2725,2.6441,4.062,-4.6751,137.2522,71.0957,-34.1565
2730,2.4908,5.2116,-5.0583,120.4174,68.9391,-35.687
2735,2.2609,5.5948,-5.8247,97.8087,66.087,-35.4783
2740,1.6861,6.2845,-6.2845,70.2609,62.7478,-33.3217
2745,1.3029,5.978,-6.7061,42.0174,59.1304,-28.8
2750,0.9197,5.7097,-6.9743,15.3739,55.6522,-22.5391
2755,0.5365,4.8667,-6.8593,-5.6348,52.4522,-14.2609
2760,0.4982,4.5601,-6.9743,-17.6696,48.9043,-5.0087
2765,0.3066,4.062,-6.821,-21.4261,44.313,4.1739
2770,0.4598,3.6787,-6.6677,-21.0087,38.7478,12.8
2775,0.4215,3.6787,-6.3229,-17.2522,33.7391,19.7565
2780,0.7281,3.4871,-6.1696,-10.4348,27.2,24.7652
2785,0.8814,3.4488,-6.0546,-1.8783,21.5652,27.1304
2790,0.6898,3.5255,-5.748,6.9565,17.7391,28.313
2795,0.4215,3.2572,-5.4032,14.6783,15.9304,27.7565
2800,0.115,2.9507,-5.0966,20.5217,16.3478,26.1565
2805,-0.115,2.6058,-4.5218,24.6261,18.6435,23.7913
2810,-0.1533,2.1843,-4.2152,27.9652,22.1217,21.0783
2815,0.115,1.3795,-3.832,31.6522,27.2,18.087
2820,1.073,0.5748,-3.6787,36.5217,34.3652,15.0957
2825,2.1843,0.0,-3.5638,42.5739,45.0783,11.8261
2830,2.8357,-0.9963,-4.2536,49.8087,59.4783,7.513
2835,3.1039,-1.5711,-5.3648,54.2609,75.687,2.2957
2840,3.7937,-1.7244,-7.1276,49.3913,90.4348,-2.9217
2845,4.5984,-1.4945,-8.9286,29.9826,100.313,-7.513
2850,4.8667,-1.3029,-10.883,-4.8696,102.6783,-11.4087
2855,4.2152,-1.3412,-12.0326,-50.3652,97.5304,-13.7043
2860,2.1459,-2.4142,-11.3811,-96.3478,88.2783,-12.0348
2865,1.1113,-5.4798,-8.9286,-132.2435,79.2348,-7.3739
2870,1.4179,-11.5344,-2.7591,-149.287,72.2087,-7.0261
2875,2.2609,-17.3208,0.2682,-147.8261,68.5217,-14.9565
2880,0.4982,-20.9229,-1.3795,-150.5391,87.513,-30.3304
2885,-2.3375,-22.0725,-4.1386,-182.1217,140.5913,-49.4609
2890,-6.5145,-28.7402,-4.6751,-246.0522,207.4435,-80.6957
2895,-13.3738,-42.6122,-6.3229,-327.0261,244.313,-143.2348
2900,-18.4704,-54.07,-14.9066,-412.1739,232.5565,-208.487
2905,-18.0105,-56.1009,-22.2641,-497.0435,194.2261,-219.2
2910,-14.2552,-53.1886,-19.2368,-531.8261,138.8522,-164.7304
2915,-7.779,-51.924,-11.5727,-446.8174,64.0,-77.8435
2920,-2.7591,-51.8474,-7.5108,-273.2522,-20.5913,-12.0348
2925,-1.3795,-49.893,-4.9816,-93.2174,-103.8609,21.8435
2930,-1.6095,-46.2143,-5.0966,43.4783,-172.8696,48.6261
2935,-1.1879,-41.4626,-8.1239,105.9478,-210.1565,78.5391
2940,-0.3832,-35.178,-4.905,94.4,-198.3304,109.2174
2945,1.3029,-28.357,-0.7281,87.3739,-161.113,126.4696
2950,4.0236,-19.1602,1.7627,130.9217,-122.713,111.1652
2955,4.5601,-12.1859,0.843,206.5391,-93.3565,70.9565
2960,4.4835,-6.4761,-0.5365,276.0348,-71.7217,26.8522
2965,4.2536,-3.1423,-2.6058,322.9913,-58.6435,-3.7565
2970,4.4068,-1.1496,-4.6368,333.4957,-54.887,-17.5304
2975,4.1769,-0.0766,-5.4798,302.5391,-55.5826,-24.487
2980,3.7554,-0.0766,-5.0583,243.3391,-57.0435,-28.4522
2985,3.2189,-1.1496,-4.4452,176.3478,-59.5478,-31.1652
2990,2.4525,-2.6058,-3.4871,116.0348,-63.4435,-33.0435
2995,1.9543,-4.2536,-2.3759,66.1565,-68.3826,-32.9043
