timestamp,accX,accY,accZ,gyroX,gyroY,gyroZ
0,2.0693,1.9927,8.6604,-1.6,6.6783,-3.2696
5,2.031,1.916,8.6987,-1.8087,6.9565,-3.4087
10,1.9543,1.8394,8.6604,-2.087,7.2348,-3.687
15,1.9927,1.8394,8.6221,-2.2261,7.3043,-3.6174
20,1.916,1.9543,8.6987,-2.087,7.0957,-3.8261
25,1.916,1.8777,8.6604,-1.9478,7.0261,-3.6174
30,1.9543,1.8011,8.8137,-1.6696,6.7478,-3.6174
35,1.8777,1.8011,8.8137,-1.3913,6.4,-3.3391
40,1.8011,1.7627,8.6987,-0.9739,6.2609,-3.3391
45,1.7627,1.6861,8.8137,-0.6957,5.8435,-2.9217
50,1.8394,1.7627,8.737,-0.3478,5.6348,-2.7826
55,1.7244,1.8011,8.737,-0.0696,5.2174,-2.5043
60,1.7627,1.7244,8.9286,0.0696,4.8696,-2.4348
65,1.8011,1.7244,8.8137,0.2783,4.6609,-2.087
70,1.8394,1.7244,8.7754,0.3478,4.5913,-2.0174
75,1.7244,1.7244,8.8137,0.3478,4.4522,-1.7391
80,1.7244,1.7627,8.6604,0.4174,4.3826,-1.8087
85,1.7627,1.7244,8.8137,0.4174,4.4522,-1.4609
90,1.7244,1.7627,8.7754,0.4174,4.5913,-1.5304
95,1.6861,1.7627,8.6221,0.2783,4.5913,-1.3217
100,1.8011,1.7244,8.6221,0.2087,4.5217,-1.4609
105,1.8777,1.6095,8.5838,0.2087,4.5913,-1.3913
110,1.7627,1.6478,8.852,0.0,4.7304,-1.6
115,1.6861,1.7627,8.8137,-0.2087,4.7304,-1.6
120,1.8394,1.5711,8.852,-0.2783,4.8,-1.7391
125,1.8394,1.6861,8.9286,-0.2087,4.8696,-1.6696
130,1.8011,1.7244,8.852,0.0696,4.8696,-1.8087
135,1.7244,1.6861,8.5838,0.3478,4.8696,-1.6696
140,1.8011,1.6095,8.737,0.6261,5.0087,-1.8783
145,1.8394,1.5711,8.6221,0.8348,5.0783,-1.7391
150,1.7627,1.6478,8.6987,0.9739,5.0783,-2.0174
155,1.8011,1.6861,8.6604,1.1826,5.0783,-1.8087
160,1.8394,1.6095,8.5838,1.3217,5.0783,-1.9478
165,1.8011,1.6861,8.6604,1.3913,5.0783,-1.6696
170,1.8011,1.6861,8.6987,1.4609,5.0087,-1.7391
175,1.7627,1.8394,8.5838,1.4609,5.0783,-1.6696
180,1.6861,1.7244,8.5454,1.3217,5.287,-1.7391
185,1.6861,1.7627,8.6987,1.3217,5.287,-1.3913
190,1.6861,1.7244,8.737,1.1826,5.287,-1.5304
195,1.6861,1.6861,8.6604,1.113,5.287,-1.3913
200,1.6861,1.6861,8.852,0.9043,5.2174,-1.4609
205,1.6478,1.7244,8.6604,0.7652,5.0783,-1.1826
210,1.5711,1.8011,8.737,0.6261,5.0783,-1.1826
215,1.6478,1.8011,8.7754,0.487,4.8696,-0.8348
220,1.6478,1.7244,8.737,0.487,4.7304,-0.6957
225,1.6861,1.6861,8.852,0.487,4.5217,-0.487
230,1.7244,1.8011,8.967,0.6957,4.4522,-0.3478
235,1.7244,1.8394,8.852,0.6957,4.2435,-0.0696
240,1.8394,1.7627,8.852,0.8348,4.1043,0.0
245,1.6095,1.8394,8.8137,0.9739,3.9652,0.2783
250,1.7244,1.8777,8.9286,1.1826,3.8261,0.2087
255,1.5711,1.916,8.8903,1.2522,3.9652,0.3478
260,1.8394,1.7627,8.737,1.3217,3.8957,0.3478
265,1.6478,1.8777,8.7754,1.3913,3.8957,0.487
270,1.7244,1.8011,8.6604,1.4609,3.8261,0.4174
275,1.7244,1.7627,8.737,1.5304,3.8957,0.487
280,1.7627,1.8777,8.6604,1.6,3.8261,0.3478
285,1.7244,1.7627,8.967,1.5304,3.7565,0.4174
290,1.6861,1.7244,8.7754,1.6696,3.6174,0.3478
295,1.7627,1.7244,8.6987,1.8087,3.5478,0.3478
300,1.8394,1.8011,8.737,1.8087,3.4087,0.2087
305,1.7244,1.8011,8.852,1.7391,3.2696,0.3478
310,1.6861,1.8777,8.6604,1.5304,3.0609,0.1391
315,1.8394,1.8777,8.6221,1.4609,2.9217,0.2087
320,1.8394,1.8777,8.852,1.1826,2.7826,0.0696
325,1.7627,1.8011,8.6604,0.7652,2.7826,0.0696
330,1.8011,1.8777,8.737,0.487,2.713,0.0
335,1.8394,1.8394,8.6604,0.1391,2.7826,-0.0696
340,1.8394,1.8394,8.6221,-0.2087,2.713,-0.0696
345,1.8011,1.9543,8.737,-0.5565,2.9217,-0.1391
350,1.8011,1.7627,8.6987,-0.7652,2.9217,-0.2783
355,1.7244,1.9543,8.8903,-0.8348,3.0609,-0.2783
360,1.7627,1.8394,8.8903,-0.9739,2.9913,-0.4174
365,1.8777,1.8011,8.6221,-1.0435,2.9217,-0.487
370,1.8394,1.8394,8.737,-0.9043,2.9217,-0.487
375,1.8011,1.8777,8.737,-0.9739,2.8522,-0.5565
380,1.916,1.8011,8.6987,-0.9043,3.0609,-0.6261
385,2.031,1.7244,8.7754,-0.9739,3.0609,-0.6957
390,1.8011,1.916,8.7754,-0.9739,2.9217,-0.7652
395,1.9543,1.8777,8.737,-0.9043,2.9913,-0.7652
400,1.8777,1.7627,8.6604,-0.8348,3.1304,-0.7652
405,1.8777,1.7244,8.6987,-0.8348,3.0609,-0.8348
410,1.8777,1.8394,8.6987,-0.6261,3.1304,-0.8348
415,1.916,1.8011,8.6221,-0.6261,3.1304,-0.9043
420,1.9543,1.7244,8.6604,-0.5565,3.0609,-0.8348
425,1.8011,1.7627,8.6604,-0.487,3.1304,-0.8348
430,1.8394,1.8777,8.6221,-0.3478,3.1304,-0.6957
435,1.8394,1.7244,8.852,-0.3478,3.0609,-0.7652
440,1.8777,1.7627,8.6221,-0.2087,2.9913,-0.6957
445,1.8777,1.7627,8.6987,-0.1391,2.9913,-0.7652
450,1.8394,1.8011,8.737,-0.0696,2.9913,-0.6957
455,1.8777,1.8011,8.6987,0.0,2.9913,-0.6957
460,1.8777,1.9543,8.6604,0.0696,2.9913,-0.6261
465,1.916,1.8011,8.737,0.2783,2.9913,-0.5565
470,1.8777,1.8394,8.6221,0.2783,2.9913,-0.5565
475,1.916,1.8777,8.5838,0.3478,2.9913,-0.5565
480,1.8394,1.916,8.6221,0.4174,2.8522,-0.487
485,1.8777,1.8394,8.6987,0.5565,2.9913,-0.6261
490,1.9543,1.8011,8.8903,0.6957,2.9217,-0.487
495,1.8777,1.8777,8.8137,0.6261,2.9217,-0.5565
500,1.916,1.9543,8.737,0.7652,2.8522,-0.487
505,1.9543,1.8777,8.737,0.8348,2.7826,-0.6261
510,1.916,1.916,8.737,0.8348,2.7826,-0.6261
515,1.9543,1.8777,8.7754,0.8348,2.713,-0.6957
520,1.8011,1.9543,8.737,0.8348,2.713,-0.6261
525,1.916,2.031,8.7754,0.9043,2.6435,-0.6957
530,1.8394,1.916,8.852,0.9739,2.713,-0.7652
535,2.031,1.8394,8.6987,1.0435,2.713,-0.9739
540,2.031,1.916,8.8903,1.1826,2.8522,-0.6957
545,1.9927,1.8777,8.6987,1.1826,2.8522,-0.9739
550,2.0693,1.916,8.8903,1.1826,2.9217,-0.8348
555,1.9927,2.031,8.6987,1.1826,3.0609,-1.0435
560,1.916,1.916,8.6987,1.2522,3.0609,-0.9043
565,2.031,1.9927,8.6987,1.1826,3.1304,-1.113
570,1.9927,1.9543,8.737,1.113,3.2,-0.9043
575,1.9543,1.916,8.6221,1.0435,3.2,-0.9739
580,1.916,1.9927,8.5838,0.9739,3.2,-0.9043
585,1.916,1.9927,8.5838,1.1826,3.2696,-0.9043
590,1.9543,1.9543,8.5454,1.113,3.4087,-0.7652
595,1.916,1.9927,8.5838,1.1826,3.4087,-0.8348
600,1.8777,1.916,8.6987,1.113,3.5478,-0.6261
605,1.9543,1.9543,8.6987,0.9739,3.4783,-0.8348
610,1.8394,1.8394,8.6987,0.9043,3.687,-0.5565
615,1.8777,1.8394,8.6987,0.9043,3.6174,-0.6957
620,1.8394,1.8394,8.6604,0.7652,3.6174,-0.487
625,1.916,1.9543,8.6987,0.6957,3.6174,-0.6261
630,1.916,1.8394,8.6987,0.6261,3.7565,-0.487
635,1.8011,1.8394,8.5838,0.6957,3.8261,-0.6957
640,1.8777,1.8777,8.6604,0.8348,3.687,-0.6261
645,1.8777,1.916,8.5838,1.0435,3.7565,-0.9043
650,1.8394,1.916,8.6221,1.1826,3.7565,-0.6957
655,1.8394,1.8777,8.5454,1.2522,3.8261,-0.9043
660,1.8394,1.9927,8.6221,1.3913,3.8261,-0.8348
665,1.8011,1.8777,8.737,1.3913,3.8261,-1.0435
670,1.8394,1.8394,8.5071,1.3913,3.8261,-0.9739
675,1.7627,1.8777,8.6987,1.3217,3.8957,-1.0435
680,1.8777,1.9543,8.6987,1.113,3.7565,-0.9043
685,1.8394,1.8777,8.6604,0.9043,3.8261,-1.113
690,1.916,1.8777,8.6987,0.6261,3.8261,-0.9043
695,1.8011,1.9927,8.6604,0.2087,3.687,-1.113
700,1.8011,1.9543,8.6987,-0.2783,3.8261,-0.9739
705,1.916,1.9927,8.6221,-0.8348,3.7565,-1.1826
710,1.8777,1.9927,8.7754,-1.113,3.8261,-1.113
715,1.8394,1.8394,8.6221,-1.6,3.9652,-1.2522
720,1.7627,1.916,8.7754,-2.087,4.1043,-1.0435
725,1.8394,1.8394,8.737,-2.4348,4.1043,-1.1826
730,1.8777,1.8777,8.852,-2.6435,4.1043,-0.9739
735,1.9927,1.9543,8.6987,-2.8522,4.1739,-1.0435
740,1.916,1.916,8.737,-2.9913,4.3826,-0.8348
745,1.7627,1.9543,8.7754,-3.2,4.313,-1.0435
750,1.8394,1.916,8.8137,-3.4087,4.2435,-0.7652
755,1.8777,1.8777,8.967,-3.4783,4.313,-0.8348
760,1.8777,1.916,8.737,-3.4783,4.313,-0.6261
765,2.031,1.9543,8.737,-3.4783,4.3826,-0.7652
770,1.8777,1.8777,8.6987,-3.6174,4.3826,-0.6261
775,2.031,1.8777,8.6987,-3.6174,4.4522,-0.7652
780,1.8777,1.9927,8.737,-3.687,4.5217,-0.6261
785,1.9927,1.916,8.6987,-3.8957,4.5913,-0.8348
790,1.916,1.9543,8.7754,-4.1043,4.6609,-0.6261
795,1.8394,1.916,8.6221,-4.5217,4.7304,-0.8348
800,1.916,1.9927,8.6221,-4.9391,4.7304,-0.6261
805,1.8394,1.916,8.7754,-5.5652,4.8,-0.7652
810,1.7627,1.9927,8.6221,-5.913,4.8,-0.8348
815,1.9927,1.916,8.737,-6.1217,4.6609,-1.0435
820,1.9543,1.9543,8.6604,-6.2609,4.6609,-0.9739
825,1.8777,1.916,8.6604,-6.2609,4.5217,-1.2522
830,1.916,1.916,8.6987,-6.1913,4.5217,-1.1826
835,1.9543,1.8394,8.7754,-6.0522,4.5217,-1.4609
840,1.9543,1.916,8.737,-5.913,4.6609,-1.3913
845,1.8777,1.9543,8.6221,-5.913,4.7304,-1.5304
850,1.916,1.8777,8.6604,-5.7739,4.6609,-1.4609
855,1.8777,2.031,8.852,-5.8435,4.5913,-1.5304
860,1.916,1.916,8.5838,-5.8435,4.5913,-1.4609
865,1.916,1.8777,8.737,-5.9826,4.6609,-1.4609
870,1.8777,1.8777,8.737,-5.9826,4.5913,-1.3913
875,1.8777,1.8394,8.6987,-6.0522,4.6609,-1.3913
880,1.8777,1.8777,8.8137,-6.0522,4.6609,-1.3913
885,2.031,1.8394,8.6221,-6.0522,4.7304,-1.6
890,1.9927,1.8011,8.6604,-6.1217,4.7304,-1.5304
895,1.8394,1.8394,8.737,-6.1217,4.8696,-1.6696
900,1.8777,1.8777,8.6987,-6.1913,4.8,-1.6696
905,1.916,1.7244,8.6221,-6.2609,5.0087,-1.8087
910,1.8777,1.8011,8.6604,-6.2609,5.0087,-1.8087
915,1.8394,1.8777,8.6604,-6.2609,5.0087,-1.8087
920,1.8011,1.8394,8.6221,-6.3304,5.0087,-1.7391
925,1.8011,1.8777,8.6604,-6.1913,5.0087,-1.8783
930,1.8394,1.8011,8.737,-6.1913,5.0783,-1.8087
935,1.916,1.7627,8.6987,-6.1217,4.9391,-1.8783
940,1.8394,1.7627,8.737,-5.9826,5.0783,-1.8087
945,1.8394,1.7627,8.6987,-5.913,4.9391,-1.8783
950,1.8394,1.8777,8.737,-5.7739,4.7304,-1.8087
955,1.8394,1.8011,8.737,-5.7043,4.8696,-1.8783
960,1.8777,1.8011,8.6987,-5.6348,4.8696,-1.7391
965,1.8777,1.9543,8.6221,-5.7739,5.0087,-1.8087
970,1.9927,1.8011,8.6604,-5.9826,4.9391,-1.8783
975,1.7627,1.916,8.6987,-6.2609,4.9391,-1.9478
980,1.9543,1.8777,8.7754,-6.4,4.9391,-2.1565
985,1.916,1.7244,8.8137,-6.6087,4.9391,-2.2957
990,1.9543,1.6478,8.852,-6.5391,5.1478,-2.2957
995,1.8777,1.7244,8.6987,-6.4696,5.2174,-2.2957
1000,1.8394,1.8394,8.8903,-6.1913,5.1478,-2.3652
1005,1.8777,1.6861,8.852,-5.913,5.2174,-2.2957
1010,1.8777,1.7244,8.7754,-5.8435,5.2174,-2.2261
1015,1.8394,1.8011,8.6987,-5.8435,5.3565,-2.2261
1020,1.8394,1.8011,8.852,-5.8435,5.4261,-2.2957
1025,1.8777,1.7244,8.7754,-6.0522,5.5652,-2.087
1030,1.8394,1.8394,8.852,-6.0522,5.5652,-2.1565
1035,1.9927,1.6861,8.8137,-6.3304,5.6348,-1.9478
1040,1.916,1.7244,8.6987,-6.4696,5.6348,-1.9478
1045,1.916,1.7244,8.6604,-6.8174,5.7043,-1.7391
1050,1.8394,1.7627,8.7754,-6.9565,5.5652,-1.6
1055,1.916,1.7627,8.7754,-7.1652,5.4957,-1.3913
1060,1.8394,1.6861,8.6604,-7.3739,5.4957,-1.3913
1065,1.8394,1.5328,8.6987,-7.513,5.3565,-1.1826
1070,1.8394,1.6478,8.8137,-7.4435,5.4261,-1.2522
1075,1.9543,1.5711,9.0819,-7.2348,5.4957,-0.9043
1080,1.916,1.4945,8.852,-6.887,5.4261,-0.9739
1085,1.8777,1.4562,8.8137,-6.4,5.3565,-0.8348
1090,1.8394,1.4945,8.852,-5.9826,5.287,-0.7652
1095,1.8394,1.5711,8.7754,-5.4957,5.287,-0.6261
1100,1.9543,1.3795,8.852,-5.1478,5.2174,-0.7652
1105,1.916,1.5711,8.6987,-5.0087,5.287,-0.5565
1110,1.8777,1.5328,8.737,-4.9391,5.4957,-0.7652
1115,1.7244,1.6478,8.737,-5.0783,5.4957,-0.7652
1120,1.8011,1.6478,8.6221,-5.1478,5.5652,-0.9043
1125,1.8394,1.5711,8.9286,-5.4261,5.5652,-0.8348
1130,1.8011,1.6095,8.6987,-5.7043,5.7043,-0.9739
1135,1.916,1.5711,8.6604,-5.913,5.7739,-0.8348
1140,1.7627,1.7244,8.6987,-6.1913,5.7739,-0.9043
1145,1.7244,1.6861,8.852,-6.3304,5.7739,-0.7652
1150,1.8011,1.6478,8.852,-6.4696,5.7739,-0.8348
1155,1.8777,1.7244,8.8903,-6.6087,5.7739,-0.6957
1160,1.9543,1.6095,8.8137,-6.5391,5.7043,-0.6261
1165,1.8011,1.5711,8.6604,-6.6087,5.6348,-0.487
1170,1.8777,1.4562,8.7754,-6.6087,5.5652,-0.4174
1175,1.7627,1.5711,8.737,-6.4,5.4261,-0.2087
1180,1.8011,1.5711,8.737,-6.3304,5.3565,-0.2783
1185,1.7244,1.6095,8.6221,-6.2609,5.2174,-0.0696
1190,1.8777,1.4562,8.6987,-6.0522,5.1478,-0.1391
1195,1.8394,1.5711,8.852,-6.0522,5.0783,0.0
1200,1.8394,1.4179,8.737,-5.913,5.0087,-0.2087
1205,1.7627,1.6095,8.7754,-5.8435,5.0087,-0.1391
1210,1.8777,1.4945,8.737,-5.6348,4.9391,-0.2783
1215,1.8394,1.5328,8.8137,-5.4957,4.8696,-0.2087
1220,1.7627,1.4945,8.8137,-5.4261,4.9391,-0.487
1225,1.7627,1.4562,8.6604,-5.287,4.8696,-0.3478
1230,1.8011,1.3412,8.8137,-5.1478,4.9391,-0.487
1235,1.6861,1.5328,8.8137,-5.1478,4.9391,-0.3478
1240,1.7244,1.5711,8.852,-5.0783,4.9391,-0.487
1245,1.8394,1.3795,8.6987,-4.9391,5.0087,-0.4174
1250,1.7244,1.6095,8.7754,-4.8696,5.1478,-0.6957
1255,1.8394,1.5328,8.6987,-4.9391,5.2174,-0.5565
1260,1.7244,1.6095,8.737,-4.9391,5.287,-0.7652
1265,1.8777,1.4945,8.852,-4.8696,5.3565,-0.6261
1270,1.7627,1.4562,8.9286,-4.8696,5.5652,-0.8348
1275,1.7627,1.4179,8.6987,-4.8696,5.4261,-0.5565
1280,1.8394,1.5328,8.8903,-4.8696,5.287,-0.8348
1285,1.7244,1.4179,8.852,-4.6609,5.2174,-0.6261
1290,1.7627,1.4945,8.6987,-4.5913,5.0087,-0.7652
1295,1.6861,1.3795,8.5838,-4.4522,4.8,-0.6957
1300,1.7627,1.4945,8.7754,-4.3826,4.6609,-0.9739
1305,1.8011,1.4945,8.6987,-4.1043,4.5913,-0.8348
1310,1.8777,1.4562,8.6987,-3.9652,4.5217,-1.0435
1315,1.7627,1.5328,8.6221,-3.9652,4.5913,-0.9043
1320,1.8011,1.3795,8.6987,-4.1043,4.5913,-1.113
1325,1.7627,1.5328,8.6987,-4.0348,4.5913,-0.9739
1330,1.8394,1.4179,8.6604,-4.313,4.6609,-1.0435
1335,1.8011,1.4179,8.6604,-4.313,4.5913,-0.8348
1340,1.8011,1.3795,8.8137,-4.313,4.4522,-1.113
1345,1.7627,1.4562,8.7754,-4.313,4.4522,-0.9043
1350,1.8011,1.3412,8.6604,-4.2435,4.5217,-1.113
1355,1.8394,1.2263,8.7754,-4.2435,4.5913,-0.9739
1360,1.7244,1.4562,8.7754,-4.2435,4.6609,-1.1826
1365,1.8011,1.4945,8.8137,-4.1739,4.7304,-1.113
1370,1.7244,1.5328,8.7754,-4.1043,4.8696,-1.3913
1375,1.8011,1.4562,8.7754,-4.1043,4.9391,-1.3217
1380,1.7627,1.4179,8.737,-3.9652,5.0087,-1.5304
1385,1.7244,1.3795,8.8903,-3.8261,4.9391,-1.4609
1390,1.8011,1.4562,8.737,-3.7565,4.8,-1.5304
1395,1.916,1.2646,8.7754,-3.7565,4.6609,-1.3913
1400,1.7627,1.3412,8.5838,-3.5478,4.5217,-1.4609
1405,1.8011,1.4179,8.8903,-3.4783,4.2435,-1.2522
1410,1.8011,1.2646,8.737,-3.4087,4.1043,-1.3217
1415,1.916,1.3029,8.852,-3.4087,3.8957,-1.1826
1420,1.8777,1.3029,8.737,-3.2696,3.7565,-1.2522
1425,1.8777,1.3412,8.737,-3.0609,3.7565,-1.0435
1430,1.8394,1.3795,8.737,-2.9913,3.687,-1.1826
1435,1.8011,1.3795,8.8137,-2.9913,3.6174,-1.0435
1440,1.7244,1.3412,8.7754,-2.9217,3.687,-1.1826
1445,1.7627,1.4945,8.6221,-2.8522,3.6174,-1.0435
1450,1.8011,1.3412,8.7754,-2.7826,3.6174,-1.113
1455,1.7627,1.3029,8.7754,-2.6435,3.6174,-0.9739
1460,1.7244,1.3412,8.852,-2.713,3.687,-1.0435
1465,1.7244,1.4179,8.7754,-2.713,3.6174,-0.9043
1470,1.8394,1.4179,8.8137,-2.8522,3.6174,-1.0435
1475,1.8394,1.3412,8.5838,-2.8522,3.6174,-0.9043
1480,1.8011,1.4945,8.6221,-2.9217,3.5478,-1.0435
1485,1.8011,1.3412,8.6987,-3.1304,3.5478,-0.9043
1490,1.8777,1.4179,8.737,-3.2,3.5478,-0.9043
1495,1.8777,1.3795,8.737,-3.2,3.4087,-0.7652
1500,1.8777,1.2646,8.8137,-3.1304,3.3391,-0.6261
1505,1.916,1.3795,8.8137,-2.8522,3.2696,-0.5565
1510,1.7244,1.3795,8.7754,-2.713,3.2696,-0.6261
1515,1.8011,1.4945,8.8137,-2.5739,3.2,-0.5565
1520,1.8394,1.4562,8.8903,-2.5043,3.2,-0.6957
1525,1.8394,1.2646,8.8137,-2.3652,3.2,-0.6261
1530,1.8777,1.2646,8.737,-2.2261,3.1304,-0.6957
1535,1.8011,1.3412,8.737,-2.087,3.2,-0.6261
1540,1.916,1.3412,8.737,-2.0174,3.2696,-0.6957
1545,1.8777,1.3412,8.6221,-1.9478,3.2696,-0.7652
1550,1.8011,1.2646,8.6604,-2.0174,3.2696,-0.7652
1555,1.8777,1.2263,8.6987,-1.8783,3.3391,-0.6957
1560,1.8011,1.4562,8.852,-1.8087,3.3391,-0.6261
1565,1.8011,1.3412,8.7754,-1.6,3.2696,-0.5565
1570,1.7244,1.2646,8.737,-1.4609,3.2696,-0.487
1575,1.8011,1.3795,8.8137,-1.1826,3.2696,-0.487
1580,1.8777,1.3029,8.8137,-1.0435,3.3391,-0.3478
1585,1.7627,1.3029,8.852,-0.8348,3.4087,-0.2087
1590,1.7244,1.3412,8.9286,-0.7652,3.3391,-0.0696
1595,1.8011,1.1879,8.7754,-0.5565,3.4087,-0.1391
1600,1.7627,1.3795,8.8903,-0.487,3.5478,-0.1391
1605,1.7244,1.3412,8.6987,-0.3478,3.4783,-0.0696
1610,1.6861,1.3412,8.7754,-0.1391,3.5478,0.0696
1615,1.7627,1.3029,8.7754,-0.0696,3.687,0.0696
1620,1.8011,1.3795,8.737,0.0696,3.8261,0.0696
1625,1.7627,1.2263,8.7754,0.0696,3.9652,-0.1391
1630,1.7244,1.3412,8.6987,0.0696,3.9652,-0.1391
1635,1.8394,1.3795,8.7754,0.1391,4.0348,-0.1391
1640,1.8011,1.4179,8.6221,0.3478,3.9652,-0.3478
1645,1.8011,1.3795,8.8903,0.487,3.8957,-0.487
1650,1.7244,1.4179,8.7754,0.7652,3.7565,-0.487
1655,1.7627,1.3412,8.7754,0.8348,3.6174,-0.7652
1660,1.8011,1.3795,8.7754,0.9739,3.4783,-0.8348
1665,1.7244,1.3795,8.852,1.113,3.4783,-1.0435
1670,1.7627,1.3029,8.6987,0.9739,3.5478,-1.113
1675,1.8777,1.3412,8.8137,0.7652,3.6174,-1.1826
1680,1.8777,1.2646,8.7754,0.9043,3.8957,-1.113
1685,1.8394,1.4179,8.737,0.9043,4.1043,-1.0435
1690,1.9543,1.3029,8.6987,0.8348,4.3826,-0.9043
1695,1.916,1.4179,8.7754,0.6957,4.5913,-0.6957
1700,1.8777,1.3795,8.737,0.487,4.5913,-0.1391
1705,1.916,1.4179,8.6987,0.2087,4.5913,0.0696
1710,1.8777,1.4179,8.737,-0.0696,4.313,0.6261
1715,1.8394,1.4562,8.7754,-0.4174,4.1043,0.9043
1720,1.8011,1.4179,8.967,-0.5565,3.7565,1.3913
1725,1.8394,1.3029,8.6221,-0.9043,3.4087,1.6
1730,1.7627,1.4179,8.7754,-1.0435,3.0609,1.8783
1735,1.8011,1.3412,8.6987,-1.113,2.8522,1.8087
1740,1.7627,1.4179,8.8137,-1.3217,2.713,1.8087
1745,1.8011,1.4562,8.7754,-1.5304,2.713,1.6696
1750,1.6478,1.3029,8.7754,-1.7391,2.6435,1.6
1755,1.8777,1.3412,8.8137,-1.9478,2.713,1.3217
1760,1.7627,1.3029,8.7754,-2.087,2.6435,1.3913
1765,1.7627,1.3029,8.6987,-2.0174,2.5739,1.3217
1770,1.916,1.3029,8.737,-1.8087,2.5739,1.5304
1775,1.916,1.2263,8.6987,-1.6696,2.5739,1.5304
1780,1.9543,1.2263,8.737,-1.4609,2.6435,1.8087
1785,1.8777,1.3412,8.852,-1.1826,2.713,1.8783
1790,1.8777,1.3029,8.737,-0.9739,2.713,2.1565
1795,1.8777,1.2263,8.6987,-0.6957,2.713,2.2957
1800,1.9543,1.4179,8.6221,-0.4174,2.713,2.5043
1805,1.916,1.2646,8.7754,-0.0696,2.5043,2.6435
1810,1.9543,1.3795,8.6987,0.0696,2.4348,2.9217
1815,1.916,1.4179,8.6221,0.3478,2.4348,2.713
1820,1.8777,1.3795,8.6987,0.6957,2.5739,2.713
1825,1.9543,1.4562,8.8137,0.8348,2.5739,2.4348
1830,1.8777,1.4562,8.6987,1.1826,2.713,2.3652
1835,1.8011,1.4179,8.7754,1.4609,2.6435,2.0174
1840,1.8011,1.5328,8.737,1.6,2.6435,2.0174
1845,1.7244,1.6095,8.737,1.8783,2.713,1.6696
1850,1.8011,1.4179,8.7754,2.1565,2.7826,1.5304
1855,1.7627,1.4945,8.8137,2.2261,2.9913,0.9739
1860,1.8394,1.3412,8.5838,2.3652,3.2,0.8348
1865,1.7244,1.4562,8.5838,2.5043,3.5478,0.2783
1870,1.6861,1.4562,8.8903,2.5739,3.7565,0.0
1875,1.8394,1.3029,8.737,2.7826,3.8957,-0.4174
1880,1.8011,1.4179,8.852,2.8522,4.1043,-0.487
1885,1.8011,1.4562,8.6987,2.9913,4.2435,-0.8348
1890,1.916,1.4179,8.737,3.0609,4.313,-0.6957
1895,1.8777,1.4945,8.7754,3.1304,4.4522,-0.9043
1900,1.9543,1.4179,8.8137,3.0609,4.5913,-0.5565
1905,1.8777,1.4945,8.7754,3.1304,4.6609,-0.6957
1910,1.916,1.4179,8.9286,3.1304,4.7304,-0.5565
1915,1.916,1.6095,8.7754,2.9913,4.9391,-0.6261
1920,1.9543,1.4945,8.8137,2.8522,4.8696,-0.4174
1925,1.9543,1.4562,8.7754,2.5739,4.8696,-0.5565
1930,1.8777,1.4945,8.737,2.3652,4.8696,-0.2783
1935,2.031,1.4562,8.8903,2.087,4.7304,-0.487
1940,1.916,1.4945,8.8137,1.8087,4.6609,-0.3478
1945,1.9543,1.4562,8.8903,1.6,4.5217,-0.4174
1950,1.8777,1.4945,8.737,1.4609,4.4522,-0.2087
1955,1.916,1.4945,8.8137,1.3217,4.313,-0.3478
1960,1.9543,1.4179,8.8903,1.1826,4.1739,-0.0696
1965,1.8394,1.4945,8.852,1.113,4.0348,-0.1391
1970,1.8011,1.5328,8.6604,0.9739,3.8957,0.0696
1975,1.8011,1.4945,8.6987,0.8348,3.8261,-0.2087
1980,1.8777,1.4945,8.6987,0.6957,3.7565,-0.0696
1985,1.7627,1.5328,8.7754,0.5565,3.5478,-0.2087
1990,1.7627,1.4945,8.737,0.5565,3.4087,-0.1391
1995,1.7627,1.5328,8.7754,0.5565,3.3391,-0.2783
2000,1.7627,1.4562,8.6987,0.5565,3.3391,-0.2783
2005,1.7244,1.5711,8.7754,0.5565,3.4087,-0.6261
2010,1.7244,1.3795,8.737,0.6261,3.4783,-0.6957
2015,1.6861,1.5328,8.852,0.8348,3.5478,-1.1826
2020,1.6478,1.6478,8.8903,1.0435,3.687,-1.3217
2025,1.6861,1.4179,8.6604,1.2522,3.687,-1.6696
2030,1.6861,1.4945,8.737,1.4609,3.8261,-1.8783
2035,1.5328,1.6095,8.852,1.6,3.8957,-2.1565
2040,1.6478,1.5711,8.8137,1.8783,4.0348,-2.2261
2045,1.6478,1.4179,8.6604,2.087,4.0348,-2.5043
2050,1.6478,1.4945,8.6987,2.3652,4.0348,-2.4348
2055,1.6861,1.4179,8.7754,2.5739,4.0348,-2.713
2060,1.6861,1.4562,8.6221,2.5739,4.1043,-2.713
2065,1.7244,1.4562,8.6604,2.5739,4.1043,-2.9913
2070,1.7627,1.4179,8.737,2.4348,4.1739,-2.9217
2075,1.8011,1.4179,8.4688,2.2261,3.9652,-2.9913
2080,1.8011,1.5711,8.852,2.1565,3.9652,-2.9913
2085,1.7627,1.5711,8.6987,2.1565,3.8261,-3.0609
2090,1.8777,1.4179,8.737,2.2957,3.8261,-2.8522
2095,1.916,1.4945,8.7754,2.5043,3.8261,-2.8522
2100,1.8777,1.4945,8.7754,2.5739,3.8261,-2.6435
2105,1.916,1.6478,8.6221,2.6435,3.8261,-2.6435
2110,1.9927,1.5328,8.852,2.713,3.8957,-2.4348
2115,1.9543,1.5711,8.852,2.8522,3.8261,-2.4348
2120,1.8777,1.5711,8.7754,2.713,3.8261,-2.1565
2125,1.9543,1.6095,8.7754,2.6435,3.5478,-1.9478
2130,2.0693,1.6095,8.8137,2.5739,3.4783,-1.7391
2135,1.9543,1.7244,8.6604,2.5043,3.5478,-1.6
2140,2.0693,1.5328,8.852,2.2957,3.5478,-1.3913
2145,1.9543,1.6478,8.8137,2.2261,3.5478,-1.1826
2150,2.031,1.5711,8.852,2.2261,3.4783,-1.0435
2155,1.9543,1.6095,8.737,2.087,3.687,-1.113
2160,1.9543,1.4945,8.8137,2.1565,3.687,-1.0435
2165,1.916,1.5328,8.737,2.2261,3.6174,-1.0435
2170,1.916,1.5711,8.8137,2.1565,3.687,-0.9043
2175,1.9543,1.6095,8.8137,2.2957,3.687,-0.9739
2180,1.9543,1.6478,8.852,2.2957,3.687,-0.9739
2185,1.9927,1.6478,8.7754,2.1565,3.6174,-1.113
2190,1.8011,1.6478,8.8137,2.0174,3.6174,-1.0435
2195,1.916,1.6861,8.852,1.8783,3.5478,-1.0435
2200,1.8394,1.6095,8.6987,1.6696,3.4783,-1.1826
2205,1.9543,1.6478,8.852,1.6,3.4783,-1.1826
2210,1.7627,1.7244,8.6604,1.6,3.4087,-1.113
2215,1.8394,1.6478,8.6987,1.4609,3.4783,-1.113
2220,1.8394,1.6095,8.6987,1.4609,3.5478,-1.113
2225,1.916,1.6478,8.7754,1.3913,3.4087,-1.2522
2230,1.916,1.5711,8.7754,1.4609,3.5478,-1.2522
2235,1.8777,1.6861,8.6604,1.4609,3.5478,-1.1826
2240,1.916,1.5711,8.6604,1.4609,3.6174,-1.2522
2245,1.8394,1.6861,8.6987,1.3913,3.6174,-1.2522
2250,1.8394,1.6478,8.737,1.3913,3.687,-1.1826
2255,1.916,1.6861,8.5838,1.3913,3.7565,-1.113
2260,1.8777,1.6861,8.6987,1.2522,3.8261,-1.0435
2265,1.916,1.6095,8.8903,1.1826,3.8261,-1.0435
2270,1.8394,1.7627,8.8903,1.0435,3.8957,-1.0435
2275,1.9927,1.5711,8.6987,1.0435,4.0348,-0.9043
2280,1.9543,1.7627,8.6987,0.9739,3.9652,-0.9043
2285,1.916,1.7244,8.7754,0.9739,4.1739,-0.6957
2290,1.9543,1.6095,8.7754,0.9043,4.0348,-0.7652
2295,1.8777,1.7244,8.8137,0.9739,4.0348,-0.6957
2300,1.9543,1.6861,8.6221,0.9739,4.0348,-0.6261
2305,1.9543,1.6478,8.6987,0.9043,3.9652,-0.4174
2310,1.8777,1.6478,8.6987,0.6957,3.8957,-0.4174
2315,1.916,1.6861,8.852,0.6957,3.8261,-0.2783
2320,1.9543,1.6478,8.8137,0.6957,3.7565,-0.1391
2325,1.8777,1.6861,8.8903,0.8348,3.6174,0.0
2330,1.9927,1.5328,8.852,0.9043,3.5478,0.0
2335,1.916,1.6095,8.852,0.9739,3.5478,0.1391
2340,1.916,1.6095,8.6987,0.8348,3.5478,0.0
2345,1.8394,1.5711,8.852,0.9043,3.4087,0.0
2350,1.916,1.7244,8.737,0.7652,3.5478,-0.0696
2355,1.9927,1.6478,8.7754,0.9043,3.6174,0.0696
2360,1.8777,1.6861,8.7754,0.9739,3.687,-0.0696
2365,1.8011,1.7244,8.8137,0.9043,3.687,0.0
2370,1.9927,1.6861,8.7754,0.9043,3.687,-0.1391
2375,1.916,1.6478,8.737,0.8348,3.7565,-0.0696
2380,1.916,1.6861,8.7754,0.7652,3.8261,-0.0696
2385,1.8394,1.6478,8.7754,0.6957,3.7565,0.0
2390,1.7627,1.7244,8.737,0.6957,3.7565,-0.2087
2395,1.916,1.6478,8.8137,0.7652,3.8261,-0.0696
2400,1.916,1.6478,8.9286,0.8348,3.8957,-0.2087
2405,1.8777,1.6861,8.7754,0.8348,3.9652,-0.1391
2410,1.8011,1.6478,8.6987,0.9739,3.9652,-0.3478
2415,1.8777,1.6095,8.5838,1.0435,3.9652,-0.2783
2420,1.8394,1.6861,8.7754,0.9043,4.1043,-0.487
2425,1.8011,1.7244,8.6987,1.0435,4.1043,-0.487
2430,1.8777,1.6861,8.8137,1.0435,4.1739,-0.7652
2435,1.7244,1.7627,8.737,1.0435,4.1739,-0.7652
2440,1.8777,1.7244,8.737,1.1826,4.2435,-1.0435
2445,1.916,1.6861,8.6221,1.1826,4.2435,-0.9739
2450,1.7244,1.6861,8.7754,1.3217,4.2435,-1.2522
2455,1.8777,1.7244,8.737,1.3913,4.313,-1.1826
2460,1.8777,1.6478,8.9286,1.5304,4.3826,-1.3913
2465,1.8777,1.8011,8.6987,1.7391,4.5217,-1.1826
2470,1.8777,1.6095,8.7754,1.9478,4.5913,-1.1826
2475,1.9927,1.6478,8.852,2.087,4.6609,-0.9739
2480,1.9927,1.5711,8.6221,2.087,4.6609,-1.1826
2485,2.031,1.6861,8.7754,2.087,4.3826,-0.9739
2490,1.8777,1.7627,8.737,2.087,4.3826,-1.0435
2495,1.9543,1.6861,8.8903,2.087,4.313,-0.7652
2500,1.8777,1.6861,8.6604,1.9478,4.2435,-0.8348
2505,1.8777,1.7627,8.6987,1.9478,4.1043,-0.487
2510,1.8394,1.7627,8.6604,1.7391,3.9652,-0.5565
2515,1.9543,1.7244,8.737,1.6,3.8957,-0.2783
2520,1.916,1.7627,8.8903,1.6,3.8261,-0.3478
2525,1.8777,1.7244,8.852,1.6,3.8261,-0.2087
2530,1.8394,1.8011,8.8137,1.4609,3.7565,-0.4174
2535,1.8011,1.8777,8.6987,1.3913,3.7565,-0.2783
2540,1.916,1.7627,8.737,1.3217,3.8261,-0.4174
2545,1.8777,1.7627,8.737,1.1826,3.9652,-0.2783
2550,1.9543,1.8777,8.7754,1.1826,4.1043,-0.5565
2555,1.8394,1.7244,8.6987,1.113,4.1739,-0.4174
2560,1.7627,1.8394,8.6604,0.9043,4.1739,-0.5565
2565,1.8394,1.8011,8.737,0.6957,4.2435,-0.487
2570,1.8394,1.8011,8.8903,0.5565,4.313,-0.5565
2575,1.916,1.8011,8.737,0.487,4.1739,-0.4174
2580,1.8777,1.8011,8.8137,0.3478,4.1043,-0.5565
2585,1.916,1.8011,9.0436,0.3478,4.0348,-0.4174
2590,1.8777,1.6861,8.6987,0.4174,4.1739,-0.7652
2595,1.8394,1.6861,8.7754,0.5565,4.1043,-0.487
2600,1.8777,1.7244,8.737,0.6957,4.1739,-0.6957
2605,1.916,1.8011,8.6604,0.6957,4.1043,-0.5565
2610,1.8394,1.8011,8.7754,0.7652,4.2435,-0.8348
2615,1.916,1.7627,8.8137,0.8348,4.1739,-0.7652
2620,1.9927,1.7627,8.6987,0.7652,4.1043,-0.9739
2625,1.8777,1.7244,8.7754,0.6957,4.1739,-0.8348
2630,1.916,1.7244,8.6604,0.6957,4.1043,-1.113
2635,1.8777,1.7244,8.737,0.6261,4.1739,-0.9739
2640,1.8394,1.6861,8.6987,0.6261,4.1739,-1.113
2645,1.8011,1.7244,8.6987,0.6957,4.2435,-0.9739
2650,1.8777,1.7627,8.6604,0.7652,4.1739,-0.9739
2655,1.9543,1.7627,8.852,0.8348,4.1043,-0.8348
2660,1.9543,1.7627,8.6987,0.9043,4.1739,-0.9043
2665,1.916,1.7627,8.852,1.0435,4.0348,-0.7652
2670,2.0693,1.8011,8.6221,1.1826,3.9652,-0.6957
2675,1.8394,1.8011,8.6604,1.4609,3.8957,-0.6261
2680,1.8777,1.7627,8.6987,1.6696,3.8957,-0.6261
2685,1.9927,1.8011,8.7754,1.8783,3.7565,-0.4174
2690,1.8394,1.8011,8.6987,2.0174,3.7565,-0.5565
2695,1.8394,1.8777,8.6987,2.1565,3.7565,-0.487
2700,2.2992,2.6058,9.3502,2.2261,3.8261,-0.6261
2705,1.8394,1.916,8.6987,2.2957,3.8957,-0.487
2710,1.8011,1.8777,8.6987,2.3652,4.1043,-0.6957
2715,1.8011,1.9927,8.7754,2.3652,4.1739,-0.6957
2720,1.8777,1.9543,8.8137,2.2957,4.2435,-0.8348
2725,1.8777,1.8777,8.8137,2.2957,4.2435,-0.6957
2730,1.8394,1.9543,8.6604,2.087,4.1043,-0.7652
2735,1.8394,1.8777,8.8903,2.0174,4.0348,-0.6261
2740,1.8777,1.8777,8.6987,1.8087,4.0348,-0.6957
2745,1.8777,1.8777,8.737,1.8087,3.8957,-0.5565
2750,1.8777,1.8777,8.7754,1.8783,3.8957,-0.487
2755,1.9927,1.8011,8.7754,1.6696,3.8957,-0.4174
2760,1.916,1.916,8.737,1.5304,3.8957,-0.487
2765,1.916,1.7627,8.7754,1.3913,3.687,-0.5565
2770,1.8777,1.8011,8.6987,1.2522,3.5478,-0.4174
2775,2.031,1.7627,8.6221,1.1826,3.4087,-0.3478
2780,1.916,1.916,8.6987,1.1826,3.4783,-0.4174
2785,2.031,1.8777,8.6987,1.113,3.687,-0.4174
2790,1.8394,1.9543,8.6987,0.9739,3.4783,-0.4174
2795,1.8777,1.916,8.8137,0.9043,3.6174,-0.3478
2800,1.916,1.8011,8.852,0.6957,3.6174,-0.4174
2805,1.8777,1.8777,8.6221,0.5565,3.5478,-0.4174
2810,1.8777,1.9543,8.6221,0.5565,3.6174,-0.4174
2815,1.8777,1.916,8.6987,0.6261,3.5478,-0.3478
2820,1.8777,1.8011,8.8137,0.6261,3.6174,-0.2783
2825,1.916,1.8777,8.737,0.8348,3.6174,-0.2783
2830,2.031,1.8011,8.8137,1.0435,3.687,-0.3478
2835,1.8394,1.8011,8.7754,1.3913,3.5478,-0.2783
2840,1.9543,1.8011,8.8137,1.4609,3.5478,-0.2087
2845,2.031,1.916,8.8137,1.6,3.4783,-0.1391
2850,1.7627,1.8777,8.6604,1.6696,3.4087,-0.1391
2855,1.916,1.8011,8.6221,1.7391,3.4087,0.0
2860,1.916,1.8777,8.737,1.6696,3.3391,0.1391
2865,2.031,1.916,8.6987,1.4609,3.3391,0.2087
2870,1.916,1.916,8.5454,1.3913,3.2,0.4174
2875,1.9543,1.8777,8.737,1.1826,3.1304,0.4174
2880,1.9927,1.9543,8.6987,0.9739,3.2,0.6957
2885,1.8394,1.8011,8.8903,0.6957,3.0609,0.7652
2890,1.9927,1.8777,8.8137,0.487,3.1304,0.9739
2895,1.8777,1.8777,8.8903,0.4174,3.1304,0.9739
2900,1.916,2.031,8.5838,0.3478,3.0609,1.113
2905,1.8394,1.916,8.737,0.4174,3.1304,1.1826
2910,1.8777,1.916,8.8137,0.6261,3.1304,1.2522
2915,1.8394,1.8777,8.7754,0.6957,3.2,1.0435
2920,1.8011,2.031,8.6987,0.8348,3.3391,1.0435
2925,1.8394,1.9543,8.6604,0.8348,3.4087,0.7652
2930,1.9927,1.8777,8.6987,0.8348,3.4783,0.6261
2935,1.8777,1.9927,8.6604,0.8348,3.6174,0.3478
2940,1.8777,1.916,8.737,0.7652,3.687,0.3478
2945,1.8777,1.916,8.737,0.6957,3.7565,0.0696
2950,1.7627,1.916,8.5838,0.6261,3.8261,-0.0696
2955,1.8777,1.916,8.6221,0.6261,3.8261,-0.3478
2960,1.916,1.8777,8.6221,0.4174,3.9652,-0.487
2965,1.9543,1.8011,8.852,0.2783,3.9652,-0.6261
2970,1.9927,1.8394,8.5838,0.2783,3.8957,-0.7652
2975,1.8777,1.8394,8.6987,0.4174,3.8957,-0.8348
2980,1.8777,1.8011,8.8137,0.5565,3.8261,-0.7652
2985,1.9927,1.8777,8.6221,0.7652,3.8957,-0.9043
2990,1.9927,1.916,8.6604,0.8348,3.8957,-0.6957
2995,1.916,1.9543,8.5454,0.9739,3.8957,-0.6957
