timestamp,accX,accY,accZ,gyroX,gyroY,gyroZ
0,-0.2299,-9.5418,-1.6861,-7.7913,80.3478,3.2696
5,-0.1533,-9.7717,-1.9927,-8.4174,80.0696,1.8087
10,0.0,-9.7717,-1.916,-9.113,80.0696,0.2087
15,0.0383,-9.925,-2.031,-9.7391,80.0696,-1.1826
20,0.1916,-9.8866,-2.1843,-10.0174,80.0,-2.5043
25,0.115,-10.0782,-1.9543,-9.9478,79.9304,-3.6174
30,0.0383,-10.0782,-1.9543,-9.3217,80.0,-4.5217
35,0.1916,-9.9633,-1.9927,-8.3478,80.0696,-5.4957
40,0.0766,-9.925,-2.0693,-6.6087,80.5565,-6.1217
45,0.0766,-9.8866,-1.9927,-5.0087,81.2522,-6.6783
50,0.1916,-9.9633,-2.031,-3.4783,82.1565,-7.2348
55,0.115,-9.7334,-2.1459,-1.5304,82.9913,-7.513
60,0.0,-9.7717,-1.916,0.2783,83.4783,-7.513
65,-0.0383,-9.8866,-2.1076,1.8783,84.1739,-7.3739
70,-0.0766,-9.8866,-2.1459,3.4783,84.313,-7.1652
75,-0.115,-9.8866,-2.1076,5.0087,84.1739,-6.8174
80,-0.1533,-9.9633,-2.031,6.6783,83.9652,-6.4696
85,-0.0766,-10.3082,-2.031,8.3478,83.2696,-6.4
90,-0.0383,-10.3082,-2.031,9.8087,82.713,-6.4
95,0.0,-10.3848,-1.5711,11.2,82.087,-6.5391
100,0.0766,-10.4231,-1.8777,11.8261,81.8087,-6.6087
105,0.0,-10.4231,-1.6861,11.2696,81.8783,-6.7478
110,0.0,-10.3465,-2.1843,9.4609,82.087,-7.0261
115,0.0,-10.4614,-2.3375,6.3304,82.1565,-7.3739
120,-0.3066,-10.4998,-2.8357,1.5304,81.3217,-8.0696
125,-0.6898,-10.653,-3.1806,-4.3826,79.4435,-8.8348
130,-0.958,-11.1129,-3.7554,-10.713,76.7304,-9.6
135,-1.2646,-11.6111,-4.1769,-16.6957,73.113,-9.9478
140,-1.5711,-12.1092,-4.5218,-21.2174,69.0783,-9.8087
145,-1.6861,-12.684,-4.5984,-24.0,64.487,-9.3217
150,-1.5328,-13.1822,-4.5218,-24.8348,59.5478,-8.5565
155,-1.3029,-13.4888,-4.5218,-23.513,54.6783,-7.513
160,-1.1496,-13.7187,-4.2919,-20.2435,50.0174,-6.1913
165,-0.6898,-13.7187,-4.1386,-15.4435,46.2609,-4.7304
170,-0.4982,-13.5271,-4.062,-9.4609,44.0348,-2.9913
175,-0.0383,-13.2971,-3.832,-2.4348,42.9913,-1.2522
180,0.115,-12.9139,-3.832,5.287,42.8522,0.6957
185,0.7281,-12.7223,-3.832,13.0087,43.4087,2.2957
190,1.0346,-11.9559,-3.9853,20.4522,44.5913,3.8957
195,1.3795,-11.4195,-4.1386,26.9913,46.4696,5.1478
200,1.7244,-10.768,-4.3685,32.2783,48.9043,5.8435
205,2.1459,-10.0016,-4.4068,36.2435,52.1043,5.7739
210,2.4142,-9.5034,-4.4452,38.9565,55.7913,5.3565
215,2.874,-9.0053,-4.5601,39.7217,59.6174,4.5913
220,3.0656,-8.2389,-4.4452,38.6087,63.4435,3.5478
225,3.4105,-7.5874,-4.5984,36.0348,66.9217,2.2957
230,3.6021,-7.3958,-4.6368,32.1391,70.1913,0.3478
235,3.832,-6.821,-4.5984,27.0609,73.4609,-1.8087
240,3.7937,-6.7827,-4.7517,21.3565,76.3826,-4.3826
245,3.7554,-6.5528,-4.4835,15.8609,78.887,-7.3739
250,3.5255,-6.3995,-4.5218,10.5739,80.7652,-10.5739
255,3.3722,-6.5145,-4.4068,5.0783,82.3652,-13.5652
260,2.9507,-6.6677,-4.5218,-0.5565,83.687,-16.0696
265,2.6058,-6.7827,-4.3685,-5.913,84.6609,-17.9478
270,2.2992,-7.0893,-4.3302,-10.6435,85.0783,-19.2696
275,1.8394,-7.5491,-4.3685,-14.6087,85.1478,-20.3826
280,1.6861,-7.9323,-4.5601,-18.4348,85.4957,-20.9391
285,1.2646,-8.4688,-4.5601,-22.4696,86.0522,-21.3565
290,0.958,-9.0436,-4.6751,-27.4783,86.8174,-21.2174
295,0.7664,-9.4268,-4.6751,-31.7913,87.3043,-20.3826
300,0.8047,-9.81,-4.5218,-37.5652,87.0261,-19.2
305,0.6898,-10.1932,-4.5601,-42.7826,85.9826,-17.5304
310,0.6514,-10.7297,-4.2919,-47.5826,84.0348,-15.7217
315,0.5748,-11.0363,-4.1003,-51.6174,81.2522,-13.7739
320,0.7281,-11.6494,-3.7937,-54.5391,77.7739,-12.0348
325,0.7664,-11.9943,-3.6787,-55.8609,73.6696,-9.7391
330,0.9197,-12.4158,-3.5255,-55.0261,69.287,-7.513
335,0.958,-12.684,-3.1039,-51.7565,65.2522,-5.4261
340,1.0346,-12.9523,-2.9507,-46.3304,62.0522,-3.4783
345,0.958,-13.2205,-3.0273,-38.4696,59.7565,-1.8783
350,1.073,-13.2588,-2.6824,-28.4522,58.2261,-0.6957
355,1.1879,-13.2205,-2.7974,-16.4174,57.8087,-0.0696
360,1.4179,-12.7607,-2.7591,-3.4783,58.713,0.0
365,1.4945,-12.3391,-2.6058,9.8087,60.8696,0.0
370,1.6478,-11.841,-2.5291,22.2609,64.0,0.0
375,1.8394,-11.1512,-2.5675,33.3217,67.8957,-0.1391
380,2.1459,-10.5381,-2.5675,42.3652,72.2783,-0.2783
385,2.3375,-9.9633,-2.6824,48.8348,76.313,-0.1391
390,2.7591,-9.2735,-2.8357,52.1739,80.3478,-0.2087
395,3.0273,-8.9286,-2.989,52.1739,83.7565,-0.9739
400,3.0656,-8.3921,-3.2189,49.2522,86.3304,-2.2261
405,3.2572,-8.0856,-3.1806,44.2435,87.5826,-3.6174
410,3.1806,-7.894,-3.0273,37.9826,87.2348,-4.9391
415,2.874,-7.5874,-2.989,31.2348,85.4261,-6.1913
420,2.7591,-7.4341,-3.0656,24.9043,82.5043,-6.7478
425,2.6824,-7.4341,-3.0656,18.9217,79.1652,-6.4696
430,2.4525,-7.4725,-3.2189,13.7739,75.8957,-5.2174
435,2.3375,-7.3958,-2.8357,8.8348,73.3913,-3.2
440,2.2609,-7.5491,-2.8357,4.6609,71.6522,-1.113
445,2.0693,-7.4725,-2.6824,0.5565,70.4,0.8348
450,1.9927,-7.4725,-2.5291,-3.1304,69.6348,2.713
455,1.8011,-7.6257,-2.6441,-6.5391,69.287,4.2435
460,1.4179,-7.6641,-2.874,-9.9478,69.0087,5.7043
465,1.1879,-7.7407,-2.7591,-13.1478,68.7304,7.1652
470,0.9197,-7.6641,-2.874,-15.9304,68.2435,8.487
475,0.8814,-7.8557,-3.0273,-18.5043,67.3391,9.3913
480,0.6514,-7.894,-3.0273,-20.7304,66.087,9.8087
485,0.7281,-7.9706,-3.0273,-22.887,64.7652,9.9478
490,0.6898,-8.0856,-2.989,-24.3478,63.1652,10.087
495,0.8047,-8.2389,-2.7974,-25.113,61.3565,10.2957
500,1.073,-8.4688,-2.7591,-25.113,59.2,10.3652
505,1.1113,-8.6221,-3.1039,-24.0,56.8348,10.2957
510,1.073,-8.5838,-2.989,-22.0522,54.3304,10.2261
515,1.0346,-8.7754,-2.8357,-19.2,51.5478,9.9478
520,1.0346,-8.737,-2.7974,-15.5826,48.7652,9.8087
525,1.1879,-8.6987,-2.7974,-11.8957,46.3304,9.8783
530,1.3029,-8.5454,-2.6058,-8.4174,44.5217,10.0174
535,1.4945,-8.4305,-2.6058,-5.287,43.2,10.4348
540,1.4945,-8.2772,-2.6058,-2.4348,42.4348,11.1304
545,1.4179,-8.2005,-2.6058,-0.6957,41.8783,11.9652
550,1.4945,-8.2005,-2.4908,1.1826,41.4609,12.6609
555,1.4562,-8.1622,-2.6441,2.5043,41.0435,13.6348
560,1.2263,-8.0856,-2.4908,3.2696,40.5565,14.887
565,1.2263,-8.3155,-2.4525,3.6174,39.7913,16.1391
570,1.2263,-8.3155,-2.4525,3.9652,38.887,16.9043
575,0.9197,-8.3921,-2.3759,4.313,37.7043,17.8087
580,0.9197,-8.5071,-2.4525,4.8696,36.4522,18.713
585,0.9197,-8.5071,-2.2992,5.8435,34.9913,19.687
590,1.0346,-8.4688,-2.1843,7.1652,33.6696,20.3826
595,1.1113,-8.3155,-2.3375,8.8348,32.3478,20.8696
600,1.1879,-8.1622,-2.2226,10.3652,31.3739,21.1478
605,1.3412,-8.1239,-2.1459,11.5478,30.4696,21.0783
610,1.3795,-8.1622,-2.5675,12.0348,29.3565,20.7304
615,1.4945,-7.8173,-2.4525,11.1304,28.0348,20.0348
620,1.3412,-7.779,-2.3759,9.6696,26.5043,19.4783
625,1.2263,-7.6641,-2.2609,7.6522,24.9739,19.2
630,1.1879,-7.5874,-2.2992,5.287,23.4435,18.9913
635,1.2646,-7.5874,-2.3375,2.9913,22.2609,18.9913
640,1.0346,-7.4341,-2.1843,1.3217,21.5652,19.0609
645,1.2646,-7.3958,-2.031,0.1391,21.7739,19.3391
650,1.1879,-7.3958,-2.0693,-0.4174,22.0522,19.687
655,1.1113,-7.3958,-1.916,-0.6261,22.4696,19.8957
660,1.1113,-7.4341,-1.9543,-0.6261,22.887,20.2435
665,0.958,-7.4725,-2.2226,-0.6957,22.6087,20.2435
670,0.958,-7.7407,-1.9543,-0.9739,22.0522,19.8261
675,0.958,-7.7407,-2.1459,-1.0435,21.287,20.7304
680,0.6898,-7.9323,-2.3759,-0.7652,20.4522,21.7739
685,0.5748,-8.2005,-2.1459,-0.3478,19.3391,22.7478
690,0.6131,-8.4305,-2.1076,0.2087,17.6696,23.5826
695,0.9963,-8.6987,-2.1843,0.5565,16.1391,24.5565
700,1.1113,-8.7754,-2.0693,0.3478,14.7478,25.7391
705,1.4179,-8.967,-1.9927,-0.2783,13.4261,26.4348
710,1.5711,-9.0819,-2.0693,-1.2522,12.0348,26.6435
715,1.8777,-9.1969,-1.7627,-2.2261,10.5043,26.0174
720,2.0693,-9.2352,-2.1076,-2.9913,8.9043,25.1826
725,2.0693,-9.3502,-1.9927,-3.6174,7.3739,23.9304
730,2.1459,-9.3502,-1.9543,-3.5478,6.2609,22.3304
735,2.1843,-9.1202,-1.916,-3.1304,5.4957,20.9391
740,2.2609,-9.0436,-1.916,-1.8087,5.0783,19.4783
745,2.2609,-8.967,-1.8777,-0.1391,5.0087,18.0174
750,2.3375,-8.7754,-1.7627,1.9478,5.2174,16.487
755,2.2992,-8.4688,-1.6861,3.8261,5.5652,14.5391
760,2.3759,-8.5071,-1.8011,5.5652,6.1913,12.8696
765,2.2226,-8.2005,-1.6861,7.513,7.0261,11.1304
770,2.1843,-8.0856,-1.6095,9.1826,8.2087,9.6
775,2.1843,-8.0089,-1.6478,10.2261,9.6,8.2087
780,1.8394,-8.0856,-1.3795,11.0609,10.9913,6.8174
785,1.9927,-7.9323,-1.3029,11.6174,11.687,5.9826
790,2.1843,-8.0089,-1.4562,11.9652,11.7565,5.2174
795,2.2226,-8.1622,-1.4562,11.8957,11.2696,4.313
800,2.031,-8.2389,-1.4945,11.2,10.0174,3.6174
805,1.8777,-8.2389,-1.7627,10.0174,7.9304,3.5478
810,1.5711,-8.2772,-2.1459,8.487,5.0087,3.687
815,1.2646,-8.3155,-2.8357,6.1217,2.087,4.313
820,0.9963,-8.5071,-3.6021,2.4348,0.0696,5.287
825,0.3449,-8.6987,-4.4452,-2.8522,-0.5565,6.3304
830,0.0,-8.8137,-5.02,-8.7652,-0.1391,7.9304
835,0.0,-9.4268,-5.4415,-13.9826,0.6957,9.6696
840,0.4598,-9.9633,-5.8247,-18.087,1.6,10.7826
845,0.7281,-10.5381,-5.863,-21.4957,3.2,10.8522
850,0.958,-11.3428,-5.978,-25.113,5.3565,10.087
855,0.958,-11.9943,-5.8247,-29.0783,8.3478,8.5565
860,0.8814,-12.4541,-5.7864,-33.3217,12.1043,6.8174
865,0.7664,-13.1055,-5.6331,-36.6609,16.9043,5.2174
870,0.6514,-13.6804,-5.4798,-39.0261,22.3304,3.8261
875,0.8047,-14.2168,-5.2499,-39.7913,27.6174,2.5739
880,0.7281,-14.5234,-5.0966,-38.887,31.7217,1.3913
885,0.5748,-14.715,-4.905,-36.3826,34.6435,-0.0696
890,0.3832,-14.7916,-4.905,-32.9043,36.4522,-1.3913
895,0.0383,-14.8683,-4.5601,-28.8,37.8435,-2.713
900,-0.7664,-14.7916,-4.4835,-24.6261,38.887,-3.687
905,-1.5328,-14.6767,-4.2919,-20.8696,40.1391,-3.9652
910,-2.0693,-14.6767,-4.2919,-17.5304,41.6696,-2.9217
915,-2.2226,-14.5617,-4.4452,-15.3043,42.9913,-1.6
920,-2.2609,-14.6,-4.5984,-14.6087,44.313,-0.3478
925,-2.6441,-14.3318,-4.79,-15.513,45.3565,0.487
930,-3.0656,-14.2168,-5.1732,-17.3217,46.0522,1.8087
935,-3.6787,-14.3318,-5.4798,-20.0348,46.4,3.7565
940,-3.9853,-14.4851,-5.7097,-23.513,46.4,5.2174
945,-3.9087,-14.7533,-5.748,-27.8261,46.2609,6.0522
950,-3.3722,-15.3281,-5.6331,-32.2087,46.3304,6.3304
955,-2.6058,-15.8263,-5.5948,-35.2,46.4696,6.1217
960,-1.8011,-16.3628,-5.0583,-35.1304,46.4,5.5652
965,-1.1113,-16.7077,-4.4835,-31.0957,45.5652,4.6609
970,-0.4598,-16.5161,-3.9853,-22.6783,43.4783,3.6174
975,0.0383,-16.2861,-3.6404,-10.9217,40.2087,2.5043
980,0.0,-15.5197,-3.2955,2.2957,36.313,1.4609
985,0.1916,-14.6384,-3.0273,14.7478,32.4174,0.6957
990,0.0383,-13.6804,-2.7591,25.2522,29.0783,0.9043
995,0.0,-12.6074,-2.5291,32.7652,27.2696,1.8783
1000,-0.5365,-11.4961,-2.5291,36.5217,26.2957,3.1304
1005,-0.8047,-10.5381,-2.6441,37.0087,26.0174,5.4261
1010,-1.1496,-9.8866,-2.7591,34.7826,25.8087,8.0696
1015,-1.3029,-9.6567,-3.0656,30.9565,25.0435,9.8783
1020,-1.4945,-9.3885,-3.3339,25.8783,23.513,10.5043
1025,-1.5711,-9.3502,-3.6787,20.1739,20.8696,10.0174
1030,-1.8394,-9.6184,-3.9853,14.1913,17.113,8.8348
1035,-1.7627,-9.8483,-4.062,9.6,12.7304,7.0957
1040,-1.6861,-10.2315,-4.1003,4.7304,8.2783,5.1478
1045,-1.6478,-10.4231,-4.062,1.0435,4.6609,3.2
1050,-1.4179,-10.5381,-3.8704,-1.9478,0.7652,1.113
1055,-1.3412,-10.768,-3.9853,-4.1043,-2.2261,-0.5565
1060,-1.1879,-10.8446,-3.8704,-5.1478,-3.7565,-2.5043
1065,-1.0346,-10.6914,-3.6021,-5.4261,-4.1043,-3.8261
1070,-0.9197,-10.8446,-3.3339,-4.5217,-3.2,-4.5913
1075,-0.8047,-10.6147,-3.0273,-2.5739,-1.8087,-4.6609
1080,-0.7281,-10.5381,-2.6824,0.0696,0.1391,-3.9652
1085,-0.5748,-10.4998,-2.6441,3.3391,2.087,-2.7826
1090,-0.4215,-10.1932,-2.5675,7.2348,3.8957,-1.1826
1095,-0.5748,-9.81,-2.5291,10.9217,5.4261,0.5565
1100,-0.6514,-9.5418,-2.4525,14.2609,6.8174,2.5043
1105,-0.4982,-9.1586,-2.6058,16.9043,7.7913,4.313
1110,-0.5748,-8.7754,-2.6441,18.1565,8.8348,6.0522
1115,-0.3449,-8.6987,-2.7974,18.5043,9.5304,7.513
1120,-0.3449,-8.3538,-2.7207,18.087,9.9478,8.6261
1125,-0.2682,-8.2005,-2.9507,17.1826,10.0174,9.2522
1130,-0.0383,-8.2389,-2.989,16.0,9.8087,9.5304
1135,0.0,-8.0089,-2.7591,14.4,9.1826,9.4609
1140,0.1916,-8.0089,-2.989,12.8,8.1391,8.9043
1145,0.2682,-8.0473,-2.989,11.0609,6.7478,8.0696
1150,0.4598,-8.0089,-2.989,9.1826,5.0783,6.887
1155,0.4598,-7.8557,-2.7207,7.4435,3.1304,5.3565
1160,0.3449,-7.7407,-3.0656,5.8435,1.3217,3.6174
1165,0.3066,-8.0856,-2.7974,4.6609,-0.5565,1.8087
1170,0.3832,-8.3155,-2.7591,3.7565,-2.0174,-0.1391
1175,0.3832,-8.3155,-2.8357,2.8522,-2.9913,-1.9478
1180,0.3832,-8.5071,-2.6824,2.2261,-3.4783,-3.6174
1185,0.2682,-8.6987,-2.7974,1.8087,-3.3391,-5.0783
1190,0.2682,-8.852,-2.6058,1.4609,-2.713,-6.3304
1195,0.2682,-9.0053,-2.7207,1.3217,-1.7391,-7.3739
1200,0.2299,-9.1969,-2.5675,1.4609,-0.6957,-8.2783
1205,0.1916,-9.1586,-2.6441,1.9478,0.4174,-9.0435
1210,0.0766,-9.5034,-2.7207,2.5739,1.3217,-9.5304
1215,0.1916,-9.3885,-2.5675,3.5478,2.2261,-10.087
1220,0.0383,-9.2735,-2.5291,4.6609,3.3391,-10.5739
1225,0.0766,-9.2735,-2.3759,6.0522,4.5913,-10.9217
1230,0.0,-9.3118,-2.4908,7.0957,5.8435,-11.4783
1235,-0.0383,-9.2735,-2.1459,7.9304,7.3739,-12.0348
1240,-0.115,-9.0819,-2.1843,8.4174,8.7652,-12.5217
1245,-0.2682,-8.8903,-2.1459,8.6261,9.8783,-12.8696
1250,-0.4598,-8.6987,-2.0693,8.7652,10.8522,-13.287
1255,-0.4598,-8.6987,-2.031,8.7652,11.4783,-13.5652
1260,-0.3066,-8.5454,-1.9927,8.487,11.7565,-13.8435
1265,-0.3066,-8.3921,-2.2609,7.7217,11.6174,-14.4696
1270,-0.2682,-8.3155,-2.1843,6.6783,11.1304,-14.9565
1275,-0.3832,-8.2005,-2.2992,5.6348,10.1565,-15.4435
1280,-0.3832,-8.2389,-2.4142,4.1043,8.9043,-16.0
1285,-0.3066,-8.2389,-2.4908,2.6435,7.2348,-16.5565
1290,-0.3066,-8.1622,-2.4908,1.5304,5.3565,-16.8348
1295,-0.2682,-8.3921,-2.4908,0.0696,3.2,-17.113
1300,-0.3066,-8.4688,-2.5291,-1.3217,0.8348,-17.2522
1305,-0.1533,-8.5838,-2.5675,-2.713,-1.2522,-17.1826
1310,-0.1916,-8.6987,-2.6058,-3.8957,-4.0348,-17.113
1315,-0.4598,-8.8137,-2.4525,-4.9391,-6.9565,-16.9043
1320,-0.4598,-8.852,-2.3375,-5.8435,-9.7391,-16.6261
1325,-0.6898,-9.0436,-2.5291,-6.4696,-12.3826,-16.2783
1330,-0.7281,-9.1586,-2.4525,-6.887,-14.9565,-16.0696
1335,-0.7664,-9.3118,-2.2226,-7.0261,-16.9739,-15.7913
1340,-0.958,-9.5034,-2.2992,-6.887,-18.7826,-15.6522
1345,-1.073,-9.5418,-2.1459,-6.1217,-20.1043,-15.8609
1350,-1.073,-9.6184,-2.1459,-5.0783,-21.0783,-16.1391
1355,-1.1496,-9.6567,-2.031,-3.8957,-21.6348,-16.6957
1360,-1.0346,-9.6184,-2.031,-2.5739,-21.9826,-17.3913
1365,-1.0346,-9.695,-1.916,-1.3217,-22.1217,-18.3652
1370,-0.9197,-9.6567,-1.8777,-0.1391,-22.0522,-19.2696
1375,-0.8047,-9.5034,-2.0693,0.6261,-21.9826,-20.313
1380,-0.5365,-9.6184,-2.031,1.113,-21.9826,-21.1478
1385,-0.3449,-9.5034,-1.9927,1.1826,-22.1217,-22.2609
1390,-0.1533,-9.5034,-2.1843,0.6261,-22.4696,-22.9565
1395,0.0,-9.3885,-2.1459,-0.5565,-22.8174,-23.4435
1400,0.115,-9.3502,-2.3375,-2.5043,-23.2348,-23.6522
1405,0.0766,-9.2352,-2.3375,-4.8696,-23.7217,-23.6522
1410,0.115,-9.1969,-2.4525,-7.5826,-24.2087,-23.3043
1415,0.0766,-9.0436,-2.4908,-10.2957,-24.5565,-22.7478
1420,0.1533,-9.0819,-2.4525,-12.7304,-24.487,-21.7739
1425,0.1916,-9.0819,-2.4525,-14.8174,-24.2087,-20.5217
1430,0.115,-8.967,-2.6058,-15.9304,-23.7217,-19.2696
1435,0.4215,-9.3118,-2.4525,-16.6261,-23.0261,-17.9478
1440,0.4982,-9.2735,-2.4142,-16.2087,-22.2609,-16.5565
1445,0.6131,-9.3118,-2.3759,-15.0957,-21.6348,-15.3739
1450,0.7281,-9.3502,-2.2992,-13.287,-21.0783,-14.1913
1455,0.9197,-9.2735,-2.1076,-10.713,-20.7304,-13.2174
1460,1.1113,-9.1969,-2.1843,-8.0,-20.5217,-12.6609
1465,1.1113,-9.0819,-2.2609,-5.4957,-20.2435,-12.313
1470,0.8814,-8.852,-2.1843,-3.2696,-20.1739,-12.2435
1475,1.1113,-8.967,-1.916,-1.5304,-20.2435,-12.2435
1480,1.1113,-8.5838,-1.8777,-0.3478,-20.6609,-12.3826
1485,0.6514,-8.737,-2.031,0.6957,-21.287,-12.6609
1490,0.5365,-8.7754,-2.031,0.9739,-22.0522,-13.0783
1495,0.4215,-8.8137,-2.1459,1.0435,-22.8174,-13.4957
1500,0.1916,-8.9286,-2.1076,1.0435,-24.0,-13.913
1505,0.0383,-9.0819,-2.031,1.0435,-25.113,-14.4
1510,-0.0383,-9.0053,-2.031,1.1826,-26.3652,-15.0957
1515,-0.2299,-9.1586,-1.8777,1.6696,-27.2,-15.7217
1520,-0.0766,-9.3118,-1.8777,2.4348,-28.0348,-16.5565
1525,-0.3066,-9.1969,-1.8777,2.9913,-28.6609,-17.4609
1530,-0.4215,-9.5418,-1.7627,3.7565,-29.3565,-18.2957
1535,-0.5748,-9.5418,-1.5711,4.0348,-30.1217,-18.9913
1540,-0.4598,-9.4268,-1.5328,4.1739,-30.9565,-19.687
1545,-0.5365,-9.4651,-1.4945,3.8957,-31.9304,-20.1043
1550,-0.4982,-9.4651,-1.3795,3.687,-33.0435,-20.1739
1555,-0.7664,-9.3885,-1.4179,3.2,-34.1565,-20.0348
1560,-0.6514,-9.4651,-1.4562,2.5739,-34.9217,-19.6174
1565,-0.8047,-9.4268,-1.3029,2.1565,-35.9652,-18.713
1570,-0.9197,-9.5034,-1.4562,1.8783,-36.8,-17.7391
1575,-0.9197,-9.6567,-1.3412,2.2957,-37.4957,-16.2087
1580,-1.0346,-9.6184,-1.3029,3.2,-38.1217,-14.4
1585,-1.1879,-9.4268,-1.3029,4.8696,-38.5391,-12.7304
1590,-1.073,-9.5801,-1.3795,7.2348,-38.5391,-11.2696
1595,-0.9963,-9.6184,-1.5328,9.5304,-38.1217,-9.8783
1600,-0.8814,-9.3885,-1.4945,11.687,-37.3565,-8.6957
1605,-0.7281,-9.4268,-1.5328,13.287,-36.3826,-7.6522
1610,-0.7281,-9.3885,-1.4945,14.4696,-35.2696,-7.0261
1615,-0.4598,-9.4268,-1.4945,15.1652,-34.2957,-6.6783
1620,-0.4215,-9.3885,-1.5328,15.4435,-33.8087,-6.6087
1625,-0.1533,-9.5801,-1.4945,15.7913,-33.5304,-6.7478
1630,-0.1533,-9.3885,-1.3029,16.3478,-33.3217,-7.0261
1635,0.0,-9.5034,-1.2263,17.3217,-33.113,-7.6522
1640,0.1533,-9.4268,-1.1879,18.2261,-32.7652,-8.0696
1645,0.4215,-9.4651,-0.8814,19.2,-32.2783,-8.6957
1650,0.5365,-9.3118,-1.2263,19.9652,-31.3043,-9.2522
1655,0.7664,-9.3885,-1.3412,20.7304,-30.0522,-9.6696
1660,0.8047,-9.2352,-1.4945,21.1478,-28.5913,-10.0174
1665,0.6898,-9.1586,-1.916,20.8,-27.2696,-9.9478
1670,0.6898,-9.0053,-2.3759,19.2,-26.2957,-9.6
1675,0.8047,-9.0053,-2.8357,16.2087,-25.8087,-8.9739
1680,0.843,-8.967,-3.4488,11.3391,-25.6696,-8.3478
1685,0.9197,-9.1969,-4.1003,5.0087,-26.087,-7.7217
1690,0.9963,-9.1586,-4.7517,-2.0174,-26.9913,-7.3739
1695,1.1879,-9.4268,-4.9433,-9.2522,-28.5913,-7.0957
1700,1.1879,-9.4268,-5.1349,-16.5565,-30.4,-6.6087
1705,1.4179,-10.0782,-5.5181,-23.4435,-32.2783,-6.1217
1710,1.7244,-10.5764,-5.7097,-29.7043,-33.4609,-5.4957
1715,1.9543,-11.1895,-5.863,-34.9217,-34.0174,-5.2174
1720,2.1459,-11.6111,-5.748,-39.0261,-33.6696,-5.3565
1725,2.2226,-12.1475,-5.4032,-42.3652,-32.8348,-5.7739
1730,2.1843,-12.4924,-5.2882,-44.5913,-32.2783,-6.3304
1735,2.2992,-13.0289,-5.2499,-45.7043,-32.1391,-6.9565
1740,2.2609,-13.4888,-5.0583,-46.4,-32.6957,-7.3043
1745,2.2992,-13.9486,-4.6368,-46.1913,-33.7391,-7.4435
1750,2.3759,-14.3318,-4.6751,-45.2174,-34.9217,-7.5826
1755,2.5675,-14.6,-4.5984,-42.6435,-36.2435,-7.7217
1760,2.8357,-14.9449,-4.4068,-39.0957,-37.4261,-8.0696
1765,3.3722,-15.0599,-4.5601,-34.2261,-38.3304,-8.487
1770,3.947,-15.1748,-4.5984,-28.1739,-38.7478,-8.9739
1775,4.3302,-15.2515,-4.9433,-21.4261,-38.4696,-9.8783
1780,4.3302,-15.1365,-4.905,-14.5391,-37.7739,-10.9913
1785,4.0236,-15.0216,-5.2116,-8.4174,-37.7739,-12.1739
1790,3.2955,-14.9449,-5.4798,-3.9652,-39.6522,-12.6609
1795,2.874,-14.9832,-5.7097,-2.2261,-43.8261,-11.9652
1800,2.5291,-14.9832,-5.863,-3.4783,-49.4609,-10.1565
1805,2.1076,-15.2515,-5.9013,-6.4,-55.0957,-7.3739
1810,1.8777,-15.2132,-5.3265,-8.5565,-59.5478,-4.6609
1815,1.6095,-15.1365,-4.7517,-9.3217,-62.1913,-2.7826
1820,1.4945,-14.9066,-4.2919,-6.7478,-62.7478,-2.087
1825,1.6478,-14.9832,-3.9853,-1.6,-61.5652,-2.6435
1830,1.6095,-14.5617,-3.6021,5.0087,-58.2957,-3.5478
1835,1.7244,-14.0252,-3.2955,11.3391,-53.287,-5.0783
1840,1.9543,-13.642,-3.0656,16.4174,-47.4435,-6.6783
1845,1.9927,-12.9906,-3.2572,19.5478,-41.3217,-8.2087
1850,2.1843,-12.4924,-3.1423,21.0087,-35.6174,-9.6696
1855,2.031,-11.8793,-2.9123,21.0783,-30.9565,-10.9913
1860,1.9927,-11.3428,-3.2189,20.5913,-27.9652,-12.4522
1865,1.9543,-10.768,-3.1039,19.8261,-26.5043,-13.4957
1870,1.8394,-10.2315,-3.3339,18.5043,-26.5739,-14.3304
1875,1.6861,-9.81,-3.4488,17.113,-27.687,-14.6783
1880,1.5711,-9.4268,-3.4488,15.4435,-29.4261,-14.5391
1885,1.4945,-9.0436,-3.6021,13.7043,-31.1652,-14.2609
1890,1.3795,-8.5838,-3.6404,11.687,-32.6261,-13.9826
1895,1.4562,-8.3921,-3.6787,9.4609,-33.6,-13.7739
1900,1.4562,-7.894,-3.6404,6.9565,-33.9478,-13.7739
1905,1.3795,-7.6257,-3.4871,4.2435,-33.7391,-14.0522
1910,1.5328,-7.3958,-3.5638,1.1826,-32.8348,-14.3304
1915,1.3412,-7.4341,-3.4871,-2.1565,-31.4435,-14.6087
1920,1.6478,-7.2425,-3.3722,-5.4957,-29.6348,-15.0261
1925,1.7244,-7.2042,-3.2189,-8.8348,-27.687,-15.6522
1930,1.8777,-7.2042,-2.9507,-12.0348,-25.6696,-16.1391
1935,2.031,-7.3192,-2.989,-15.0261,-23.8609,-16.487
1940,2.031,-7.3958,-2.8357,-17.9478,-22.4696,-16.5565
1945,2.1459,-7.5491,-2.9123,-20.8,-21.6348,-16.5565
1950,2.2226,-7.4725,-2.989,-23.3739,-21.4957,-16.0696
1955,2.3375,-7.8173,-2.7974,-25.3217,-21.9826,-15.3043
1960,2.2992,-8.0089,-2.7591,-26.8522,-22.887,-14.4696
1965,2.3375,-8.2005,-2.7974,-27.4087,-24.4174,-13.7739
1970,2.5675,-8.3538,-2.6441,-27.2696,-26.3652,-13.0783
1975,2.4908,-8.5838,-2.7974,-26.6435,-28.8696,-12.1043
1980,2.5675,-8.737,-2.6824,-25.6,-31.513,-11.2
1985,2.5675,-8.967,-2.7974,-24.2783,-34.087,-10.3652
1990,2.4908,-9.0436,-2.989,-22.6087,-36.3826,-9.6
1995,2.6058,-9.4268,-2.989,-20.8,-38.5391,-8.9043
2000,2.4908,-9.5418,-3.0656,-18.9217,-40.0696,-8.4174
2005,2.4142,-9.6567,-2.7974,-17.113,-41.113,-7.6522
2010,2.3759,-10.0016,-3.2189,-15.513,-41.8087,-7.0261
2015,2.2226,-10.1166,-3.2189,-13.913,-41.8087,-6.2609
2020,1.916,-10.1166,-3.0273,-12.5217,-41.2522,-5.3565
2025,1.9927,-10.2698,-3.1039,-11.0609,-40.3478,-4.6609
2030,1.8777,-10.3082,-2.989,-9.3217,-39.1652,-3.8957
2035,1.9543,-10.2698,-2.7974,-7.4435,-37.913,-3.1304
2040,1.8011,-10.3848,-2.874,-5.2174,-36.6609,-2.2957
2045,1.8777,-10.3848,-2.7591,-2.7826,-35.6174,-1.5304
2050,1.8011,-10.2315,-3.0656,-0.6261,-34.3652,-0.7652
2055,1.9543,-10.3082,-2.9507,1.3217,-33.113,-0.1391
2060,2.031,-10.1166,-2.9507,2.7826,-31.8609,0.5565
2065,1.8777,-10.0016,-2.9507,4.2435,-30.6087,1.2522
2070,2.0693,-9.925,-2.9123,5.2174,-29.1478,2.0174
2075,2.2992,-9.8866,-2.7591,6.1913,-28.0348,2.6435
2080,2.3375,-9.8483,-2.874,6.9565,-26.2957,3.1304
2085,2.2609,-9.7334,-2.989,7.6522,-24.5565,3.5478
2090,2.4142,-9.8483,-2.9123,8.0,-22.6087,4.0348
2095,2.4525,-9.8483,-3.1039,8.1391,-20.4522,4.5217
2100,2.5291,-9.81,-3.0656,7.7913,-18.4348,5.0783
2105,2.5291,-9.8483,-2.8357,7.3739,-16.4174,5.6348
2110,2.6441,-9.8866,-2.989,7.0261,-14.8174,6.1217
2115,2.6824,-9.8483,-3.0273,6.5391,-13.4261,6.7478
2120,2.6058,-9.8866,-2.7591,5.7043,-12.5217,7.1652
2125,2.6058,-9.9633,-2.7207,5.2174,-11.8957,7.513
2130,2.5291,-9.9633,-2.5675,4.7304,-11.2696,7.8609
2135,2.4908,-9.925,-2.5675,4.4522,-10.5043,8.2783
2140,2.5675,-9.8866,-2.4908,4.5217,-9.7391,8.487
2145,2.5291,-9.925,-2.5291,4.9391,-9.2522,8.487
2150,2.4908,-9.8866,-2.6058,5.4261,-8.5565,8.4174
2155,2.3759,-9.8483,-2.5291,5.4261,-7.7217,8.1391
2160,2.4908,-9.8483,-2.6441,5.287,-6.6087,7.513
2165,2.3375,-9.7334,-2.7207,5.0087,-5.4957,6.8174
2170,2.2992,-9.695,-2.8357,4.313,-4.5217,6.1913
2175,2.2609,-9.695,-2.8357,3.687,-3.6174,5.3565
2180,2.2226,-9.5418,-2.9507,3.0609,-2.713,4.5217
2185,1.9543,-9.3885,-2.9507,2.713,-1.8783,3.9652
2190,1.8011,-9.4268,-3.1039,2.5043,-1.113,3.8261
2195,1.8394,-9.3885,-3.0273,2.5043,-0.6261,4.1043
2200,1.6478,-9.4268,-3.1039,3.0609,-0.487,4.4522
2205,1.5711,-9.1969,-3.0656,3.8957,-0.3478,5.2174
2210,1.4945,-9.1586,-3.1039,4.8,-0.1391,6.1913
2215,1.5711,-9.0819,-3.0273,5.9826,0.3478,7.1652
2220,1.6095,-9.1202,-2.9123,7.3043,0.9043,8.0696
2225,1.6478,-9.1586,-2.8357,8.4174,2.1565,9.1826
2230,1.7244,-9.0436,-2.989,9.113,4.0348,10.0174
2235,1.7627,-9.1586,-2.8357,9.6,6.2609,10.7826
2240,1.916,-8.967,-2.874,9.7391,8.9043,11.3391
2245,1.9543,-9.0436,-2.7591,9.7391,11.4087,12.1043
2250,1.8011,-8.967,-2.6058,9.3217,13.9826,12.8
2255,1.8011,-8.9286,-2.6824,9.113,16.0696,13.4261
2260,2.031,-9.0436,-2.5675,8.6261,18.087,13.913
2265,1.916,-9.0053,-2.6058,8.2087,19.6174,14.1913
2270,1.9927,-8.9286,-2.4525,7.8609,20.8696,14.3304
2275,1.9927,-9.0053,-2.3759,7.6522,21.7739,14.4
2280,1.916,-9.0053,-2.5291,7.513,22.6087,14.2609
2285,1.9543,-9.1969,-2.5291,7.7913,22.9565,13.9826
2290,1.8777,-9.3118,-2.4525,8.2783,23.3739,13.5652
2295,1.8777,-9.1586,-2.2609,8.7652,23.6522,13.1478
2300,1.8777,-8.967,-2.5291,9.3913,23.9304,12.8696
2305,1.6095,-8.9286,-2.5675,9.8087,23.7217,12.6609
2310,1.6478,-8.7754,-2.4908,9.9478,23.2348,12.6609
2315,1.6478,-8.6221,-2.4142,9.7391,22.1217,12.8696
2320,1.7244,-8.5071,-2.4525,9.5304,20.7304,12.8
2325,1.8394,-8.3538,-2.4142,8.6957,19.4087,12.6609
2330,1.6478,-8.2772,-2.4142,7.7217,18.2957,12.4522
2335,1.6861,-8.2005,-2.1076,6.6087,17.2522,12.9391
2340,1.8011,-8.1622,-1.916,5.7043,16.8348,13.4957
2345,1.8394,-8.1622,-1.9927,5.2174,16.4174,13.7739
2350,1.8394,-8.0089,-1.9927,4.8696,16.4174,14.1913
2355,1.916,-7.9706,-1.916,4.6609,16.8348,14.5391
2360,1.8777,-8.0089,-2.031,4.5217,17.5304,15.0957
2365,1.8394,-7.9323,-1.7627,4.5913,18.5043,16.0696
2370,1.8777,-7.9323,-1.9543,4.8696,19.2696,17.113
2375,1.8777,-8.0473,-1.8394,5.5652,19.9652,18.3652
2380,2.1076,-8.2005,-1.8011,6.2609,20.5913,19.8957
2385,2.1459,-8.3155,-1.8011,7.0957,21.287,21.4957
2390,2.1843,-8.3921,-1.8394,7.7913,22.0522,22.8174
2395,2.3375,-8.3921,-1.6861,8.5565,22.9565,24.487
2400,2.2609,-8.6987,-1.8394,9.1826,23.7913,25.9478
2405,2.2992,-8.8903,-1.5328,10.087,24.9043,27.4087
2410,2.4908,-9.0053,-1.8011,10.9217,25.8783,28.8
2415,2.3375,-8.8903,-1.8777,11.8261,26.8522,29.4957
2420,2.2992,-8.8903,-2.031,12.6609,27.8957,29.8435
2425,2.2609,-8.967,-1.8394,13.7043,29.0087,29.8435
2430,2.1843,-8.852,-1.8394,14.4696,30.3304,29.0783
2435,2.2226,-8.8137,-1.916,15.1652,31.7913,28.1043
2440,1.9927,-8.7754,-1.9543,15.8609,33.5304,26.6435
2445,1.8011,-8.6987,-1.7244,16.6957,35.2,24.9043
2450,1.7244,-8.7754,-1.8394,17.0435,37.2174,23.0261
2455,1.6095,-8.737,-1.7244,17.2522,39.2348,20.9391
2460,1.6861,-8.737,-1.6095,17.0435,41.2522,18.9217
2465,1.4562,-8.6221,-1.4945,16.6957,43.4087,17.0435
2470,1.3029,-8.5838,-1.4562,16.0,45.287,15.3043
2475,1.3795,-8.5454,-1.073,15.0957,46.9565,13.8435
2480,1.4179,-8.6604,-0.9963,13.913,47.9304,12.8
2485,1.4179,-8.6987,-1.1113,12.5217,48.4174,12.2435
2490,1.4562,-8.6221,-0.9963,11.0609,48.487,12.0348
2495,1.7244,-8.852,-1.073,9.8087,48.1391,12.1739
2500,1.6861,-8.8903,-1.0346,8.6261,47.4435,12.6609
2505,1.916,-8.8903,-0.9963,7.8609,46.4,13.4957
2510,1.9927,-9.1969,-1.073,7.4435,45.1478,14.3304
2515,2.2609,-9.3885,-1.3029,7.2348,44.1043,15.3739
2520,2.3375,-9.2735,-0.9963,7.3739,42.9913,16.2783
2525,2.4525,-9.3502,-1.1496,7.6522,42.087,17.3913
2530,2.4525,-9.2735,-1.0346,7.8609,41.6,18.2957
2535,2.4525,-9.3118,-1.1113,8.2783,41.2522,19.1304
2540,2.5291,-9.3885,-1.1879,8.2087,41.3913,19.8957
2545,2.6058,-9.1586,-1.0346,8.2783,41.7391,20.4522
2550,2.7974,-9.2352,-1.2646,8.2783,42.5043,20.7304
2555,2.7591,-9.3885,-1.1879,8.6957,43.687,20.4522
2560,2.7207,-9.4268,-1.1879,9.4609,45.6348,19.5478
2565,2.6824,-9.2352,-1.3795,10.4348,48.0,18.2261
2570,2.4908,-9.2735,-1.2646,11.687,50.4348,16.7652
2575,2.4142,-9.2735,-1.3795,12.8696,53.1478,15.3739
2580,2.2609,-9.1969,-1.7244,14.1913,55.5826,13.913
2585,2.0693,-9.2735,-1.9543,15.3043,57.5304,12.4522
2590,1.7244,-9.0053,-2.4525,15.7913,59.7565,10.9217
2595,1.3795,-8.9286,-2.9123,14.8174,61.9826,9.8087
2600,1.1113,-9.0436,-3.6021,12.4522,64.0696,8.6957
2605,0.7281,-8.8137,-4.1386,9.113,66.1565,7.1652
2610,0.4215,-9.1969,-4.4068,5.3565,67.7565,5.0783
2615,0.1916,-9.3502,-4.79,1.5304,68.3826,2.3652
2620,-0.115,-9.695,-5.0583,-2.2957,67.6174,-0.2783
2625,-0.2682,-10.0016,-4.8284,-6.2609,65.8783,-2.4348
2630,-0.3449,-10.4231,-4.7134,-10.0174,63.4435,-3.2
2635,-0.6131,-10.6914,-4.7134,-13.0783,61.6348,-3.1304
2640,-0.5748,-11.0746,-4.4452,-14.887,60.8,-2.0174
2645,-0.7664,-11.6877,-4.3302,-15.5826,61.4957,-0.5565
2650,-0.9963,-12.1092,-4.1003,-15.0261,63.1652,1.113
2655,-1.1879,-12.2242,-3.7554,-13.9826,65.3913,2.713
2660,-1.3029,-12.6074,-3.9087,-12.3826,67.4783,4.0348
2665,-1.2263,-12.8373,-3.8704,-10.8522,69.4957,5.3565
2670,-1.1113,-13.2971,-4.1386,-10.2957,71.7217,6.6087
2675,-1.073,-13.5654,-4.1386,-10.713,74.2957,7.6522
2680,-1.1879,-13.8336,-4.2152,-11.5478,77.0783,8.4174
2685,-1.1879,-14.2168,-4.4068,-11.8957,79.7913,8.7652
2690,-1.2263,-14.6,-4.6368,-11.7565,81.8783,8.6261
2695,-1.3795,-14.9066,-4.79,-11.7565,82.8522,8.0696
2700,-1.3029,-15.0982,-4.7517,-11.7565,83.2,6.8174
2705,-1.3412,-15.1365,-4.8667,-11.4783,82.2957,5.0087
2710,-1.3412,-15.3664,-4.8667,-10.713,80.6957,2.5043
2715,-1.4179,-15.3281,-4.905,-10.087,78.4696,-0.487
2720,-1.5711,-15.4431,-5.0966,-9.3217,75.4087,-3.8261
2725,-1.4945,-15.4814,-4.8667,-8.4174,72.1391,-6.8174
2730,-1.5328,-15.4814,-4.7134,-7.7913,68.9391,-9.4609
2735,-1.4562,-15.2898,-4.7134,-7.3043,66.3652,-11.2
2740,-1.5328,-14.9832,-4.4452,-6.7478,64.2087,-12.313
2745,-1.4945,-14.7533,-4.1003,-5.4957,62.3304,-12.8
2750,-1.3795,-14.5234,-3.832,-4.3826,60.6609,-12.8
2755,-1.2646,-14.0636,-3.7554,-3.2696,59.0609,-12.0348
2760,-1.1879,-13.6037,-3.5638,-2.7826,57.6696,-10.713
2765,-1.073,-13.2971,-3.1423,-2.5043,56.487,-8.6957
2770,-0.7281,-12.8756,-2.7591,-2.7826,55.6522,-6.4696
2775,-0.4982,-12.4924,-2.874,-2.7826,55.1652,-3.8261
2780,-0.4598,-12.2242,-2.6824,-2.5739,54.9565,-1.1826
2785,-0.4215,-11.9559,-2.5675,-1.9478,54.6087,1.2522
2790,-0.2682,-11.8027,-2.5291,-0.9739,54.1217,3.4087
2795,-0.1533,-11.5727,-2.4525,0.2087,53.0783,5.0087
2800,-0.3066,-11.1895,-2.4525,1.6,51.7565,6.4
2805,-0.3449,-10.9979,-2.3759,3.2696,50.1565,6.9565
2810,-0.3449,-10.7297,-2.2992,4.8696,48.1391,6.8174
2815,-0.4215,-10.4998,-2.2992,6.6783,45.7043,6.3304
2820,-0.6131,-10.3465,-2.2609,8.3478,42.713,5.3565
2825,-0.6514,-9.8483,-2.2992,9.6,39.3739,4.2435
2830,-0.5748,-9.7334,-2.1843,10.1565,35.9652,2.9217
2835,-0.5365,-9.4268,-2.1076,10.087,32.487,1.5304
2840,-0.4982,-9.2735,-2.1459,8.9043,29.1478,0.3478
2845,-0.4982,-9.1586,-2.2609,6.7478,26.6435,-0.487
2850,-0.4598,-9.0053,-2.3759,3.6174,23.9304,-0.9043
2855,-0.4598,-8.9286,-2.3375,-0.0696,21.7043,-1.1826
2860,-0.3449,-8.8903,-2.4525,-4.5217,20.2435,-0.9739
2865,-0.115,-8.8903,-2.4525,-9.3217,19.4783,-0.487
2870,-0.0766,-8.9286,-2.5291,-14.5391,19.687,0.3478
2875,0.0,-8.967,-2.5675,-19.4783,20.7304,1.2522
2880,0.0,-9.0819,-2.3759,-23.7217,22.6087,2.6435
2885,-0.115,-9.0053,-2.4525,-27.2,25.0435,3.9652
2890,0.115,-9.1586,-2.2226,-29.4957,27.8957,5.4957
2895,0.0,-9.1969,-2.3759,-30.5391,31.0957,6.887
2900,0.0383,-9.3118,-2.3375,-30.3304,34.1565,8.4174
2905,0.0,-9.2735,-2.4525,-28.5217,37.0087,9.6
2910,0.0,-9.3118,-2.3375,-25.8087,39.4435,10.5739
2915,0.0,-9.2352,-2.3375,-22.1913,41.5304,11.1304
2920,-0.0383,-9.3502,-2.2609,-17.8087,43.3391,11.7565
2925,-0.115,-9.1969,-2.2609,-13.5652,44.7304,11.8261
2930,-0.0766,-9.2352,-2.3375,-9.1826,45.913,11.687
2935,-0.2682,-9.0819,-2.4525,-5.2174,46.6087,11.4087
2940,-0.3449,-9.1202,-2.4142,-1.6696,46.6783,10.7826
2945,-0.1916,-9.2735,-2.3759,1.3217,46.1913,10.1565
2950,-0.3066,-9.1202,-2.1843,3.6174,45.1478,9.4609
2955,-0.2299,-9.0819,-2.2609,5.4261,43.5478,8.7652
2960,-0.2299,-9.1202,-2.2992,6.6087,41.6696,7.5826
2965,-0.0766,-8.967,-2.1843,7.3043,39.513,6.0522
2970,-0.0383,-8.8903,-2.2609,7.6522,37.0087,4.5217
2975,-0.115,-8.8903,-2.1076,7.3739,34.5739,2.5043
2980,0.0,-8.6604,-1.9543,7.0261,32.2783,0.4174
2985,0.0,-8.7754,-1.8011,6.887,30.1217,-1.4609
2990,0.0383,-8.5454,-1.7627,6.6087,28.5217,-3.1304
2995,0.0,-8.6604,-1.6478,6.4696,27.2,-4.3826
