timestamp,accX,accY,accZ,gyroX,gyroY,gyroZ
0,0.0,-6.4378,-7.0126,-22.8174,6.2609,1.8783
5,0.0383,-6.2845,-7.0509,-18.9217,6.1913,2.5043
10,-0.0383,-6.2462,-7.0126,-14.3304,6.1217,3.2
15,0.0,-6.1313,-6.5528,-9.3217,6.6087,3.6174
20,0.0383,-5.8247,-6.3229,-4.1739,6.4696,4.2435
25,0.0383,-5.4798,-6.2845,0.487,6.3304,4.8696
30,0.0383,-5.2499,-6.2079,4.5217,6.1913,4.6609
35,0.0,-4.8667,-6.2079,7.3739,6.2609,4.2435
40,0.0,-4.79,-5.978,9.0435,6.4,3.7565
45,-0.0383,-4.5218,-6.0546,9.9478,6.2609,3.2696
50,-0.0766,-4.2919,-6.2462,9.8783,5.9826,2.6435
55,-0.115,-4.1003,-6.1696,8.9043,5.8435,1.8783
60,0.0,-3.9853,-6.2462,7.4435,5.6348,1.3217
65,0.0383,-4.0236,-6.3995,5.2174,5.4261,1.0435
70,0.0,-4.1386,-6.8593,2.5739,5.3565,0.9043
75,0.115,-4.2536,-6.8593,-0.2783,5.7739,0.9739
80,0.0383,-4.2152,-6.936,-3.3391,6.2609,1.1826
85,0.6131,-4.5984,-6.8593,-6.2609,6.887,1.1826
90,0.0,-4.5984,-7.2042,-9.113,7.3043,1.8087
95,0.115,-4.7517,-7.0893,-11.3391,7.8609,2.087
100,0.0383,-4.9816,-7.0126,-12.8696,8.4174,2.4348
105,0.0383,-5.02,-7.1276,-13.6348,8.9739,2.7826
110,0.0766,-5.2499,-6.8977,-13.6348,9.4609,3.2
115,0.1533,-5.4415,-7.0893,-12.9391,9.8783,3.6174
120,0.1533,-5.5181,-6.8593,-11.4783,10.2957,4.0348
125,0.0766,-5.4798,-6.7827,-9.6,11.0609,4.5913
130,0.3449,-5.5181,-6.5145,-7.3043,11.6174,5.0783
135,0.2299,-5.5564,-6.5145,-4.6609,12.0348,5.5652
140,0.3449,-5.5181,-6.3612,-1.6,12.4522,5.913
145,0.3066,-5.2499,-6.2079,1.6,12.9391,6.3304
150,0.5365,-5.2882,-6.0163,5.1478,13.4957,6.9565
155,0.4215,-5.1349,-5.9396,8.4174,13.4957,6.6087
160,0.4982,-4.9816,-5.9013,11.1304,13.2174,5.7043
165,0.4598,-4.8284,-5.863,13.0783,12.8,4.5217
170,0.4215,-4.7134,-6.0163,14.4696,12.313,3.2696
175,0.5365,-4.5218,-6.0546,15.3043,11.5478,1.8783
180,0.6131,-4.4835,-5.978,15.7217,10.6435,0.2783
185,0.5365,-4.4068,-6.2079,15.7913,9.8783,-1.4609
190,0.5365,-4.2152,-6.1696,15.5826,9.3217,-3.2696
195,0.6131,-4.2919,-5.9396,15.0957,8.9043,-5.0783
200,0.4215,-4.2536,-5.9013,14.6087,8.7652,-6.4696
205,0.4215,-4.4452,-5.9013,13.9826,8.8348,-7.7217
210,0.2682,-4.3302,-5.9396,13.4261,8.9043,-8.8348
215,0.2299,-4.4452,-5.5181,13.0783,8.9043,-9.7391
220,0.115,-4.4068,-5.7097,12.8696,8.5565,-10.3652
225,0.0383,-4.3685,-5.5564,12.9391,8.0696,-10.713
230,0.115,-4.4452,-5.4415,13.287,7.6522,-10.9217
235,0.0,-4.4835,-5.4415,13.9826,7.3043,-10.9913
240,0.0383,-4.4452,-5.4415,14.6087,6.7478,-10.7826
245,0.0,-4.4068,-5.4032,15.6522,6.4,-10.4348
250,0.0,-4.5601,-5.4032,16.7652,5.9826,-9.8087
255,0.0,-4.3685,-5.3648,18.2261,5.6348,-8.9739
260,-0.1533,-4.1769,-5.1732,19.8957,5.2174,-7.9304
265,0.0,-4.3302,-5.0966,21.913,4.7304,-6.887
270,-0.0383,-4.2152,-5.2116,24.2087,4.1739,-5.5652
275,0.0,-4.0236,-5.2116,26.2957,3.4783,-4.7304
280,-0.0383,-3.8704,-5.02,28.1043,2.9217,-3.8957
285,0.0766,-3.9087,-4.9433,29.4261,2.2261,-3.2696
290,0.2299,-3.6021,-4.9816,30.2609,1.5304,-2.4348
295,0.1916,-3.4871,-5.1732,30.6087,0.9739,-1.8783
300,0.2299,-3.4105,-5.3648,30.5391,0.6957,-1.1826
305,0.3066,-3.4488,-5.5564,30.0522,0.6957,-0.9043
310,0.3449,-3.3339,-5.7097,29.1478,0.6261,-0.7652
315,0.5365,-3.2955,-5.7864,27.687,0.6261,-1.0435
320,0.4982,-3.3722,-5.978,25.7391,0.7652,-1.1826
325,0.5748,-3.6021,-6.2462,23.0957,1.0435,-1.7391
330,0.7281,-3.7937,-6.3229,20.2435,1.113,-2.1565
335,0.7281,-4.2152,-6.4378,17.2522,0.9739,-2.7826
340,0.7281,-4.3685,-6.5528,14.3304,0.9043,-3.3391
345,0.7664,-4.7517,-6.3995,11.9652,0.9739,-4.0348
350,0.7281,-5.0966,-6.3995,10.713,0.6261,-4.8
355,0.6131,-5.3265,-5.9396,10.9913,-0.0696,-5.4957
360,0.8047,-5.5564,-6.4761,12.8696,-0.6261,-6.3304
365,0.6898,-5.6331,-6.5528,16.0696,-1.0435,-7.0261
370,0.6898,-5.5948,-6.6294,20.1043,-1.1826,-7.5826
375,0.7664,-5.4798,-6.5145,24.4174,-1.3217,-7.9304
380,0.6131,-5.4415,-6.4378,28.313,-1.113,-7.7913
385,0.6514,-5.4415,-6.3995,31.7217,-0.8348,-7.6522
390,0.4982,-5.4032,-6.0546,34.6435,-0.4174,-7.5826
395,0.4598,-5.4798,-6.1313,36.9391,-0.2783,-7.7217
400,0.4982,-5.3265,-5.978,39.0957,-0.4174,-7.7913
405,0.3832,-5.2499,-5.7864,41.3913,-1.2522,-8.1391
410,0.4598,-5.0966,-6.1313,43.6174,-2.2957,-8.6957
415,0.6131,-5.0966,-6.5145,45.287,-3.4087,-9.3913
420,0.5748,-4.8667,-6.5911,45.913,-4.2435,-10.087
425,0.5365,-4.7134,-7.0509,44.9391,-4.4522,-10.3652
430,0.5365,-4.9433,-7.3575,42.087,-4.1043,-10.1565
435,0.4215,-4.9816,-7.5108,37.6348,-3.1304,-9.6
440,0.3066,-5.5564,-7.4725,32.487,-1.8087,-9.3217
445,0.3449,-6.1696,-7.5491,27.3391,-0.5565,-8.9043
450,0.2682,-6.8593,-7.5108,23.3739,0.6957,-8.2087
455,0.1533,-7.3575,-7.6257,21.2174,1.4609,-7.4435
460,0.1533,-7.5108,-7.5491,21.3565,2.4348,-6.4696
465,0.2299,-7.9323,-7.2809,24.0696,3.3391,-5.4261
470,0.115,-8.0089,-7.1659,29.4957,4.1043,-4.3826
475,0.2299,-8.2005,-7.0126,37.4261,3.8957,-3.9652
480,0.3449,-8.3155,-6.936,45.9826,3.0609,-3.8261
485,0.1916,-8.3921,-7.1276,54.1913,1.2522,-3.5478
490,0.1916,-8.5071,-6.936,61.7739,-0.6957,-3.5478
495,0.3066,-8.8903,-6.7827,68.5913,-3.5478,-3.687
500,0.4215,-9.4651,-6.5911,74.6435,-6.6783,-3.6174
505,-0.0383,-10.3848,-6.2462,80.0696,-9.3913,-3.687
510,0.0766,-11.4195,-5.5948,85.3565,-11.2,-3.2
515,-0.0766,-13.4121,-4.8667,91.8957,-12.8,-2.8522
520,-0.3066,-15.8263,-4.1769,100.8696,-14.2609,-1.7391
525,-0.4598,-18.4704,-4.2919,113.6696,-16.0696,0.0696
530,-0.5365,-20.578,-5.2116,131.2696,-17.1826,3.687
535,-0.5748,-21.3444,-6.3229,154.2261,-18.8522,10.5739
540,-0.1533,-20.6546,-9.0819,180.2435,-21.8435,18.5739
545,0.3066,-17.8573,-13.1822,208.487,-27.4783,23.0261
550,0.0,-13.8336,-16.3245,223.3043,-32.487,23.7913
555,1.1879,-9.9633,-18.8919,225.6696,-36.8,23.0957
560,1.6095,-8.3155,-18.662,208.0,-35.0609,21.7739
565,2.4142,-8.8137,-15.4048,173.9826,-28.0348,19.2696
570,2.4142,-9.9633,-11.7643,137.6696,-21.0087,14.6783
575,1.2263,-10.1549,-9.3118,110.2609,-19.0609,9.3217
580,1.2263,-10.3082,-7.9706,97.8087,-20.0348,6.8174
585,0.958,-9.5418,-7.4341,94.1913,-21.9826,3.1304
590,1.0346,-8.6604,-6.4378,93.6348,-21.287,2.087
595,0.6514,-7.3958,-5.978,90.8522,-19.8957,3.0609
600,0.1533,-6.6294,-5.978,84.8,-18.6435,5.7043
605,-0.4215,-6.1313,-6.0929,76.1739,-17.113,8.6261
610,-0.3066,-6.1696,-5.5181,66.087,-14.9565,11.1304
615,-0.2299,-6.0929,-5.0583,55.1652,-13.287,12.8
620,-0.0766,-6.2845,-4.5984,44.5913,-12.2435,13.3565
625,0.0,-6.821,-5.0583,34.9913,-11.8261,12.7304
630,-0.0383,-7.3192,-4.8284,26.2957,-10.3652,10.9913
635,0.0,-7.894,-4.2919,19.0609,-8.0696,8.9739
640,0.115,-8.5454,-3.947,13.2174,-6.1217,7.0261
645,0.0,-9.3502,-3.9853,8.8348,-5.4261,5.7043
650,-0.0383,-9.81,-4.062,6.4,-4.9391,4.7304
655,-0.0383,-9.8866,-3.5255,5.8435,-4.7304,4.1739
660,0.0766,-9.8866,-3.0273,6.9565,-5.287,3.8261
665,0.1916,-9.8866,-2.6824,8.9739,-6.887,3.4783
670,0.1533,-9.5418,-2.874,12.313,-8.9739,2.7826
675,0.0766,-9.3502,-2.6824,15.8609,-10.087,1.7391
680,0.2682,-9.0819,-2.0693,19.8957,-10.713,0.8348
685,0.3066,-8.9286,-2.031,23.5826,-11.4783,-0.1391
690,0.2299,-8.6221,-2.2226,26.713,-12.1739,-0.6957
695,0.1916,-8.4688,-2.2226,29.1478,-12.313,-0.9043
700,0.0766,-8.4305,-1.916,31.3043,-11.3391,-0.5565
705,0.1916,-8.3155,-1.5711,33.2522,-10.0174,0.2783
710,0.2299,-8.6221,-1.4179,35.1304,-9.0435,1.3913
715,0.0766,-8.6987,-1.6095,37.5652,-7.8609,2.6435
720,-0.1533,-8.9286,-1.7627,40.3478,-6.1913,3.8261
725,-0.0766,-9.1586,-1.6478,43.4783,-4.2435,4.8696
730,0.0,-9.3502,-1.6095,47.0261,-2.7826,6.0522
735,-0.2299,-9.4268,-1.916,50.7826,-1.8087,7.0261
740,-0.3449,-9.695,-2.2226,54.6087,-1.0435,7.9304
745,-0.4215,-9.7334,-2.1076,58.2261,0.0,8.8348
750,-0.2299,-9.8483,-1.9927,61.7043,0.7652,9.8783
755,-0.2682,-9.81,-2.1076,64.8348,0.8348,10.7826
760,-0.3449,-9.7334,-2.2609,67.2,0.6957,11.687
765,-0.115,-9.7717,-2.4525,69.0783,0.6957,12.313
770,-0.0766,-9.695,-2.4525,70.3304,0.9739,12.7304
775,0.0,-9.4651,-2.3759,71.0261,1.3217,13.1478
780,0.0766,-9.6184,-2.5675,71.3043,1.4609,13.287
785,0.0766,-9.4268,-2.6824,70.887,1.8087,13.2174
790,0.2682,-9.3118,-2.6058,69.8435,2.5739,13.0087
795,0.3066,-9.1586,-2.5675,68.4522,3.3391,12.4522
800,0.3832,-9.1202,-2.6441,66.713,3.8261,11.6174
805,0.1916,-8.9286,-2.8357,65.0435,4.1739,10.6435
810,0.3449,-9.0053,-2.8357,63.2348,4.8696,9.6696
815,0.3066,-8.8903,-3.0656,61.5652,5.7739,8.6261
820,0.4215,-8.8903,-2.874,59.8261,6.4696,7.7913
825,0.4215,-8.852,-2.9507,57.6696,6.7478,7.0261
830,0.4215,-8.7754,-2.9507,55.2348,6.6783,6.1217
835,0.5365,-8.8137,-3.1423,52.8,6.5391,5.4957
840,0.5365,-8.737,-2.9507,50.2261,6.3304,4.5913
845,0.3832,-8.6987,-2.874,47.5826,5.5652,3.8261
850,0.3066,-8.6604,-3.0656,45.0783,4.8,3.1304
855,0.3449,-8.5454,-3.1039,42.5739,4.4522,2.4348
860,0.2299,-8.6221,-2.9123,39.9304,4.2435,1.9478
865,0.0383,-8.6221,-2.8357,37.287,4.0348,1.2522
870,0.0,-8.6221,-2.5675,34.9913,3.7565,0.9043
875,0.0,-8.6221,-2.7974,32.9739,3.5478,0.6957
880,-0.2299,-8.5454,-2.5291,31.3739,3.5478,0.6261
885,-0.115,-8.5071,-2.5675,29.913,3.687,0.4174
890,-0.1916,-8.4305,-2.4142,28.6609,3.8261,0.1391
895,-0.3449,-8.3155,-2.4908,27.3391,3.8957,0.1391
900,-0.2299,-8.1239,-2.6441,26.0174,4.2435,0.0696
905,-0.4598,-8.3155,-2.4525,24.5565,5.0087,0.0
910,-0.1533,-8.5454,-2.4908,23.0261,5.7043,0.3478
915,-0.2299,-8.5454,-2.4525,21.287,6.4696,0.6261
920,-0.3066,-8.5838,-2.4525,19.7565,7.3043,0.8348
925,-0.3832,-8.6604,-2.6441,18.6435,8.3478,1.3913
930,-0.115,-8.7754,-2.2226,17.8087,9.2522,1.8783
935,-0.2682,-8.7754,-2.1459,17.6,9.7391,2.3652
940,-0.2299,-9.0053,-2.1843,17.6696,9.9478,2.7826
945,-0.3832,-8.967,-2.031,18.2261,9.8783,3.2696
950,-0.1916,-8.852,-2.2609,18.8522,10.0174,3.6174
955,-0.2299,-9.1202,-1.8777,19.4087,9.6,3.6174
960,-0.3449,-9.1586,-1.916,19.7565,9.113,3.7565
965,-0.3066,-9.0436,-1.916,20.0348,8.6261,3.8261
970,-0.4598,-9.1586,-1.916,20.313,8.487,3.8261
975,-0.5365,-9.0819,-1.8011,20.6609,8.3478,3.8957
980,-0.4598,-9.0436,-1.7244,20.9391,8.0,3.9652
985,-0.6131,-9.1202,-1.7244,21.4957,7.7217,4.1043
990,-0.6131,-9.2352,-1.9927,21.9826,7.4435,4.1043
995,-0.6898,-9.1969,-1.8011,22.6087,7.4435,4.1043
1000,-0.4982,-9.1969,-1.6478,23.3739,7.1652,4.1739
1005,-0.6898,-9.1202,-1.8394,23.9304,6.6087,4.313
1010,-0.6131,-9.1586,-1.916,24.3478,6.0522,4.313
1015,-0.6131,-9.1586,-1.8394,24.8348,5.6348,4.2435
1020,-0.5748,-9.0819,-1.7627,25.2522,5.1478,4.1739
1025,-0.5748,-9.0436,-1.9543,25.4609,4.5217,4.2435
1030,-0.6131,-8.9286,-2.0693,25.5304,3.8957,3.8957
1035,-0.6131,-8.967,-2.0693,25.4609,3.687,3.6174
1040,-0.5748,-9.0053,-1.9927,25.0435,3.5478,3.1304
1045,-0.4982,-8.9286,-1.9543,24.3478,3.2696,2.713
1050,-0.5748,-9.0053,-2.1076,23.3043,2.9217,2.1565
1055,-0.6898,-9.0053,-2.1843,22.1913,2.6435,1.6696
1060,-0.7281,-8.967,-2.1076,21.0783,2.5739,1.3913
1065,-0.6898,-9.0819,-1.9543,19.8261,2.5739,1.1826
1070,-0.6514,-9.0819,-2.1076,18.8522,2.3652,1.1826
1075,-0.6898,-9.0436,-2.0693,17.8783,1.9478,1.1826
1080,-0.6514,-9.0819,-2.1843,17.0435,1.6696,1.3217
1085,-0.6898,-9.1202,-2.031,16.3478,1.6,1.5304
1090,-0.6514,-9.1202,-1.9543,15.7913,1.2522,1.6
1095,-0.7664,-9.2735,-2.0693,15.2348,0.9043,1.7391
1100,-0.6514,-9.1202,-2.1459,14.7478,0.5565,1.8783
1105,-0.6898,-9.2735,-2.0693,14.4,0.3478,2.0174
1110,-0.6898,-9.2352,-1.8394,13.913,-0.0696,2.087
1115,-0.6514,-9.0819,-1.916,13.0783,-0.487,2.1565
1120,-0.6898,-9.1202,-1.9927,12.313,-1.1826,2.1565
1125,-0.6514,-9.2352,-2.0693,11.4087,-1.6,2.1565
1130,-0.5748,-9.1586,-2.0693,10.5043,-1.9478,2.2957
1135,-0.6898,-9.1969,-2.2226,9.5304,-2.2957,2.2261
1140,-0.5365,-9.3118,-2.1076,8.6957,-2.5739,2.2261
1145,-0.6514,-9.3502,-2.1843,7.8609,-2.7826,2.2261
1150,-0.4598,-9.3885,-1.9927,7.0957,-2.7826,2.2957
1155,-0.5748,-9.2352,-2.0693,6.4696,-2.713,2.3652
1160,-0.4982,-9.0819,-1.9543,5.8435,-2.7826,2.2957
1165,-0.3832,-9.0819,-2.1076,5.2174,-2.5043,2.2261
1170,-0.4215,-9.1586,-1.9927,4.5217,-2.1565,2.0174
1175,-0.2682,-9.1969,-2.1076,3.7565,-1.5304,1.9478
1180,-0.1916,-9.1586,-2.0693,2.9913,-1.3217,1.9478
1185,-0.3066,-9.2735,-1.9543,2.2957,-1.2522,1.8783
1190,-0.3449,-9.1202,-2.0693,1.7391,-0.7652,1.6696
1195,-0.1916,-9.2735,-1.8777,1.2522,-0.2783,1.6
1200,-0.2299,-9.3118,-1.7627,0.9043,0.0,1.3913
1205,-0.1533,-9.3118,-1.8011,0.6957,0.1391,1.113
1210,-0.1533,-9.3502,-1.7627,0.6261,0.2087,0.7652
1215,-0.2299,-9.2735,-1.7627,0.6957,0.3478,0.5565
1220,-0.2682,-9.1969,-1.7627,0.8348,0.3478,0.3478
1225,-0.1916,-9.1969,-1.5328,1.113,0.3478,0.0696
1230,-0.2299,-9.3885,-1.6095,1.3913,0.0,-0.2087
1235,-0.2682,-9.2735,-1.7244,1.7391,-0.0696,-0.3478
1240,-0.3066,-9.3118,-1.6861,2.1565,-0.0696,-0.3478
1245,-0.3449,-9.2352,-1.7244,2.5043,-0.0696,-0.4174
1250,-0.2299,-9.2735,-1.6861,2.713,-0.0696,-0.2783
1255,-0.3832,-9.2352,-1.7627,2.9217,0.0,-0.2783
1260,-0.4982,-9.2352,-1.6861,3.0609,0.2783,0.0696
1265,-0.3832,-9.3885,-1.8394,3.2,0.487,0.2087
1270,-0.2299,-9.4268,-1.8394,3.4783,0.5565,0.487
1275,-0.4215,-9.4268,-1.916,3.6174,0.5565,0.7652
1280,-0.4982,-9.4268,-2.0693,3.8957,0.6261,0.9043
1285,-0.3832,-9.5034,-1.8394,4.1043,0.5565,0.9043
1290,-0.3832,-9.2735,-1.7244,4.2435,0.3478,0.9739
1295,-0.4598,-9.2735,-1.5328,4.2435,0.1391,1.113
1300,-0.5365,-9.3885,-1.7244,4.1739,0.0696,1.2522
1305,-0.4598,-9.3502,-1.8394,4.1043,0.0696,1.2522
1310,-0.4215,-9.1202,-1.7627,3.7565,0.0696,1.3913
1315,-0.4982,-9.3502,-1.8011,3.5478,-0.0696,1.3913
1320,-0.4215,-9.3118,-1.8394,3.3391,0.0,1.3217
1325,-0.4215,-9.3502,-1.8011,2.9913,0.2087,1.4609
1330,-0.3449,-9.4268,-1.9927,2.9217,0.4174,1.5304
1335,-0.3449,-9.3502,-1.6478,2.7826,0.6261,1.4609
1340,-0.3832,-9.4651,-1.9927,2.6435,0.9739,1.4609
1345,-0.3832,-9.0053,-1.5328,2.713,1.3217,1.3913
1350,-0.4982,-9.6184,-1.9927,2.713,1.5304,1.3913
1355,-0.3066,-9.3885,-1.8394,2.9217,1.8783,1.3217
1360,-0.4215,-9.1586,-1.8777,3.0609,2.087,1.5304
1365,-0.3066,-9.3502,-1.8394,3.2696,2.4348,1.5304
1370,-0.3066,-9.3118,-2.0693,3.4087,2.713,1.6696
1375,-0.4215,-9.2352,-2.0693,3.4783,3.0609,1.6
1380,-0.3832,-9.1202,-1.916,3.6174,3.2696,1.5304
1385,-0.1916,-9.2352,-1.8777,3.5478,3.4087,1.5304
1390,-0.5365,-8.9286,-2.4142,3.3391,3.5478,1.3217
1395,-0.3066,-9.1202,-1.9927,3.1304,3.6174,1.1826
1400,-0.3832,-9.0819,-1.916,2.9217,3.8957,1.0435
1405,-0.4598,-9.0819,-2.031,2.713,4.1043,0.9043
1410,-0.3449,-9.1586,-1.8777,2.5043,4.1739,0.8348
1415,-0.3066,-9.3118,-2.1459,2.1565,4.1739,0.6957
1420,-0.3449,-9.1969,-2.0693,2.0174,4.1043,0.4174
1425,-0.3832,-9.2352,-2.1459,1.7391,4.0348,0.3478
1430,-0.4215,-9.3502,-2.2226,1.6,3.8957,0.0696
1435,-0.3449,-9.2735,-2.2226,1.6,3.7565,0.0
1440,-0.1916,-9.3885,-2.1076,1.4609,3.7565,0.0
1445,-0.4598,-9.3885,-2.031,1.6696,3.687,0.0
1450,-0.2682,-9.4268,-1.9543,1.7391,3.6174,0.2087
1455,-0.4598,-9.2735,-2.1843,1.8783,3.5478,0.3478
1460,-0.3449,-9.2735,-2.2226,2.0174,3.6174,0.5565
1465,-0.4215,-9.3118,-2.0693,2.087,3.687,0.7652
1470,-0.4598,-9.3118,-2.2226,2.0174,3.687,0.9043
1475,-0.3449,-9.3118,-2.2609,2.0174,3.5478,1.0435
1480,-0.5365,-9.2735,-2.1843,1.8087,3.4783,1.113
1485,-0.6514,-9.1586,-2.2226,1.4609,3.4783,1.2522
1490,-0.4982,-9.1969,-2.2226,1.1826,3.4783,1.113
1495,-0.6898,-9.2352,-2.0693,0.9043,3.4783,1.0435
1500,-0.4215,-9.3885,-2.2992,0.6957,3.2696,1.0435
1505,-0.6514,-9.2735,-2.1459,0.487,3.1304,0.9739
1510,-0.6131,-9.3118,-2.1076,0.6261,3.0609,0.9043
1515,-0.5365,-9.2735,-2.1076,0.6957,2.9913,0.7652
1520,-0.5365,-9.1969,-2.031,1.0435,2.7826,0.487
1525,-0.5365,-9.3118,-2.2226,1.3913,2.6435,0.2783
1530,-0.5748,-9.3885,-2.031,1.6696,2.4348,0.0696
1535,-0.4982,-9.4268,-2.031,2.0174,2.2957,-0.1391
1540,-0.6131,-9.2352,-2.1459,2.2957,2.0174,-0.1391
1545,-0.6898,-9.1969,-2.031,2.3652,1.8087,-0.2783
1550,-0.6898,-9.2352,-2.1459,2.3652,1.6,-0.4174
1555,-0.4982,-9.3502,-2.1843,2.6435,1.4609,-0.5565
1560,-0.7281,-9.2352,-2.2992,2.7826,1.1826,-0.8348
1565,-0.6514,-9.1202,-2.2226,2.7826,0.8348,-1.113
1570,-0.6514,-9.2352,-2.3375,2.9217,0.6957,-1.2522
1575,-0.7281,-9.2352,-2.3375,2.9217,0.4174,-1.3217
1580,-0.6898,-9.3502,-2.2609,3.1304,0.2783,-1.2522
1585,-0.6514,-9.1969,-2.2992,3.2696,0.0696,-1.3913
1590,-0.8814,-9.3502,-2.4525,3.4087,-0.2783,-1.3217
1595,-0.6131,-9.1969,-2.1076,3.5478,-0.2783,-1.3217
1600,-0.6131,-9.2735,-2.1843,3.5478,-0.3478,-1.3217
1605,-0.6514,-9.1586,-2.1843,3.4783,-0.487,-1.2522
1610,-0.6514,-9.1969,-2.1076,3.2696,-0.5565,-1.3217
1615,-0.5748,-9.2735,-2.1076,3.1304,-0.5565,-1.3913
1620,-0.6514,-9.0819,-2.1076,2.8522,-0.6261,-1.3913
1625,-0.6898,-9.1969,-2.0693,2.4348,-0.6261,-1.3217
1630,-0.6898,-9.1202,-2.0693,2.0174,-0.487,-1.3217
1635,-0.6514,-9.2352,-1.8777,1.5304,-0.4174,-1.3913
1640,-0.6131,-9.2352,-2.0693,0.9739,-0.2783,-1.4609
1645,-0.6514,-9.2352,-2.031,0.487,-0.1391,-1.4609
1650,-0.8814,-9.1586,-2.031,0.0,0.0,-1.4609
1655,-0.5365,-9.1969,-1.8011,-0.6261,0.2783,-1.4609
1660,-0.4215,-9.0053,-1.8777,-1.0435,0.487,-1.3913
1665,-0.5748,-9.2352,-1.9927,-1.2522,0.7652,-1.3217
1670,-0.6514,-9.1969,-2.031,-1.3217,1.0435,-1.113
1675,-0.4598,-9.2735,-2.031,-1.113,1.1826,-0.9043
1680,-0.4982,-9.3885,-2.031,-0.9739,1.3913,-1.113
1685,-0.3066,-9.4268,-1.9927,-0.5565,1.6,-1.2522
1690,-0.4598,-9.3502,-2.1459,-0.1391,1.8783,-1.2522
1695,-0.4598,-9.4268,-2.1076,0.2087,2.087,-1.2522
1700,-0.4215,-9.4268,-2.1843,0.2783,2.3652,-1.3217
1705,-0.4982,-9.3885,-2.0693,0.3478,2.5043,-1.3913
1710,-0.3832,-9.3118,-2.1843,0.3478,2.7826,-1.3217
1715,-0.3449,-9.3502,-2.2226,0.2783,2.8522,-1.4609
1720,-0.4215,-9.0819,-2.1459,0.0,2.8522,-1.6
1725,-0.3832,-9.3118,-2.1843,-0.1391,2.9913,-1.8087
1730,-0.3449,-9.3502,-2.0693,-0.1391,2.9913,-1.8783
1735,-0.3449,-9.2352,-2.2226,-0.0696,2.9217,-2.0174
1740,-0.3832,-9.3885,-2.1843,-0.2087,2.713,-2.087
1745,-0.2299,-9.3885,-2.1076,-0.1391,2.5739,-2.2261
1750,-0.3449,-9.3885,-2.1843,-0.0696,2.2957,-2.4348
1755,-0.3066,-9.2735,-2.1459,0.0,2.087,-2.4348
1760,-0.4215,-9.2735,-2.031,0.0696,1.7391,-2.5739
1765,-0.3832,-9.2735,-2.1843,0.1391,1.3217,-2.5739
1770,-0.4598,-9.1969,-2.1459,0.2087,1.0435,-2.6435
1775,-0.3832,-9.2352,-2.1459,0.2087,0.7652,-2.5043
1780,-0.4215,-9.1586,-2.2226,0.2087,0.6261,-2.6435
1785,-0.4982,-9.1202,-2.0693,0.2087,0.3478,-2.6435
1790,-0.4215,-9.1586,-2.3759,0.2783,0.0696,-2.6435
1795,-0.4982,-9.1969,-2.2609,0.2087,0.0696,-2.5043
1800,-0.3832,-9.1586,-2.1843,0.0696,-0.0696,-2.5739
1805,-0.4982,-9.1969,-2.2226,0.0,-0.1391,-2.6435
1810,-0.3832,-9.3502,-2.2226,-0.1391,-0.1391,-2.6435
1815,-0.4598,-9.1586,-2.3375,-0.4174,-0.2087,-2.6435
1820,-0.4598,-9.1969,-2.2992,-0.4174,-0.1391,-2.6435
1825,-0.4598,-9.3118,-2.2226,-0.487,-0.0696,-2.6435
1830,-0.4598,-9.3118,-2.2992,-0.4174,-0.1391,-2.6435
1835,-0.3832,-9.3118,-2.2609,-0.2783,-0.2087,-2.6435
1840,-0.3066,-9.1586,-2.2226,-0.0696,-0.3478,-2.5043
1845,-0.3066,-9.3118,-2.1459,0.2783,-0.487,-2.4348
1850,-0.2682,-9.4268,-2.2609,0.6261,-0.487,-2.4348
1855,-0.2682,-9.2352,-2.3759,0.9739,-0.6957,-2.4348
1860,-0.3832,-9.3502,-2.1459,1.2522,-0.6957,-2.4348
1865,-0.3066,-9.2735,-2.2609,1.3217,-0.6261,-2.4348
1870,-0.2299,-9.2352,-2.2992,1.4609,-0.5565,-2.5739
1875,-0.1916,-9.1969,-2.3759,1.4609,-0.487,-2.5739
1880,-0.1533,-9.5034,-2.2226,1.4609,-0.2783,-2.5043
1885,-0.1533,-9.2735,-2.3759,1.3913,0.0,-2.5043
1890,-0.1533,-9.3502,-2.4142,1.2522,0.2087,-2.2957
1895,-0.2682,-9.1969,-2.3759,1.113,0.5565,-2.2261
1900,-0.0766,-9.2735,-2.2992,0.9739,0.6957,-2.2261
1905,-0.1916,-9.2735,-2.3375,0.9043,0.8348,-2.1565
1910,-0.115,-9.4268,-2.2226,0.8348,1.113,-2.1565
1915,-0.1916,-9.1969,-2.3759,0.8348,1.2522,-2.0174
1920,-0.1916,-9.2735,-2.2992,0.6957,1.4609,-2.087
1925,-0.2682,-9.3118,-2.3375,0.6261,1.5304,-1.9478
1930,-0.3832,-9.1202,-2.031,0.5565,1.7391,-1.8783
1935,-0.2682,-9.2735,-2.7207,0.4174,1.9478,-1.7391
1940,-0.3066,-9.1202,-2.2609,0.3478,2.087,-1.6
1945,-0.3832,-9.1586,-2.2992,0.2783,2.087,-1.6
1950,-0.4215,-9.1969,-2.3375,0.2087,2.1565,-1.5304
1955,-0.5748,-9.2352,-2.2609,0.2783,2.1565,-1.5304
1960,-0.3066,-9.2352,-2.3375,0.2783,2.1565,-1.3217
1965,-0.3832,-9.3118,-2.2609,0.3478,2.0174,-1.2522
1970,-0.3066,-9.3118,-2.2609,0.4174,1.8783,-1.113
1975,-0.5365,-9.1586,-2.3375,0.5565,1.7391,-1.1826
1980,-0.4598,-9.2735,-2.2609,0.6957,1.7391,-1.113
1985,-0.3832,-9.1586,-2.3759,0.9739,1.8087,-1.113
1990,-0.5748,-9.2735,-2.4142,1.2522,1.7391,-1.0435
1995,-0.4215,-9.1969,-2.3759,1.4609,1.6696,-0.7652
2000,-0.3449,-9.3118,-2.4142,1.6696,1.7391,-0.8348
2005,-0.3066,-9.1586,-2.3759,1.9478,1.8087,-0.7652
2010,-0.2682,-9.3118,-2.2992,2.2261,1.8783,-0.6957
2015,-0.3832,-9.1969,-2.4142,2.4348,1.8783,-0.6957
2020,-0.3066,-9.3118,-2.2609,2.713,1.9478,-0.6957
2025,-0.3832,-9.2352,-2.3375,2.9913,1.9478,-0.7652
2030,-0.2299,-9.3885,-2.3759,3.2,1.9478,-0.6957
2035,-0.3832,-9.2735,-2.2609,3.4087,1.9478,-0.7652
2040,-0.3832,-9.3118,-2.4142,3.6174,1.8783,-0.8348
2045,-0.5748,-9.6567,-2.7207,3.8957,1.8783,-0.9043
2050,-0.3066,-9.3118,-2.3759,3.9652,1.8783,-1.113
2055,-0.4598,-9.1969,-2.4525,4.1043,1.8087,-1.1826
2060,-0.3832,-9.3502,-2.4525,4.313,1.8087,-1.2522
2065,-0.3066,-9.3118,-2.3375,4.3826,1.6696,-1.3217
2070,-0.3832,-9.2735,-2.3759,4.5217,1.5304,-1.3913
2075,-0.2299,-9.1969,-2.3759,4.5217,1.3913,-1.5304
2080,-0.3832,-9.2735,-2.3759,4.5913,1.2522,-1.6
2085,-0.3832,-9.3885,-2.3375,4.6609,0.8348,-1.5304
2090,-0.4215,-9.2352,-2.4142,4.6609,0.7652,-1.6
2095,-0.4982,-9.2735,-2.3759,4.6609,0.6957,-1.6
2100,-0.4598,-9.2352,-2.4142,4.6609,0.4174,-1.6696
2105,-0.5748,-9.1969,-2.3375,4.7304,0.2783,-1.6
2110,-0.4215,-9.2352,-2.4525,4.8,0.2087,-1.5304
2115,-0.5365,-9.1202,-2.2609,4.6609,0.2087,-1.5304
2120,-0.2682,-9.1586,-2.1843,4.5913,0.2087,-1.4609
2125,-0.4982,-9.0819,-2.2992,4.4522,0.1391,-1.4609
2130,-0.4982,-9.0819,-2.3759,4.313,0.1391,-1.4609
2135,-0.4215,-9.1586,-2.4142,4.1739,0.1391,-1.4609
2140,-0.5748,-9.2352,-2.2609,4.0348,0.2783,-1.3913
2145,-0.4982,-9.3118,-2.1459,3.8261,0.2783,-1.4609
2150,-0.5748,-9.1969,-2.2609,3.7565,0.2087,-1.4609
2155,-0.4598,-9.1586,-2.2992,3.687,0.3478,-1.4609
2160,-0.5365,-9.1969,-2.3375,3.6174,0.487,-1.3217
2165,-0.3832,-9.1586,-2.2609,3.4087,0.487,-1.3217
2170,-0.4982,-9.1969,-2.3759,3.2696,0.487,-1.3217
2175,-0.3832,-9.2735,-2.3375,3.1304,0.487,-1.2522
2180,-0.3832,-9.3118,-2.3375,3.0609,0.4174,-1.3217
2185,-0.4215,-9.2735,-2.2609,3.0609,0.2783,-1.3217
2190,-0.3449,-9.3502,-2.2609,3.2696,0.1391,-1.4609
2195,-0.4982,-9.3502,-2.3759,3.5478,0.0696,-1.3217
2200,-0.3449,-9.3885,-2.1843,3.7565,0.2087,-1.4609
2205,-0.1916,-9.3885,-2.2609,4.1043,0.1391,-1.3913
2210,-0.3832,-9.2735,-2.4142,4.5217,0.2087,-1.3913
2215,-0.3449,-9.2735,-2.4525,4.8,0.2783,-1.3913
2220,-0.3449,-9.2352,-2.2992,5.0087,0.3478,-1.3913
2225,-0.1533,-9.3885,-2.2992,5.2174,0.2783,-1.3913
2230,-0.2682,-9.2352,-2.2992,5.3565,0.2783,-1.3217
2235,-0.0766,-9.3502,-2.1843,5.4261,0.3478,-1.2522
2240,-0.3066,-9.1969,-2.2226,5.4957,0.2783,-1.2522
2245,-0.2682,-9.3118,-2.1076,5.5652,0.2087,-1.2522
2250,-0.2682,-9.2352,-2.2992,5.6348,0.2087,-1.0435
2255,-0.1533,-9.3502,-2.3375,5.7043,0.2783,-1.0435
2260,-0.1916,-9.3118,-2.1843,5.7043,0.2087,-1.0435
2265,-0.843,-9.2352,-2.1843,5.7043,0.2783,-1.113
2270,-0.2682,-9.1969,-2.2226,5.7739,0.3478,-1.113
2275,-0.2682,-9.2352,-2.2226,5.7739,0.3478,-0.9739
2280,-0.0383,-9.2735,-2.0693,5.7043,0.4174,-0.9043
2285,-0.1533,-9.2735,-2.3375,5.5652,0.4174,-0.8348
2290,-0.3449,-9.1586,-2.031,5.3565,0.487,-0.9043
2295,-0.2299,-9.1586,-2.2992,5.2174,0.487,-0.9043
2300,-0.2682,-9.3118,-2.1843,5.0783,0.5565,-0.9043
2305,-0.2682,-9.2352,-2.1843,4.8696,0.5565,-0.9043
2310,-0.2682,-9.1586,-2.1843,4.5913,0.487,-0.9739
2315,-0.3066,-9.2352,-2.1076,4.3826,0.487,-0.9739
2320,-0.3066,-9.3118,-2.2226,4.2435,0.4174,-0.9739
2325,-0.4215,-9.2352,-2.2226,4.0348,0.4174,-0.9043
2330,-0.2299,-9.1969,-2.1843,4.0348,0.487,-1.113
2335,-0.3449,-9.1969,-2.2226,3.9652,0.5565,-0.9739
2340,-0.1916,-9.1969,-2.2226,3.8261,0.6261,-0.9043
2345,-0.3832,-9.1202,-2.2226,3.8261,0.6957,-0.9043
2350,-0.3449,-9.1969,-2.3375,3.687,0.9043,-0.9739
2355,-0.3066,-9.2352,-2.2992,3.8261,1.113,-0.9739
2360,-0.3449,-9.3118,-2.1843,3.8261,1.1826,-1.0435
2365,-0.3449,-9.1969,-2.2226,3.9652,1.1826,-1.113
2370,-0.2682,-9.3885,-2.3375,3.9652,1.1826,-1.0435
2375,-0.1533,-9.2735,-2.3759,3.8957,1.1826,-1.113
2380,-0.3066,-9.3118,-2.2226,3.8957,1.113,-1.0435
2385,-0.3449,-9.2735,-2.3375,3.8957,1.0435,-1.2522
2390,-0.2299,-9.2352,-2.2226,3.9652,0.9739,-1.3217
2395,-0.1916,-9.2735,-2.2609,3.9652,0.9043,-1.3217
2400,-0.3066,-9.2735,-2.3375,4.0348,0.9739,-1.1826
2405,-0.2682,-9.3502,-2.2992,4.1739,0.9739,-1.3217
2410,-0.3066,-9.3118,-2.1843,4.3826,0.9739,-1.1826
2415,-0.2682,-9.2352,-2.2992,4.5913,1.0435,-1.1826
2420,-0.3449,-9.2735,-2.1843,4.6609,1.1826,-1.0435
2425,-0.3449,-9.2352,-2.1843,4.7304,1.2522,-1.0435
2430,-0.2299,-9.2352,-2.2992,4.5913,1.3217,-0.9739
2435,-0.3066,-9.2735,-2.1843,4.5913,1.3913,-1.0435
2440,-0.3449,-9.2352,-2.3375,4.5913,1.4609,-0.9739
2445,-0.4215,-9.3118,-2.3375,4.5217,1.3913,-0.8348
2450,-0.3832,-9.2352,-2.2226,4.5217,1.3913,-0.6957
2455,-0.5748,-9.2352,-2.3759,4.5913,1.4609,-0.7652
2460,-0.4982,-9.1969,-2.2609,4.5217,1.3913,-0.7652
2465,-0.4215,-9.1969,-2.2226,4.5913,1.3913,-0.6261
2470,-0.4215,-9.2352,-2.2226,4.7304,1.3913,-0.5565
2475,-0.3832,-9.4651,-2.6441,4.7304,1.3217,-0.4174
2480,-0.4215,-9.2735,-2.4142,4.8,1.2522,-0.3478
2485,-0.3832,-9.1586,-2.3375,5.0087,1.113,-0.2783
2490,-0.3832,-9.2735,-2.1076,5.1478,1.0435,-0.1391
2495,-0.4215,-9.2735,-2.3375,5.1478,0.9739,-0.2087
2500,-0.4598,-9.2352,-2.2609,5.0783,0.9739,-0.1391
2505,-0.3449,-9.2735,-2.3759,4.7304,0.9739,-0.1391
2510,-0.4598,-9.2352,-2.2992,4.4522,1.0435,-0.0696
2515,-0.3449,-9.2352,-2.1459,4.2435,1.0435,-0.2087
2520,-0.4598,-9.3118,-2.2226,4.1043,1.0435,-0.2087
2525,-0.3832,-9.2735,-2.2992,3.9652,0.9043,-0.3478
2530,-0.4215,-9.3118,-2.3375,3.9652,0.9043,-0.2783
2535,-0.3066,-9.3118,-2.1459,3.8957,0.8348,-0.487
2540,-0.2299,-9.3885,-2.2226,4.0348,0.6957,-0.6957
2545,-0.3449,-9.2735,-2.1843,4.1043,0.6261,-0.6957
2550,-0.4598,-9.2735,-2.1459,4.1043,0.6261,-0.8348
2555,-0.2682,-9.1586,-2.2226,4.2435,0.6261,-0.9739
2560,-0.3832,-9.2352,-2.2609,4.1043,0.6261,-1.113
2565,-0.3832,-9.1969,-2.2226,3.9652,0.6957,-1.1826
2570,-0.3449,-9.1586,-2.1843,3.9652,0.6957,-0.9739
2575,-0.3449,-9.1969,-2.3375,3.8261,0.6957,-0.9043
2580,-0.4215,-9.3885,-2.2609,3.8261,0.7652,-0.9043
2585,-0.3066,-9.2735,-2.2609,3.8957,0.7652,-0.9043
2590,-0.4982,-9.3885,-2.4142,3.8261,0.8348,-0.7652
2595,-0.4215,-9.1586,-2.1459,3.9652,0.8348,-0.7652
2600,-0.1916,-9.1586,-2.2992,3.8957,0.7652,-0.7652
2605,-0.4215,-9.2735,-2.2992,3.9652,0.9043,-0.6261
2610,-0.3449,-9.3118,-2.2992,3.9652,0.9043,-0.5565
2615,-0.3066,-9.3118,-2.3759,3.8261,0.8348,-0.5565
2620,-0.0766,-9.3502,-2.3759,3.8261,0.7652,-0.5565
2625,-0.3066,-9.3502,-2.3759,3.687,0.8348,-0.5565
2630,-0.3449,-9.2352,-2.2609,3.687,0.7652,-0.5565
2635,-0.3449,-9.4651,-2.1843,3.6174,0.6957,-0.6261
2640,-0.2682,-9.3885,-2.2992,3.687,0.6261,-0.5565
2645,-0.3066,-9.3118,-2.2226,3.7565,0.6261,-0.5565
2650,-0.2299,-9.3502,-2.1843,3.8261,0.6261,-0.6261
2655,-0.2299,-9.3118,-2.2226,3.9652,0.487,-0.6261
2660,-0.3066,-9.3118,-2.1843,3.9652,0.5565,-0.487
2665,-0.1533,-9.4268,-2.0693,4.1043,0.5565,-0.2783
2670,-0.2682,-9.3118,-2.1843,4.1043,0.487,-0.1391
2675,-0.3066,-9.1969,-2.1459,4.1739,0.487,-0.3478
2680,-0.3449,-9.3118,-2.2609,4.2435,0.487,-0.4174
2685,-0.3066,-9.0819,-2.1459,4.2435,0.5565,-0.2087
2690,-0.1533,-9.1969,-2.0693,4.313,0.5565,-0.2783
2695,-0.4215,-9.1586,-2.6824,4.4522,0.6261,-0.3478
2700,-0.0383,-9.81,-2.5291,4.4522,0.6261,-0.2783
2705,-0.3066,-9.3502,-2.1843,4.4522,0.7652,-0.2087
2710,-0.3066,-9.1586,-2.3759,4.5217,0.8348,-0.1391
2715,-0.3066,-9.1969,-2.2609,4.5217,0.8348,-0.3478
2720,-0.3449,-9.1586,-2.3375,4.4522,0.9043,-0.2087
2725,-0.3832,-9.2735,-2.2226,4.313,0.9739,-0.2783
2730,-0.4215,-9.2735,-2.2992,4.1043,0.9739,-0.2783
2735,-0.2299,-9.2352,-2.3375,4.0348,0.9043,-0.487
2740,-0.3449,-9.3118,-2.1076,3.8957,0.9739,-0.487
2745,-0.3066,-9.3502,-2.2609,3.9652,0.8348,-0.6261
2750,-0.2682,-9.2735,-2.2992,4.1043,0.7652,-0.6261
2755,-0.3449,-9.2352,-2.2992,4.0348,0.6261,-0.6261
2760,-0.2682,-9.3118,-2.2992,4.1739,0.5565,-0.6957
2765,-0.3832,-9.4268,-2.2609,4.2435,0.4174,-0.6957
2770,-0.2682,-9.2352,-2.3375,4.313,0.4174,-0.7652
2775,-0.3066,-9.1969,-2.1843,4.2435,0.3478,-0.6957
2780,-0.3066,-9.2735,-2.1843,4.1043,0.487,-0.6261
2785,-0.3449,-9.2352,-2.1076,4.1043,0.487,-0.5565
2790,-0.3832,-9.2352,-2.3759,4.0348,0.487,-0.5565
2795,-0.3832,-9.1202,-2.2226,4.0348,0.5565,-0.4174
2800,-0.3832,-9.2352,-2.1076,3.8957,0.5565,-0.487
2805,-0.3066,-9.2735,-2.1459,3.8957,0.5565,-0.487
2810,-0.3066,-9.2735,-2.1459,3.8261,0.6261,-0.487
2815,-0.4598,-9.2352,-2.2226,3.7565,0.7652,-0.5565
2820,-0.3449,-9.3502,-2.2226,3.687,0.6957,-0.5565
2825,-0.4982,-9.1969,-2.3759,3.7565,0.7652,-0.487
2830,-0.3832,-9.1586,-2.1843,3.8261,0.7652,-0.5565
2835,-0.4215,-9.2735,-2.2226,3.9652,0.8348,-0.6261
2840,-0.3832,-9.3118,-2.2609,3.9652,0.6957,-0.5565
2845,-0.3832,-9.3118,-2.3375,3.9652,0.6957,-0.5565
2850,-0.4598,-9.2735,-2.3375,4.0348,0.7652,-0.6261
2855,-0.4598,-9.1586,-2.3375,4.0348,0.9043,-0.487
2860,-0.3832,-9.3118,-2.2992,4.0348,0.8348,-0.4174
2865,-0.3832,-9.2352,-2.3375,4.0348,0.7652,-0.3478
2870,-0.4215,-9.3502,-2.3375,4.1043,0.7652,-0.487
2875,-0.3832,-9.3118,-2.2226,4.2435,0.7652,-0.487
2880,-0.4215,-9.2735,-2.2226,4.3826,0.7652,-0.3478
2885,-0.3832,-9.2352,-2.1459,4.4522,0.7652,-0.3478
2890,-0.3832,-9.1969,-2.1076,4.5217,0.7652,-0.2783
2895,-0.4598,-9.3502,-2.2992,4.6609,0.6957,-0.1391
2900,-0.4215,-9.3118,-2.1843,4.5913,0.7652,-0.0696
2905,-0.3449,-9.2735,-1.9927,4.5217,0.8348,0.0
2910,-0.2682,-9.2735,-2.031,4.5217,0.7652,0.0
2915,-0.3832,-9.1586,-2.2226,4.4522,0.8348,0.0
2920,-0.3832,-9.1969,-2.0693,4.3826,0.6957,0.0696
2925,-0.4215,-9.2352,-2.1843,4.313,0.6261,-0.1391
2930,-0.4598,-9.2735,-2.1459,4.3826,0.487,-0.2087
2935,-0.3066,-9.1969,-2.2226,4.2435,0.4174,-0.2087
2940,-0.3832,-9.2352,-2.2609,4.1043,0.4174,-0.2783
2945,-0.3832,-9.3118,-2.1843,4.1043,0.3478,-0.4174
2950,-0.3832,-9.2735,-2.1076,4.0348,0.3478,-0.3478
2955,-0.3449,-9.2352,-2.1843,3.9652,0.3478,-0.487
2960,-0.3066,-9.1969,-2.2609,3.9652,0.4174,-0.487
2965,-0.6514,-9.4268,-1.8777,4.0348,0.4174,-0.487
2970,-0.3449,-9.3885,-2.1459,4.1043,0.487,-0.5565
2975,-0.2682,-9.2352,-2.1459,4.1739,0.487,-0.5565
2980,-0.4215,-9.3118,-2.2226,4.313,0.6957,-0.5565
2985,-0.4982,-9.3502,-2.1843,4.313,0.7652,-0.6957
2990,-0.3832,-9.3885,-2.1459,4.313,0.9043,-0.5565
2995,-0.3832,-9.1969,-2.2609,4.2435,0.9739,-0.6957
