timestamp,accX,accY,accZ,gyroX,gyroY,gyroZ
0,-0.2682,-0.1916,-0.1916,27.9652,-11.4783,-4.1739
5,-0.2299,0.843,-0.2682,30.1217,-12.1739,-3.8957
10,-0.4215,1.4945,-0.2682,28.8,-12.9391,-3.1304
15,-0.1916,1.9927,-0.3066,24.6957,-13.4957,-2.713
20,-0.1916,2.1076,-0.0383,18.5739,-13.0783,-3.2
25,-0.4215,1.8394,0.4598,11.8957,-11.8261,-3.3391
30,-0.4982,1.3795,0.958,6.0522,-10.2261,-3.1304
35,-0.4982,0.9963,0.7664,2.1565,-9.5304,-2.9217
40,-0.6514,0.5748,1.1113,-0.1391,-9.8783,-2.5739
45,-0.7281,0.1533,1.0346,-0.9043,-10.6435,-2.2261
50,-0.6514,-0.1533,0.958,-0.6957,-11.9652,-1.7391
55,-0.6131,-0.1916,1.2263,0.487,-13.7739,-1.4609
60,-0.4982,-0.2299,1.0346,2.4348,-15.6522,-1.2522
65,-0.5365,-0.1533,0.9963,4.1739,-16.9043,-0.7652
70,-0.3832,0.0,0.7664,5.7043,-17.7391,-0.1391
75,-0.2682,-0.0766,0.7664,6.9565,-18.4348,0.0696
80,-0.1533,0.0383,0.4215,8.0,-19.2,0.4174
85,-0.0383,0.115,0.3449,9.0435,-19.687,0.6261
90,0.0,0.3066,-0.0766,9.8087,-19.8957,0.487
95,-0.0766,0.4215,-0.3066,9.9478,-19.687,0.2087
100,-0.115,0.3449,-0.7664,9.8087,-19.5478,0.0696
105,-0.0766,0.1916,-0.9197,9.4609,-19.4783,0.1391
110,-0.1533,0.1916,-1.073,9.3913,-19.5478,0.2087
115,-0.1916,-0.0383,-1.3795,9.6696,-19.8261,0.2087
120,-0.3832,0.0383,-1.3412,10.087,-20.1739,0.487
125,-0.1533,-0.3066,-1.2646,10.7826,-20.8,1.2522
130,-0.0383,-0.4598,-1.1113,11.8957,-21.4957,1.8783
135,0.0766,-0.5748,-0.9963,13.7739,-21.7043,2.4348
140,0.0,-0.6131,-0.958,16.0696,-21.3565,2.9913
145,0.0,-0.4215,-0.9963,18.6435,-21.0783,3.8957
150,-0.115,-0.3066,-0.9197,20.9391,-20.6609,5.0087
155,-0.1533,0.0383,-1.1496,22.3304,-20.1043,6.6783
160,0.0,0.0383,-2.1076,21.7739,-22.4696,7.5826
165,0.3449,0.0383,-4.062,15.0957,-31.6522,4.7304
170,-0.115,-0.0383,-6.2462,-3.2,-36.5217,-1.2522
175,-0.4598,-1.4562,-6.8593,-35.4783,-31.1652,-5.3565
180,-0.1916,-3.5255,-6.936,-76.0348,-20.5913,-4.3826
185,0.3449,-6.821,-6.0929,-114.2261,-11.0609,-1.2522
190,0.3832,-10.0399,-6.0929,-143.9304,-4.4522,0.9739
195,-0.9963,-12.9139,-7.0126,-169.113,-0.1391,0.9043
200,-2.7207,-16.4394,-7.5108,-181.913,2.5043,-0.3478
205,-2.8357,-19.1602,-6.821,-186.6435,2.9217,-0.5565
210,-1.5711,-22.8772,-4.5218,-184.8348,-0.2783,1.2522
215,-0.5365,-26.4793,-1.916,-179.2,-3.1304,3.1304
220,-0.5748,-29.7749,-0.1533,-172.2435,0.0,2.5739
225,-0.1533,-31.8442,0.2299,-160.6957,8.487,1.6
230,0.1533,-32.5339,1.1113,-137.3217,14.5391,2.6435
235,0.2299,-34.45,-0.2299,-98.4348,11.5478,4.8696
240,0.7281,-35.5229,-1.3412,-57.1826,-0.6261,8.3478
245,2.3759,-34.3733,-0.6514,-27.4783,-15.1652,14.6783
250,3.947,-33.8368,-2.0693,6.3304,-23.3043,18.7826
255,4.6368,-31.9208,-3.832,40.6261,-18.8522,17.3217
260,3.7171,-29.6599,-4.0236,64.6957,-3.9652,13.5652
265,1.4179,-28.1654,-4.9433,73.9478,13.913,7.7913
270,-0.958,-27.3607,-2.9123,70.3304,25.5304,-2.5739
275,-2.7974,-27.0158,-1.1496,59.2696,28.5913,-18.5739
280,-4.5601,-25.9812,1.8777,47.7217,25.0435,-37.0783
285,-5.4032,-24.5633,2.3375,42.5739,15.7913,-49.7391
290,-4.062,-22.8389,2.7974,47.4435,3.8261,-50.713
295,-2.6824,-21.8809,2.5291,60.5217,-5.7043,-42.9217
300,-2.0693,-20.0798,2.0693,77.1478,-10.5043,-30.9565
305,-1.2263,-18.7386,0.958,92.6609,-10.7826,-16.4174
310,-0.4982,-16.6693,0.4598,104.487,-9.2522,-1.2522
315,0.2682,-14.4468,-0.5365,113.3913,-7.4435,10.9217
320,0.3066,-12.9139,-1.3795,119.2348,-5.9826,18.2261
325,0.7281,-11.8793,-1.8394,123.4783,-5.0087,20.8696
330,0.4215,-10.4998,-2.3759,125.8435,-4.1739,20.2435
335,0.5365,-8.7754,-3.2955,126.3304,-2.9217,19.0609
340,0.7664,-6.6294,-3.3339,124.2435,-1.7391,18.087
345,0.7281,-4.9816,-3.7554,117.7739,-0.6957,17.2522
350,0.6514,-4.2152,-5.5181,108.0348,1.2522,16.487
355,1.1879,-2.5291,-4.8284,94.7478,4.313,14.6783
360,0.9197,-1.3795,-5.0966,77.4957,7.5826,10.9913
365,1.1496,-0.7664,-4.8667,57.0435,10.8522,5.4957
370,0.6514,-0.4215,-4.2152,34.087,14.4696,-1.113
375,0.0383,-0.6898,-3.5638,10.6435,18.4348,-7.9304
380,-0.6898,-0.9197,-2.989,-10.7826,21.9826,-14.2609
385,-1.3029,-1.9543,-2.6058,-29.287,23.7217,-18.6435
390,-1.7627,-2.5675,-1.8011,-44.5217,22.9565,-21.287
395,-2.2609,-3.5255,-1.3795,-56.4174,19.9652,-22.6087
400,-2.5291,-4.1003,-1.1496,-65.0435,16.0,-22.7478
405,-2.4908,-5.0583,-0.7281,-70.6087,12.4522,-21.287
410,-2.6058,-5.7097,-0.4215,-73.3913,9.4609,-19.3391
415,-2.6824,-6.4761,-0.2299,-73.9478,6.887,-16.7652
420,-2.7591,-7.0509,-0.115,-72.9043,4.2435,-13.287
425,-2.5291,-7.3575,-0.0766,-69.8435,1.4609,-9.113
430,-2.4142,-7.5108,-0.1533,-65.3913,-0.9739,-5.0783
435,-2.1459,-7.779,-0.115,-59.6174,-2.713,-1.3913
440,-1.8011,-7.8557,-0.2299,-52.5217,-4.0348,1.8087
445,-1.8011,-7.9323,-0.3066,-45.2174,-4.9391,4.8
450,-1.2646,-7.9706,-0.3066,-39.3043,-6.2609,7.1652
455,-0.7664,-7.7024,-0.958,-35.1304,-7.9304,8.6261
460,-0.958,-7.7024,-0.6514,-33.2522,-9.6,8.8348
465,-0.6514,-8.0473,-0.6131,-33.3913,-11.1304,8.0
470,-0.3832,-8.3538,-0.843,-35.0609,-12.4522,6.0522
475,-0.2299,-8.737,-0.8047,-37.9826,-13.8435,3.2696
480,0.0383,-9.4268,-0.7664,-41.2522,-14.7478,0.3478
485,0.0,-10.0016,-0.5365,-44.1043,-15.0957,-2.9913
490,0.0766,-11.0746,-0.4982,-45.913,-14.9565,-6.2609
495,0.115,-11.4578,-0.3066,-46.1913,-15.0957,-8.9739
500,0.1916,-12.3391,-0.1916,-44.6609,-15.3043,-10.9913
505,0.1533,-12.9906,-0.2299,-41.113,-15.0261,-12.0348
510,0.3066,-13.7953,-0.2682,-35.687,-14.4,-12.1739
515,0.0766,-14.0636,-0.3066,-29.3565,-14.1217,-11.3391
520,0.0766,-14.2935,-0.2682,-21.9826,-14.2609,-9.6696
525,0.0383,-14.4084,-0.1533,-13.2174,-15.1652,-7.1652
530,0.1533,-14.1785,0.0,-3.687,-16.0,-4.1739
535,0.2299,-13.7187,-0.115,6.3304,-16.4174,-1.2522
540,0.0383,-12.9906,-0.2682,16.4174,-16.3478,1.113
545,-0.0766,-12.2242,-0.3066,25.8783,-16.0696,2.713
550,0.0,-11.1512,-0.6514,34.4348,-15.9304,3.3391
555,-0.1533,-9.81,-0.9197,40.9043,-16.3478,3.2696
560,-0.1533,-8.6604,-1.2646,44.7304,-16.9043,3.1304
565,0.1533,-7.779,-1.5328,45.4261,-17.2522,2.8522
570,0.1533,-7.2809,-1.4945,43.3391,-16.9043,2.4348
575,0.0766,-6.7827,-1.6861,39.0261,-16.0,2.0174
580,0.1533,-6.6294,-1.4945,33.113,-14.6783,1.7391
585,0.1533,-6.5145,-1.5711,26.713,-13.4957,1.2522
590,0.1916,-6.7444,-1.5328,20.1043,-12.1043,0.6957
595,0.0766,-6.9743,-1.4179,14.3304,-11.0609,0.0696
600,-0.0766,-7.3192,-1.1113,9.6,-10.2261,-0.2087
605,-0.0766,-7.6641,-1.2263,5.913,-9.6696,-0.4174
610,-0.1533,-8.2005,-1.2263,2.9913,-9.3913,-0.6261
615,-0.1916,-8.4688,-1.1113,0.1391,-9.5304,-0.6261
620,-0.1916,-8.852,-1.1879,-2.5043,-9.3913,-0.6261
625,-0.1533,-9.4651,-1.073,-4.8696,-9.113,-0.5565
630,-0.3449,-9.7334,-0.7281,-6.6087,-8.8348,-0.2087
635,-0.1916,-10.0399,-0.5748,-7.1652,-8.5565,0.2783
640,-0.1533,-10.2698,-0.3066,-6.1913,-8.6261,0.8348
645,-0.115,-10.4614,-0.3449,-3.8261,-9.0435,1.3913
650,0.115,-10.3848,-0.3066,-0.9043,-9.4609,1.9478
655,0.115,-10.3848,-0.3449,1.8087,-9.6696,2.087
660,0.4982,-10.1549,-0.3832,4.0348,-9.3217,2.4348
665,0.5365,-9.925,-0.6898,5.5652,-8.7652,2.6435
670,0.6898,-9.8483,-0.5748,6.6783,-7.9304,2.6435
675,0.7664,-9.5034,-0.4982,7.3043,-7.1652,2.6435
680,0.9197,-9.4268,-0.7664,7.5826,-6.2609,2.5043
685,1.1879,-9.3885,-0.8047,7.4435,-5.0783,2.2261
690,1.073,-9.3502,-0.8814,6.887,-3.7565,1.7391
695,1.0346,-9.1586,-0.7664,6.0522,-2.3652,1.3217
700,1.1113,-9.3118,-0.8047,5.0087,-0.9739,0.6957
705,0.958,-9.2735,-1.1113,3.7565,0.3478,0.2087
710,0.8047,-9.2352,-0.8814,2.5043,1.5304,-0.1391
715,0.7664,-9.3885,-0.9963,1.3217,2.713,-0.1391
720,0.6898,-9.2735,-0.958,0.2783,3.6174,-0.1391
725,0.8047,-9.5034,-0.7664,-0.3478,4.3826,-0.2087
730,0.7281,-9.3885,-0.9963,-0.487,5.1478,-0.0696
735,0.843,-9.5801,-0.7664,-0.6261,6.1913,-0.0696
740,0.6898,-9.4651,-0.8047,-0.3478,7.5826,0.0696
745,0.6898,-9.5801,-0.843,0.2087,8.9739,-0.2783
750,0.3449,-9.5418,-0.9197,1.113,10.0174,-0.2087
755,0.3066,-9.5034,-0.8047,1.8783,10.5043,-0.4174
760,0.3066,-9.3885,-0.843,2.4348,10.7826,-0.6261
765,0.1533,-9.2735,-0.7281,2.7826,11.2696,-0.8348
770,0.0,-9.3502,-0.7664,2.8522,11.687,-0.9739
775,0.0,-9.3502,-0.6898,2.713,11.8261,-1.113
780,0.0,-9.3502,-0.7281,2.4348,11.8957,-1.1826
785,-0.115,-9.4268,-0.7281,2.0174,11.8957,-1.4609
790,0.0,-9.6184,-0.6131,1.4609,12.1043,-1.6696
795,-0.0766,-9.5801,-0.7664,1.1826,12.4522,-1.8087
800,-0.115,-9.6567,-0.4982,1.3913,12.5913,-1.8087
805,0.0,-9.695,-0.5748,2.0174,12.313,-1.9478
810,-0.0766,-9.7334,-0.6898,3.1304,11.9652,-1.9478
815,-0.0383,-9.5801,-0.4215,4.5217,11.4783,-1.8783
820,-0.0383,-9.7334,-0.6514,5.8435,11.2,-1.8783
825,-0.1533,-9.6567,-0.8047,6.8174,11.1304,-1.5304
830,-0.0766,-9.5418,-0.6514,7.5826,10.9217,-1.3913
835,-0.0766,-9.5034,-0.6514,7.7913,10.7826,-1.113
840,-0.0766,-9.5801,-0.843,7.9304,10.4348,-0.7652
845,-0.115,-9.5418,-0.8814,7.7913,10.087,-0.487
850,-0.1533,-9.5034,-0.8047,8.0,9.7391,-0.487
855,-0.1533,-9.2735,-0.8047,7.9304,9.2522,-0.4174
860,-0.2682,-9.3118,-0.7664,7.7913,8.5565,-0.2087
865,-0.1533,-9.2735,-0.8814,7.513,8.2087,-0.2087
870,-0.1533,-9.2352,-1.073,6.9565,7.9304,-0.0696
875,-0.2299,-9.2735,-0.8814,6.2609,7.4435,0.0
880,-0.3066,-9.1969,-1.2646,5.6348,7.0261,0.0696
885,-0.3066,-9.0819,-0.8814,5.0087,6.6087,0.1391
890,-0.1533,-9.0819,-0.9963,4.3826,6.1217,0.1391
895,-0.1533,-9.1586,-1.073,3.2696,5.8435,-0.0696
900,-0.115,-9.0819,-0.9963,2.087,5.6348,-0.2087
905,-0.1533,-9.1586,-0.958,0.8348,5.2174,-0.5565
910,-0.1916,-9.2352,-0.8814,-0.2783,4.9391,-0.6957
915,-0.115,-9.3502,-0.843,-1.0435,4.8,-0.7652
920,-0.115,-9.3502,-1.0346,-1.4609,4.5913,-0.9043
925,-0.0766,-9.3885,-0.8047,-1.6696,4.5913,-1.113
930,0.0766,-9.3118,-0.9197,-1.7391,4.4522,-1.1826
935,-0.0766,-9.1586,-0.9197,-2.0174,4.4522,-1.3217
940,0.0766,-9.3885,-0.958,-2.1565,4.5913,-1.4609
945,0.1533,-9.4268,-1.0346,-2.3652,4.8696,-1.6
950,0.2682,-9.5801,-1.073,-2.3652,4.9391,-1.7391
955,0.0766,-9.4268,-1.0346,-2.2957,5.1478,-2.2261
960,0.115,-9.4268,-0.8814,-1.9478,5.3565,-2.5043
965,0.1916,-9.4268,-0.958,-1.8087,5.3565,-2.9913
970,0.0766,-9.4651,-0.843,-1.8783,5.287,-3.2
975,0.1533,-9.5418,-0.9963,-2.2261,5.3565,-3.2696
980,0.115,-9.6567,-0.9963,-2.6435,5.7043,-3.3391
985,-0.0383,-9.6567,-0.8814,-2.4348,6.0522,-3.4087
990,-0.115,-9.695,-1.0346,-2.1565,6.1913,-3.1304
995,-0.1533,-9.5418,-1.1113,-1.6,6.2609,-2.713
1000,-0.115,-9.6567,-1.073,-0.9043,6.1217,-2.5043
1005,-0.115,-9.5801,-1.1879,-0.2783,5.9826,-2.2261
1010,-0.1533,-9.5418,-1.0346,0.2087,5.7739,-2.2261
1015,-0.0766,-9.5034,-1.073,0.4174,5.6348,-2.2957
1020,-0.1533,-9.4268,-1.1496,0.5565,5.4957,-2.3652
1025,-0.1916,-9.5418,-1.3795,0.6261,5.4261,-2.3652
1030,-0.1533,-9.5418,-1.0346,0.4174,5.2174,-2.4348
1035,-0.2299,-9.5418,-1.1879,0.2087,4.8,-2.3652
1040,-0.1916,-9.4268,-0.9963,0.0,4.5217,-2.4348
1045,-0.115,-9.5418,-1.073,-0.2783,4.2435,-2.4348
1050,-0.2682,-9.5034,-1.073,-0.4174,4.2435,-2.5043
1055,-0.2299,-9.3885,-1.2263,-0.2087,4.1043,-2.1565
1060,-0.3832,-9.5034,-1.1496,-0.0696,3.7565,-1.8783
1065,-0.2299,-9.4651,-1.2263,0.2783,3.4783,-1.6
1070,-0.1533,-9.4651,-1.1496,0.5565,3.0609,-1.2522
1075,-0.1916,-9.3502,-1.073,0.7652,2.713,-1.0435
1080,-0.3066,-9.4268,-1.0346,0.9043,2.5043,-0.7652
1085,-0.2682,-9.4268,-0.9963,0.9043,2.4348,-0.5565
1090,-0.2682,-9.6184,-0.9197,0.9043,2.0174,-0.3478
1095,-0.0766,-9.0819,-0.5748,1.0435,1.6696,-0.487
1100,-0.1533,-9.6184,-1.0346,1.1826,1.4609,-0.6957
1105,-0.1533,-9.6184,-0.7664,1.6,1.3913,-0.8348
1110,-0.1533,-9.7717,-0.843,2.087,1.4609,-0.9739
1115,-0.2682,-9.6184,-0.843,2.6435,1.3217,-0.9043
1120,-0.1533,-9.695,-0.8814,3.2696,1.2522,-1.113
1125,-0.1533,-9.5418,-0.8814,3.8261,1.1826,-0.9739
1130,-0.115,-9.5801,-0.7664,4.1043,1.2522,-0.8348
1135,-0.115,-9.5801,-0.8047,4.3826,1.3217,-0.5565
1140,-0.115,-9.6184,-1.073,4.8,1.5304,-0.487
1145,0.1916,-9.4651,-0.7281,5.287,1.5304,-0.2783
1150,-0.115,-9.4651,-0.9197,5.913,1.5304,-0.2087
1155,-0.0383,-9.4651,-0.9197,6.4696,1.5304,-0.2783
1160,-0.0766,-9.4268,-0.9197,6.887,1.5304,-0.3478
1165,-0.115,-9.4651,-0.8814,6.887,1.5304,-0.6261
1170,-0.115,-9.5801,-0.9963,6.8174,1.6696,-0.6261
1175,-0.115,-9.5034,-0.958,6.6783,1.7391,-0.5565
1180,-0.1533,-9.4651,-0.958,6.8174,1.8783,-0.6957
1185,-0.0383,-9.5418,-1.1113,6.8174,1.9478,-0.4174
1190,-0.1533,-9.5801,-1.1113,6.9565,1.8087,-0.4174
1195,-0.0766,-9.5418,-0.9197,7.0261,1.7391,-0.3478
1200,-0.115,-9.5801,-1.0346,7.1652,1.7391,-0.3478
1205,-0.115,-9.3885,-0.9963,7.0957,1.6696,-0.2783
1210,-0.115,-9.5801,-1.3029,7.0957,1.6696,-0.3478
1215,-0.115,-9.4268,-1.0346,7.0261,1.7391,-0.2783
1220,-0.115,-9.3885,-1.073,7.0957,1.8783,-0.2783
1225,-0.1533,-9.4651,-0.958,7.1652,1.8087,-0.0696
1230,-0.115,-9.3502,-1.1113,7.2348,1.6,0.0
1235,-0.0383,-9.5034,-1.1496,7.2348,1.3217,-0.1391
1240,-0.0383,-9.5034,-0.9197,7.0261,1.4609,0.0
1245,0.0383,-9.3885,-0.9963,6.4696,1.6696,-0.2087
1250,-0.0383,-9.3502,-1.1113,5.9826,1.7391,-0.3478
1255,-0.0766,-9.3118,-0.958,5.6348,1.7391,-0.6261
1260,0.0383,-9.4268,-0.958,5.3565,1.6,-0.9043
1265,-0.0383,-9.4651,-1.0346,5.0783,1.6,-1.1826
1270,0.0383,-9.4651,-0.958,5.0087,1.8087,-1.2522
1275,-0.0383,-9.3502,-0.8814,4.9391,1.8087,-1.3913
1280,-0.0766,-9.4268,-1.1113,4.9391,1.8783,-1.3913
1285,-0.115,-9.3885,-1.1879,5.2174,1.9478,-1.3217
1290,-0.115,-9.4268,-1.0346,5.287,2.0174,-1.2522
1295,-0.1916,-9.4651,-0.958,5.4261,1.8783,-1.113
1300,-0.2299,-9.3885,-0.958,5.4261,1.8087,-1.0435
1305,-0.2299,-9.3885,-0.9963,5.4261,1.9478,-0.9739
1310,-0.2299,-9.4651,-0.9963,5.4957,2.0174,-0.7652
1315,-0.1916,-9.4268,-0.9963,5.5652,2.1565,-0.7652
1320,-0.1533,-9.3885,-0.9197,5.7043,2.0174,-0.7652
1325,-0.1533,-9.3885,-0.9197,5.7043,1.9478,-0.6261
1330,-0.1533,-9.3885,-0.9197,5.7739,1.8783,-0.6957
1335,-0.1533,-9.4651,-0.958,5.6348,1.8087,-0.6957
1340,-0.115,-9.3885,-1.073,5.5652,1.8087,-0.7652
1345,-0.115,-9.2735,-1.073,5.4957,1.9478,-0.6957
1350,-0.115,-9.5034,-1.073,5.287,2.087,-0.9043
1355,-0.0383,-9.5418,-0.9963,5.0087,2.087,-1.0435
1360,-0.115,-9.4268,-0.9197,4.8696,1.9478,-1.0435
1365,-0.0766,-9.5034,-0.9963,4.6609,1.9478,-1.2522
1370,-0.0766,-9.3502,-0.9963,4.4522,2.2957,-1.113
1375,-0.115,-9.4268,-1.073,4.313,2.713,-1.2522
1380,-0.115,-9.3885,-0.8814,4.3826,2.8522,-1.3217
1385,-0.0766,-9.3885,-1.0346,4.5217,2.9217,-1.2522
1390,-0.0766,-9.3885,-1.1113,4.5913,2.9217,-1.1826
1395,-0.0766,-9.3885,-1.073,4.3826,3.0609,-1.1826
1400,-0.0766,-9.3118,-0.958,4.0348,3.0609,-0.9739
1405,-0.115,-9.4651,-0.9197,3.4783,3.2696,-1.0435
1410,-0.1916,-9.3502,-0.9963,2.9913,3.4087,-0.9739
1415,-0.0766,-9.5801,-0.8814,2.713,3.6174,-1.0435
1420,-0.0766,-9.5801,-1.073,2.6435,3.6174,-1.113
1425,-0.1533,-9.5034,-1.0346,2.7826,3.6174,-1.3217
1430,-0.115,-9.5034,-0.9963,2.9217,3.6174,-1.4609
1435,-0.1533,-9.5801,-0.8814,3.1304,3.8261,-1.5304
1440,-0.1533,-9.4651,-1.1113,3.2696,3.7565,-1.3913
1445,-0.1916,-9.6184,-1.0346,3.3391,3.6174,-1.3913
1450,-0.2299,-9.4268,-1.0346,3.6174,3.5478,-1.3913
1455,-0.1533,-9.3502,-1.0346,3.8261,3.4087,-1.3217
1460,-0.1533,-9.4268,-1.073,3.8957,3.4783,-1.1826
1465,-0.1916,-9.4268,-1.2263,3.9652,3.4087,-1.1826
1470,-0.1533,-9.4268,-1.073,3.8261,3.3391,-1.1826
1475,-0.1533,-9.3885,-1.2263,3.7565,3.3391,-1.1826
1480,-0.2299,-9.4268,-1.1113,3.3391,3.2696,-1.0435
1485,-0.3066,-9.4268,-1.2263,2.9913,3.2,-1.113
1490,-0.1916,-9.4651,-1.0346,2.6435,3.3391,-1.113
1495,-0.1916,-9.3502,-1.0346,2.3652,3.2,-1.1826
1500,-0.1533,-9.4651,-0.9963,2.2261,3.0609,-1.3217
1505,-0.1533,-9.6184,-0.9963,2.087,3.0609,-1.5304
1510,-0.0383,-9.6184,-0.8814,2.1565,3.0609,-1.5304
1515,-0.1533,-9.4651,-0.9197,2.2957,3.2,-1.7391
1520,-0.115,-9.5034,-0.8814,2.6435,3.2,-1.7391
1525,-0.1533,-9.4651,-1.073,3.2,3.1304,-1.6
1530,-0.1533,-9.4651,-0.9197,3.687,3.0609,-1.3913
1535,-0.1533,-9.3885,-1.1496,3.8957,2.9913,-1.3217
1540,-0.1533,-9.3502,-1.073,3.9652,2.9217,-1.2522
1545,-0.1533,-9.4268,-1.1113,3.8261,2.8522,-1.113
1550,-0.1533,-9.4268,-0.9963,3.687,2.713,-0.9043
1555,-0.2682,-9.3885,-1.073,3.4087,2.5043,-0.8348
1560,-0.2682,-9.3118,-1.1113,3.3391,2.2957,-0.8348
1565,-0.1533,-9.5034,-1.1496,3.2696,2.2261,-0.8348
1570,-0.1533,-9.4651,-1.0346,3.2696,2.0174,-0.7652
1575,-0.2299,-9.5034,-0.9963,3.4087,1.6696,-0.7652
1580,-0.115,-9.4651,-1.0346,3.4783,1.5304,-0.7652
1585,-0.1533,-9.4268,-0.9197,3.4783,1.3913,-1.0435
1590,-0.115,-9.5034,-1.0346,3.6174,1.3217,-1.113
1595,-0.0383,-9.4651,-0.9963,3.6174,1.0435,-1.113
1600,-0.1916,-9.4268,-0.958,3.6174,0.8348,-1.3217
1605,-0.1916,-9.4268,-0.958,3.4783,0.9739,-1.2522
1610,-0.2299,-9.4268,-0.8814,3.3391,1.0435,-1.113
1615,-0.0383,-9.5034,-0.958,3.3391,1.0435,-0.9739
1620,-0.0766,-9.4651,-1.1113,3.3391,0.9043,-0.9739
1625,-0.0766,-9.4268,-1.1496,3.2696,0.7652,-0.8348
1630,-0.1916,-9.3885,-1.073,3.2696,0.9043,-0.8348
1635,-0.1533,-9.4651,-1.1496,3.2696,0.7652,-0.7652
1640,-0.0383,-9.5418,-1.1496,3.4087,0.6261,-0.7652
1645,-0.1533,-9.4651,-1.1879,3.4783,0.4174,-0.6261
1650,-0.2299,-9.3118,-1.073,3.687,0.3478,-0.5565
1655,-0.0383,-9.5418,-0.958,3.687,0.2783,-0.487
1660,-0.1916,-9.3502,-1.073,3.687,0.2087,-0.6261
1665,-0.1533,-9.3502,-1.1879,3.6174,0.0696,-0.6261
1670,-0.0766,-9.4268,-0.9197,3.4087,0.2087,-0.5565
1675,-0.1533,-9.4651,-1.073,3.1304,0.1391,-0.5565
1680,-0.0766,-9.5034,-1.1113,2.9217,0.0696,-0.487
1685,-0.1916,-9.4651,-1.1113,2.713,0.1391,-0.487
1690,-0.0766,-9.4651,-0.9197,2.5043,-0.0696,-0.5565
1695,-0.0766,-9.4651,-1.1113,2.5739,-0.2087,-0.5565
1700,-0.115,-9.4651,-1.1113,2.4348,-0.2783,-0.5565
1705,-0.1533,-9.4268,-1.073,2.2957,-0.3478,-0.6261
1710,-0.1533,-9.3118,-1.1496,2.2261,-0.4174,-0.4174
1715,-0.1533,-9.5034,-1.2263,2.0174,-0.4174,-0.5565
1720,-0.2682,-9.5034,-1.2263,1.7391,-0.5565,-0.2783
1725,-0.1916,-9.3502,-1.2646,1.6696,-0.6957,-0.0696
1730,-0.4215,-9.3502,-1.2263,1.6696,-0.6957,0.1391
1735,-0.3066,-9.3502,-1.2646,1.6696,-1.113,0.487
1740,-0.4598,-9.3502,-1.1879,1.4609,-1.3217,0.8348
1745,-0.6131,-9.3118,-1.1113,1.2522,-1.4609,1.2522
1750,-0.5748,-9.4268,-1.2646,0.9043,-1.7391,1.6
1755,-0.4982,-9.5034,-1.073,0.487,-2.0174,1.8783
1760,-0.5365,-9.4651,-1.0346,0.2087,-2.5043,2.087
1765,-0.5748,-9.5801,-1.0346,0.0696,-2.9217,2.1565
1770,-0.5365,-9.6567,-0.9197,0.2087,-3.4783,2.3652
1775,-0.3449,-9.6567,-0.958,0.5565,-3.9652,2.3652
1780,-0.3066,-9.695,-0.843,1.0435,-4.4522,2.2957
1785,-0.1533,-9.6184,-0.958,1.9478,-4.6609,2.2261
1790,-0.115,-9.5801,-1.073,2.6435,-4.8696,2.1565
1795,-0.115,-9.5418,-0.958,3.3391,-4.8696,2.2261
1800,0.0383,-9.5418,-1.1496,3.687,-4.7304,2.1565
1805,-0.0383,-9.5034,-1.073,3.8261,-4.313,2.0174
1810,0.0,-9.4651,-1.1113,3.9652,-3.7565,1.8087
1815,-0.0383,-9.4651,-1.073,4.1043,-3.1304,1.7391
1820,-0.0766,-9.5034,-0.9197,3.9652,-2.5739,1.4609
1825,0.0,-9.4651,-1.073,3.6174,-2.1565,1.2522
1830,-0.1533,-9.5034,-0.9963,3.2696,-1.6696,0.9043
1835,0.0383,-9.4651,-0.8047,2.9217,-1.113,0.7652
1840,-0.115,-9.4651,-0.958,2.5739,-0.487,0.487
1845,-0.0766,-9.3885,-0.843,2.1565,0.0696,0.4174
1850,0.115,-9.3885,-0.9197,1.8783,0.5565,0.3478
1855,0.0,-9.3118,-0.9197,1.7391,0.8348,0.4174
1860,-0.0766,-9.5034,-0.7281,1.4609,1.0435,0.3478
1865,0.0,-9.5034,-0.8814,1.3217,1.2522,0.1391
1870,0.0,-9.4268,-0.8047,1.2522,1.6,0.0696
1875,-0.0383,-9.5034,-0.9963,1.1826,2.0174,-0.2087
1880,0.115,-9.5801,-0.9197,1.2522,2.2957,-0.4174
1885,0.0766,-9.7334,-1.1113,1.3217,2.6435,-0.6261
1890,0.0766,-9.6567,-0.8814,1.6,2.713,-0.8348
1895,0.115,-9.695,-0.9197,1.8087,2.8522,-0.9739
1900,0.0766,-9.7334,-1.0346,2.087,3.2,-1.2522
1905,0.0,-9.7334,-0.6898,2.5043,3.4783,-1.2522
1910,0.115,-9.7717,-0.7664,3.0609,3.687,-1.3913
1915,-0.0383,-9.7334,-0.843,3.7565,3.8261,-1.5304
1920,0.0383,-9.695,-0.7664,4.3826,3.8957,-1.5304
1925,-0.0766,-9.6567,-0.8047,5.0087,3.8957,-1.5304
1930,0.0,-9.695,-0.7664,5.5652,3.7565,-1.4609
1935,0.0383,-9.7717,-0.6131,5.9826,3.687,-1.3913
1940,0.0,-9.7334,-0.5365,6.2609,3.687,-1.5304
1945,-0.0383,-9.6184,-0.7664,6.8174,3.4783,-1.8087
1950,-0.115,-9.695,-0.6898,7.3739,3.2,-1.9478
1955,-0.0383,-9.5418,-0.6514,8.0696,2.8522,-1.8783
1960,-0.1916,-9.4651,-0.6898,8.6261,2.4348,-1.9478
1965,-0.1533,-9.4268,-0.6898,9.0435,2.2261,-1.8087
1970,-0.1533,-9.4268,-0.6514,9.3913,2.1565,-1.7391
1975,-0.1533,-9.4268,-0.7281,9.6696,2.087,-1.6
1980,-0.2682,-9.4651,-0.7664,10.0174,2.0174,-1.5304
1985,-0.1533,-9.5418,-0.8814,10.5043,1.9478,-1.5304
1990,-0.1916,-9.5801,-0.6514,11.2,1.7391,-1.3217
1995,-0.115,-9.6567,-0.6514,11.8261,1.6,-1.3217
2000,-0.1533,-9.81,-0.8047,12.3826,1.3217,-1.0435
2005,-0.1533,-9.6184,-0.8047,13.4261,1.113,-0.9739
2010,-0.115,-9.5034,-0.7664,14.4696,0.8348,-0.8348
2015,0.0383,-9.7334,-0.9197,15.6522,0.5565,-0.7652
2020,-0.0383,-9.695,-0.843,16.9043,0.2783,-0.9739
2025,0.0383,-9.6567,-0.6514,18.087,0.2087,-0.8348
2030,-0.0383,-9.6567,-0.6898,19.687,0.3478,-0.9043
2035,0.0766,-9.6184,-0.6131,21.4261,0.2783,-1.0435
2040,0.0766,-9.695,-0.6514,23.5826,0.2783,-1.0435
2045,-0.0383,-9.6567,-0.6131,25.9478,0.1391,-0.8348
2050,-0.1533,-9.6184,-0.5365,28.5913,-0.2087,-0.7652
2055,-0.1533,-9.7334,-0.6131,31.6522,-0.487,-0.5565
2060,-0.2682,-9.6184,-0.4982,35.0609,-0.6957,-0.487
2065,-0.2299,-9.4268,-0.5748,38.8174,-1.1826,-0.5565
2070,-0.1916,-9.3885,-0.6131,42.9217,-1.7391,-0.6261
2075,-0.2299,-8.967,-0.6898,47.2348,-1.9478,-0.6957
2080,-0.1533,-8.8137,-0.6131,51.8261,-2.2957,-0.8348
2085,-0.115,-8.5071,-0.6898,56.0,-2.6435,-0.9739
2090,-0.115,-8.2005,-0.7281,60.1043,-3.0609,-1.0435
2095,-0.0383,-7.9323,-0.4598,63.7913,-3.1304,-0.9739
2100,0.0,-7.6641,-0.6898,67.4783,-2.9217,-1.0435
2105,0.115,-7.4725,-0.9197,71.4435,-2.4348,-1.1826
2110,0.0766,-7.2042,-0.958,75.8957,-2.0174,-1.3913
2115,0.0383,-6.7827,-1.073,80.6261,-1.8087,-1.8087
2120,-0.0383,-6.4378,-1.1879,85.4957,-1.8783,-2.087
2125,-0.0766,-6.0163,-1.3795,90.6435,-2.4348,-2.1565
2130,-0.0766,-5.4415,-1.4562,96.0696,-2.9913,-2.4348
2135,-0.0383,-5.02,-1.4562,101.287,-3.7565,-3.3391
2140,-0.115,-4.3302,-1.1879,106.0174,-4.5217,-4.5217
2145,-0.3832,-3.832,-1.2646,110.3304,-5.287,-5.7739
2150,-0.6898,-3.2955,-1.1113,113.0435,-5.5652,-6.7478
2155,-0.7281,-2.6058,-0.7664,113.5304,-5.9826,-7.4435
2160,-0.7281,-2.1843,-0.4215,111.6522,-6.4696,-7.6522
2165,-0.5365,-1.9543,-0.1533,107.4783,-6.4,-7.0261
2170,-0.4598,-1.8011,-0.2682,101.0783,-5.1478,-5.4261
2175,-0.1916,-1.7244,-0.1916,93.287,-3.1304,-3.2696
2180,-0.115,-1.8394,0.3449,84.7304,-1.2522,-1.2522
2185,0.0383,-2.031,0.4215,76.7304,-0.2087,0.2783
2190,0.1533,-2.1459,0.6514,68.6609,-0.1391,1.0435
2195,0.1533,-2.3375,0.843,60.5217,-0.7652,0.6261
2200,-0.0766,-2.4142,0.8047,51.9652,-1.3217,-0.2087
2205,-0.2682,-2.6824,0.8047,41.6,-0.9043,-0.487
2210,-0.5365,-3.1423,0.7664,29.1478,1.113,0.0
2215,-0.3449,-3.6787,0.8047,14.9565,3.3391,-0.2087
2220,-0.4982,-4.4068,1.3795,-0.1391,4.313,-1.5304
2225,-0.6514,-5.3265,1.9927,-14.5391,4.8,-2.2957
2230,-0.1916,-6.5528,2.4525,-27.8957,6.0522,-2.3652
2235,-0.115,-7.6641,3.2189,-39.6522,8.0,-1.7391
2240,-0.0766,-8.6987,3.8704,-48.7652,11.1304,-0.9043
2245,0.0383,-9.81,4.1769,-54.0522,15.4435,0.2783
2250,0.3066,-10.9596,4.1003,-55.7913,19.6174,0.7652
2255,0.5365,-11.7643,3.7937,-55.0261,22.6087,0.9739
2260,1.1879,-12.3775,3.1039,-51.4087,23.8609,0.7652
2265,1.7627,-12.7607,2.2992,-45.0783,23.3043,0.487
2270,2.2226,-13.1822,1.2646,-36.1043,21.9826,-0.0696
2275,2.2992,-13.3738,0.5748,-26.2261,20.7304,-0.8348
2280,2.2992,-13.7953,-0.115,-17.1826,20.5217,-2.0174
2285,1.6095,-14.0636,-0.3449,-10.3652,21.7043,-3.8261
2290,0.9197,-14.0636,-0.1916,-5.913,24.1391,-5.8435
2295,-0.0383,-14.0252,0.5365,-3.0609,25.9478,-7.3739
2300,-0.7281,-14.1019,1.4179,-1.9478,25.5304,-7.2348
2305,-1.1496,-14.1785,2.031,-2.5739,22.6783,-6.0522
2310,-1.2646,-14.4851,2.1076,-5.7739,18.713,-5.4261
2315,-1.1496,-14.7533,1.9543,-12.8,15.7913,-5.7739
2320,-1.4179,-15.3281,1.9543,-23.5826,14.9565,-6.4
2325,-1.6095,-16.2478,1.6095,-37.0087,15.1652,-7.2348
2330,-1.8777,-17.3208,1.4945,-51.2,15.3043,-8.0696
2335,-2.2609,-18.6237,1.3029,-64.0696,14.6783,-9.0435
2340,-2.1076,-19.7733,1.5328,-74.713,13.1478,-9.5304
2345,-2.0693,-21.3061,1.5328,-82.9217,10.8522,-9.2522
2350,-1.6861,-22.8772,1.3795,-88.487,8.1391,-8.0696
2355,-0.958,-24.6016,1.4179,-91.4783,5.4261,-6.1913
2360,0.0,-26.3261,1.1879,-92.1739,2.7826,-4.1043
2365,0.8047,-27.514,1.3412,-91.0609,0.6261,-1.6
2370,1.5711,-29.0468,1.4179,-88.2087,-0.4174,0.6957
2375,2.1459,-30.6179,1.4562,-83.687,0.2087,2.2261
2380,2.4525,-31.8059,1.6861,-77.0783,2.0174,2.5043
2385,2.3375,-32.2274,1.916,-68.313,3.7565,1.8087
2390,2.031,-32.5339,2.3375,-57.0435,5.0087,1.113
2395,1.5711,-32.2274,2.6058,-43.6174,4.7304,1.8783
2400,1.4562,-31.6143,2.7207,-29.1478,3.2696,3.9652
2405,1.5711,-30.5796,2.3375,-15.2348,1.4609,5.913
2410,1.6478,-29.545,1.9927,-3.1304,0.2087,6.6087
2415,1.6861,-28.1654,1.1113,6.1217,0.2087,6.0522
2420,1.916,-26.8625,0.4982,12.4522,1.7391,5.0087
2425,2.0693,-25.7129,0.0,16.5565,3.9652,4.3826
2430,2.1076,-24.7166,-0.3832,19.1304,6.6087,3.4087
2435,1.916,-23.7969,-0.7281,22.2609,9.8783,1.7391
2440,1.6095,-22.494,-1.1113,27.2696,12.8696,-0.6957
2445,0.958,-20.9995,-1.8394,34.7826,14.8174,-3.3391
2450,0.2682,-19.2751,-2.6824,43.9652,15.2348,-5.287
2455,-0.1533,-17.589,-3.7554,52.8,13.4261,-5.4957
2460,-0.2682,-16.1329,-4.6368,60.313,9.9478,-4.3826
2465,-0.8047,-14.4851,-5.0583,65.6696,5.6348,-3.2696
2470,-1.073,-12.5307,-5.1732,69.7739,2.0174,-2.9217
2475,-1.4562,-10.8446,-5.02,72.0,0.0,-3.687
2480,-1.5328,-9.1202,-4.1386,70.5391,-0.6957,-5.287
2485,-1.5328,-7.9323,-3.5255,65.8783,-1.5304,-6.8174
2490,-1.5711,-6.3995,-2.6058,58.9913,-3.2,-7.7217
2495,-1.3412,-5.0966,-1.6095,49.9478,-4.8,-6.2609
2500,-0.8814,-4.3685,-0.958,40.4174,-5.4957,-2.2261
2505,-0.3449,-3.6021,-0.2299,33.3913,-4.6609,4.1043
2510,-0.1533,-3.1423,0.0,31.8609,-2.9217,8.4174
2515,-0.0383,-1.8777,0.0383,36.7304,-1.1826,11.0609
2520,-0.1533,-0.4215,-0.3066,47.3043,-0.3478,12.9391
2525,-0.3449,1.1879,-1.5328,61.5652,-1.3913,14.1217
2530,-0.6514,2.5291,-2.2609,75.0609,-5.2174,14.4
2535,-1.1496,3.9853,-4.1003,83.4087,-10.0174,14.2609
2540,-1.3029,5.7097,-5.0966,81.5304,-14.3304,15.1652
2545,-1.0346,7.3575,-5.3265,72.3478,-17.8783,16.5565
2550,-0.7281,9.0436,-5.0583,59.0609,-20.5913,16.2087
2555,-0.5365,9.695,-5.1349,43.9652,-22.1913,13.0783
2560,-1.1113,9.5034,-5.9013,22.7478,-21.6348,8.6957
2565,-1.4945,8.737,-5.2499,-7.513,-18.5739,7.0261
2570,-1.5328,7.1659,-4.2536,-38.8174,-13.4261,7.8609
2575,-1.3412,4.9816,-2.9507,-65.113,-8.6957,8.487
2580,-1.1113,3.2955,-2.4142,-83.5478,-6.887,8.1391
2585,-0.6898,1.1879,-1.4179,-94.7478,-8.2783,7.7217
2590,-0.2299,-0.958,-0.958,-100.8,-11.0609,7.3043
2595,0.1533,-2.7974,-0.4598,-103.7913,-12.4522,6.6783
2600,0.5748,-4.6751,0.3832,-103.2348,-11.4783,6.2609
2605,0.9963,-5.6331,1.0346,-97.113,-9.113,6.2609
2610,1.3795,-6.8593,1.5328,-84.6609,-7.4435,6.3304
2615,1.5711,-7.1276,1.9543,-66.1565,-7.513,5.7043
2620,1.6861,-7.1659,1.7627,-43.687,-8.9043,4.5913
2625,1.6095,-6.2845,1.2263,-20.3826,-10.087,3.2696
2630,1.5711,-5.3648,0.8047,0.6957,-9.4609,1.6
2635,1.2263,-3.9853,0.4215,17.2522,-7.3043,-0.2087
2640,0.8814,-2.2609,-0.115,28.5913,-4.5913,-2.0174
2645,0.115,-0.8814,-0.2299,35.2696,-2.9217,-3.4087
2650,0.0766,0.1916,-0.7281,38.0522,-2.5739,-4.313
2655,-0.2299,1.0346,-0.3449,37.4261,-2.7826,-4.8696
2660,-0.1916,1.5711,-0.3832,34.1565,-2.6435,-5.0783
2665,-0.3449,1.7627,-0.0766,29.4261,-1.6,-5.2174
2670,-0.4982,1.7244,0.2682,25.0435,-0.3478,-5.2174
2675,-0.6898,1.5711,0.4215,22.1217,0.2783,-5.1478
2680,-0.7664,1.2646,0.6898,20.6609,-0.2087,-4.5217
2685,-0.7664,1.1879,0.7664,19.7565,-1.3913,-3.7565
2690,-0.6131,0.7664,0.8047,19.1304,-2.5739,-3.2696
2695,-0.4215,0.3449,0.8047,18.6435,-3.3391,-2.713
2700,-0.2299,0.1533,0.8814,18.8522,-3.2,-2.5043
2705,-0.4598,0.115,0.958,20.0348,-2.713,-2.5043
2710,-0.4982,0.0,0.7664,21.913,-2.713,-2.5043
2715,-0.4598,0.0,0.6514,24.4174,-3.4087,-2.2261
2720,-0.3449,0.0766,0.2682,26.8522,-4.8,-1.8783
2725,-0.2682,0.1916,0.1916,28.9391,-6.3304,-1.4609
2730,-0.3832,0.4982,-0.1533,30.1217,-7.1652,-1.0435
2735,-0.4598,0.5365,-0.3066,29.8435,-7.3739,-0.487
2740,-0.4215,0.6131,-0.5748,27.9652,-6.9565,0.1391
2745,-0.5365,0.6514,-0.843,25.113,-6.7478,0.487
2750,-0.6898,0.5748,-0.7664,21.913,-7.0261,0.8348
2755,-0.6514,0.4598,-1.1496,19.0609,-7.6522,1.3217
2760,-0.5365,0.3449,-1.1113,16.9739,-8.2087,2.0174
2765,-0.1916,0.0383,-1.2646,15.5826,-8.3478,2.4348
2770,-0.0383,-0.2299,-1.1879,15.0261,-7.9304,2.713
2775,-0.1533,-0.2682,-1.0346,15.3043,-7.3043,2.3652
2780,-0.1533,-0.4598,-0.7664,16.4174,-6.9565,1.7391
2785,-0.2682,-0.5365,-0.4982,18.1565,-6.9565,0.9739
2790,-0.3066,-0.5365,-0.6131,19.9652,-7.2348,0.4174
2795,-0.1916,-0.6131,-0.7664,21.913,-7.3739,0.0696
2800,-0.3832,-0.6514,-0.8814,23.513,-7.513,-0.6261
2805,-0.4982,-0.7664,-1.1879,25.1826,-7.8609,-0.9739
2810,-0.4982,-0.7664,-1.2646,27.0609,-8.8348,-1.3913
2815,-0.3066,-0.5748,-1.2263,29.1478,-10.713,-1.9478
2820,-0.0383,-0.4215,-1.2646,30.1913,-13.7043,-2.6435
2825,0.3066,0.0383,-2.2226,28.313,-18.5043,-3.7565
2830,0.3449,0.0,-3.9853,18.3652,-25.3217,-6.887
2835,-0.5748,-0.4215,-6.0929,-4.5913,-29.913,-10.8522
2840,-1.0346,-2.1076,-6.7827,-41.1826,-26.5739,-12.4522
2845,-0.4982,-4.9816,-6.8977,-84.4522,-15.8609,-8.9043
2850,-0.8814,-7.2042,-6.5911,-125.8435,-3.687,-3.8261
2855,-1.8011,-10.0399,-6.2079,-162.1565,5.913,-0.8348
2860,-3.832,-13.2971,-6.3612,-191.7217,10.3652,0.7652
2865,-5.3648,-17.0142,-6.1313,-210.5739,8.2783,1.3913
2870,-5.1349,-20.463,-4.6368,-219.2,-0.0696,4.3826
2875,-2.7591,-24.7166,-1.1879,-219.0609,-10.713,11.1304
2880,0.6131,-28.3187,1.3412,-212.8696,-16.7652,17.8087
2885,3.3339,-31.0778,2.4908,-198.4696,-13.7739,18.0174
2890,5.2499,-32.8788,2.4142,-171.0609,-4.1739,11.5478
2895,5.5948,-34.22,1.3412,-131.687,5.2174,3.9652
2900,6.2079,-35.0631,0.3066,-93.6348,9.5304,1.7391
2905,6.7827,-34.0284,-0.1533,-57.6,7.8609,5.7043
2910,6.1696,-31.9975,-2.6824,-16.2087,6.4696,10.2957
2915,4.9433,-29.315,-6.8977,22.2609,11.2696,11.687
2920,4.7134,-28.2804,-9.8866,42.2957,18.0174,16.4174
2925,4.905,-29.1234,-11.4961,33.8087,25.3913,26.3652
2930,6.2079,-31.8442,-8.852,3.4783,37.2174,32.3478
2935,5.978,-34.4883,-3.0273,-37.0783,54.6783,24.1391
2940,4.5984,-35.6379,4.5218,-71.0261,75.4087,1.6
2945,2.4142,-34.9098,9.3118,-79.5826,90.4348,-24.0
2950,-0.2682,-32.304,12.4541,-52.2435,92.2435,-40.0
2955,-2.2992,-28.8552,12.2242,2.4348,77.0087,-40.9043
2960,-2.874,-25.1381,9.7334,68.0348,51.2,-32.2783
2965,-2.874,-21.4211,5.3265,129.3217,26.0174,-24.3478
2970,-2.8357,-18.6237,2.5675,174.3304,10.3652,-20.2435
2975,-2.7207,-15.0599,-0.4982,199.8609,8.2783,-19.5478
2980,-3.4488,-11.8793,-2.6441,207.8609,16.0696,-19.687
2985,-4.1003,-9.1969,-3.9853,201.5304,26.3652,-18.3652
2990,-4.4452,-7.0509,-4.4835,183.7913,30.887,-14.0522
2995,-4.4068,-5.9013,-4.6751,160.0,26.9913,-8.9739
