timestamp,accX,accY,accZ,gyroX,gyroY,gyroZ
0,-0.3066,-7.5491,-4.4835,84.8,7.7913,-3.8957
5,-0.1916,-7.4725,-4.3302,78.1913,7.1652,-3.4087
10,-0.1916,-7.5491,-4.1003,71.8609,6.6783,-3.0609
15,-0.3066,-7.7407,-4.1003,66.5739,6.5391,-2.6435
20,-0.0383,-7.894,-3.9087,62.5391,6.8174,-2.2261
25,-0.1533,-8.1239,-3.7937,59.687,7.0957,-1.8087
30,-0.115,-8.3538,-3.6404,57.7391,7.6522,-1.7391
35,-0.115,-8.6221,-3.7937,56.6957,8.2783,-1.8087
40,-0.3449,-8.7754,-3.6021,55.9304,8.9043,-2.1565
45,-0.4215,-8.967,-3.6404,55.513,9.1826,-2.5043
50,-0.4215,-9.0436,-3.6021,55.3043,9.0435,-2.9217
55,-0.4215,-9.4268,-3.6787,55.2348,8.8348,-3.2
60,-0.4598,-9.5034,-3.5638,55.1652,8.6261,-3.5478
65,-0.6131,-9.5418,-3.7171,55.3739,8.2783,-3.8957
70,-0.6898,-9.6567,-3.7554,55.8609,7.8609,-4.0348
75,-0.4982,-9.6567,-3.6787,56.9043,7.3043,-4.2435
80,-0.4598,-9.7334,-3.6787,58.2261,7.3739,-4.3826
85,-0.5365,-9.5801,-3.2955,59.8957,7.9304,-4.3826
90,-0.5748,-9.5034,-3.2955,61.6348,8.5565,-4.313
95,-0.6131,-9.5034,-3.4871,63.1652,9.0435,-3.7565
100,-0.6131,-9.4651,-3.2189,63.8609,9.113,-3.2
105,-0.6898,-9.4268,-3.3339,63.7217,8.8348,-2.6435
110,-0.6131,-9.4651,-3.2189,62.8174,8.2783,-2.2261
115,-0.5365,-9.3502,-3.1423,61.287,7.6522,-2.2957
120,-0.4215,-9.4268,-3.0656,59.4087,7.0261,-2.6435
125,-0.3832,-9.3885,-2.874,57.6,6.6087,-3.1304
130,-0.3832,-9.3118,-3.0273,55.9304,6.6783,-3.687
135,-0.3449,-9.1969,-3.0273,54.4,6.8174,-4.4522
140,-0.2682,-9.3502,-2.8357,52.7304,7.3043,-5.0783
145,-0.1533,-9.3885,-2.9123,51.1304,7.7217,-5.5652
150,-0.1533,-9.3502,-2.8357,49.8087,8.2087,-5.9826
155,-0.3066,-9.3118,-2.7591,48.6957,8.5565,-6.2609
160,-0.3066,-9.3118,-2.7591,47.8609,8.8348,-6.2609
165,-0.2299,-9.3118,-2.7974,47.0957,8.9043,-6.1217
170,-0.4982,-9.2735,-2.7591,46.1217,8.6957,-5.7739
175,-0.3832,-9.3885,-2.8357,45.2174,8.6261,-5.3565
180,-0.2682,-9.1969,-2.7591,44.3826,8.5565,-4.9391
185,-0.4215,-9.3118,-2.7591,43.5478,8.7652,-4.3826
190,-0.4598,-9.1586,-2.7591,43.1304,9.113,-3.7565
195,-0.4215,-9.3885,-2.7591,42.8522,9.113,-2.8522
200,-0.1533,-9.3118,-2.7591,42.8522,9.1826,-2.2261
205,0.0383,-9.4268,-2.7207,42.9913,9.4609,-1.8087
210,0.0,-9.3502,-2.6441,43.3391,9.7391,-1.7391
215,0.1533,-9.3885,-2.6824,43.8261,10.2261,-1.7391
220,0.2299,-9.3502,-2.6441,43.7565,10.9217,-1.9478
225,0.115,-9.3885,-2.6824,43.6174,11.5478,-1.8783
230,0.1916,-9.3885,-2.5291,43.1304,11.8957,-1.6696
235,0.1533,-9.3885,-2.6058,42.2957,12.313,-1.3217
240,0.0,-9.4651,-2.5291,41.3217,13.0783,-0.9739
245,-0.115,-9.3885,-2.5675,40.1391,13.9826,-0.2087
250,-0.115,-9.5034,-2.4908,38.7478,14.6087,0.5565
255,-0.2682,-9.3502,-2.4908,37.3565,15.0957,1.2522
260,-0.3449,-9.3885,-2.5675,36.1739,15.513,1.7391
265,-0.3449,-9.4268,-2.3759,35.1304,16.0,2.1565
270,-0.4982,-9.3502,-2.3759,34.3652,16.3478,2.4348
275,-0.5748,-9.4268,-2.3759,33.5304,16.2783,2.5043
280,-0.7281,-9.4651,-2.2226,32.487,16.1391,2.4348
285,-0.6514,-9.3885,-2.0693,31.5826,15.9304,2.087
290,-0.8047,-9.3885,-2.2226,30.6087,15.5826,1.8783
295,-0.9197,-9.2352,-2.1459,29.4261,15.0957,1.4609
300,-0.958,-9.3885,-2.2226,28.1043,14.4696,1.2522
305,-0.7281,-9.5418,-2.0693,26.8522,13.913,1.113
310,-0.843,-9.4651,-2.0693,26.0174,13.4261,1.0435
315,-0.843,-9.3885,-1.9927,25.3217,13.0783,0.9739
320,-0.7281,-9.4268,-2.031,24.6261,12.4522,0.8348
325,-0.6898,-9.4651,-2.031,24.0696,11.7565,0.8348
330,-0.7664,-9.4268,-2.031,23.7217,10.8522,0.9043
335,-0.6898,-9.4268,-2.031,23.3739,9.9478,0.9739
340,-0.6514,-9.5418,-2.0693,23.1652,8.9739,1.113
345,-0.8047,-9.5034,-2.031,22.9565,8.1391,1.1826
350,-0.8047,-9.695,-1.9543,22.6783,7.3043,1.2522
355,-0.7664,-9.6567,-2.0693,22.2609,6.5391,1.1826
360,-0.6898,-9.6184,-1.8394,21.6348,5.9826,0.9043
365,-0.6898,-9.6567,-1.916,20.9391,5.4261,0.487
370,-0.5748,-9.81,-1.8011,20.313,5.0087,0.2783
375,-0.6131,-9.7334,-1.7244,19.8957,5.0087,0.0696
380,-0.4598,-9.6184,-1.8011,19.687,5.0783,-0.1391
385,-0.3449,-9.695,-1.7244,19.5478,5.0087,-0.2783
390,-0.3449,-9.695,-1.7244,19.6174,5.0783,-0.487
395,-0.3449,-9.7717,-1.7244,19.7565,5.0087,-0.4174
400,-0.2682,-9.695,-1.7244,20.0348,4.8696,-0.4174
405,-0.3449,-9.695,-1.6861,20.2435,4.7304,-0.3478
410,-0.3066,-9.7334,-1.7627,20.313,4.3826,-0.5565
415,-0.3449,-9.7334,-1.6861,20.3826,4.1739,-0.8348
420,-0.3449,-9.6567,-1.7244,20.1739,3.7565,-1.113
425,-0.2299,-9.5801,-1.6478,19.8957,3.6174,-1.6696
430,-0.3832,-9.5801,-1.6861,19.4087,3.5478,-2.0174
435,-0.3066,-9.6567,-1.6095,18.6435,3.6174,-2.2957
440,-0.2682,-9.5418,-1.5711,17.7391,3.6174,-2.5739
445,-0.2682,-9.5418,-1.4945,16.7652,4.0348,-2.5043
450,-0.3066,-9.5034,-1.6095,15.7217,4.6609,-2.713
455,-0.3449,-9.695,-1.5711,14.887,5.2174,-2.6435
460,-0.3449,-9.6567,-1.4562,14.0522,5.4957,-2.6435
465,-0.3832,-9.6567,-1.4562,13.6348,5.7043,-2.6435
470,-0.3832,-9.6567,-1.3795,13.4261,5.6348,-2.6435
475,-0.4215,-9.6184,-1.4562,13.4957,5.4957,-2.5739
480,-0.4215,-9.6567,-1.4562,13.5652,5.3565,-2.6435
485,-0.3832,-9.5801,-1.3412,13.7043,5.1478,-2.713
490,-0.3832,-9.5801,-1.3795,13.913,5.0087,-2.6435
495,-0.3449,-9.6184,-1.3029,13.9826,4.9391,-2.5739
500,-0.3449,-9.6184,-1.3029,13.9826,5.0087,-2.4348
505,-0.3832,-9.5801,-1.3029,13.913,4.9391,-2.1565
510,-0.3449,-9.7334,-1.3412,13.7043,4.8,-1.6696
515,-0.3449,-9.7334,-1.2263,13.3565,4.7304,-1.4609
520,-0.4215,-9.6567,-1.3412,12.8696,4.5217,-1.113
525,-0.4215,-9.6567,-1.2646,12.1043,4.2435,-0.6957
530,-0.5365,-9.6184,-1.2646,11.4783,3.7565,-0.2783
535,-0.5365,-9.6567,-1.2263,10.8522,3.1304,0.2087
540,-0.4982,-9.7717,-1.2646,10.5043,2.5043,0.5565
545,-0.5748,-9.695,-1.1113,10.3652,2.087,0.9739
550,-0.4982,-9.7334,-1.2263,10.087,1.7391,1.0435
555,-0.6514,-9.695,-1.2263,9.7391,1.4609,1.0435
560,-0.5365,-9.7334,-1.1496,9.1826,1.0435,1.0435
565,-0.5365,-9.81,-1.2646,8.6261,0.7652,1.2522
570,-0.6131,-9.7334,-1.2263,7.7913,0.6261,1.3913
575,-0.4598,-9.8866,-1.2263,7.3043,0.4174,1.6
580,-0.4215,-9.8866,-1.1496,6.8174,0.1391,1.8087
585,-0.4598,-9.81,-1.1496,6.4696,0.1391,1.8087
590,-0.4598,-9.7334,-1.1496,6.2609,0.0,1.8783
595,-0.3832,-9.8866,-1.2646,5.913,-0.1391,1.9478
600,-0.3832,-9.7717,-1.3412,5.7043,-0.2783,1.9478
605,-0.5748,-9.5418,-1.2646,5.4957,-0.4174,1.6696
610,-0.3832,-9.6184,-1.2263,5.3565,-0.5565,1.6
615,-0.3832,-9.5418,-1.3795,5.2174,-0.7652,1.3217
620,-0.4598,-9.6184,-1.2646,5.0087,-0.9043,1.1826
625,-0.4215,-9.6567,-1.1113,4.8,-1.113,1.113
630,-0.2682,-9.5801,-1.2646,5.0087,-1.2522,1.113
635,-0.3832,-9.695,-1.0346,5.3565,-1.4609,1.113
640,-0.4598,-9.7334,-1.073,5.913,-1.6,1.113
645,-0.2682,-9.7334,-1.2263,6.5391,-2.0174,1.113
650,-0.3066,-9.695,-1.1496,7.0957,-2.2957,1.1826
655,-0.4598,-9.5801,-1.2646,7.4435,-2.4348,1.2522
660,-0.3832,-9.7334,-1.1496,7.4435,-2.6435,1.3913
665,-0.4982,-9.81,-1.3412,7.5826,-2.713,1.5304
670,-0.6131,-9.695,-1.0346,7.513,-2.713,1.6696
675,-0.6131,-9.6567,-1.2263,7.3739,-2.5043,1.6696
680,-0.5748,-9.7717,-1.1496,6.887,-2.2957,1.3913
685,-0.6898,-9.695,-1.1113,6.4,-2.0174,1.113
690,-0.6898,-9.6567,-1.0346,5.8435,-1.7391,0.7652
695,-0.6131,-9.7717,-1.2263,5.5652,-1.6,0.4174
700,-0.5748,-9.7334,-1.2263,5.4261,-1.4609,0.1391
705,-0.5365,-9.81,-1.3795,5.4261,-1.3217,-0.2087
710,-0.5365,-9.7334,-1.1879,5.4261,-1.1826,-0.6261
715,-0.4215,-9.7717,-1.2263,5.5652,-1.1826,-0.8348
720,-0.4982,-9.7717,-1.2263,5.7043,-1.0435,-1.0435
725,-0.4215,-9.6567,-1.2263,5.7739,-0.9739,-1.2522
730,-0.3066,-9.7334,-1.3412,5.8435,-0.7652,-1.3913
735,-0.3066,-9.5801,-1.2646,5.913,-0.6957,-1.4609
740,-0.2299,-9.6567,-1.2263,5.8435,-0.6957,-1.6696
745,-0.2682,-9.6567,-1.1496,5.7043,-0.8348,-1.7391
750,-0.2682,-9.5801,-1.1496,5.5652,-0.6957,-1.8087
755,-0.1533,-9.7717,-1.2646,5.287,-0.6261,-1.7391
760,-0.3449,-9.7334,-1.3412,5.1478,-0.6261,-1.6696
765,-0.3066,-9.7717,-1.4562,4.9391,-0.5565,-1.5304
770,-0.3449,-9.7334,-1.3412,4.8696,-0.6957,-1.3217
775,-0.3066,-9.7717,-1.3029,4.8696,-0.6957,-1.1826
780,-0.3449,-9.7717,-1.3412,5.0783,-0.7652,-1.113
785,-0.4982,-9.81,-1.2646,5.287,-0.8348,-0.9043
790,-0.3832,-9.695,-1.3795,5.2174,-0.8348,-0.9043
795,-0.4598,-9.8483,-1.2646,5.0783,-0.9739,-1.0435
800,-0.4598,-9.7334,-1.3029,4.8696,-1.0435,-1.1826
805,-0.4982,-9.81,-1.2646,4.8,-0.9043,-1.4609
810,-0.3832,-9.81,-1.3412,4.5913,-1.0435,-1.6696
815,-0.3449,-9.81,-1.2646,4.3826,-1.1826,-1.8783
820,-0.4982,-9.695,-1.4179,4.313,-1.113,-1.7391
825,-0.3449,-9.7334,-1.2646,4.2435,-1.0435,-1.8087
830,-0.3449,-9.8483,-1.2263,4.1739,-1.113,-1.6
835,-0.3449,-9.7334,-1.073,4.1043,-1.1826,-1.3913
840,-0.3832,-9.7717,-1.1879,3.9652,-1.2522,-1.3217
845,-0.3832,-9.8483,-1.1496,3.8957,-1.3913,-1.2522
850,-0.4215,-9.7334,-1.1879,3.687,-1.5304,-1.1826
855,-0.4215,-9.925,-1.1879,3.6174,-1.5304,-1.0435
860,-0.4982,-9.695,-1.1113,3.4783,-1.4609,-0.9739
865,-0.3449,-9.8866,-1.3029,3.4087,-1.4609,-0.9043
870,-0.3832,-9.81,-1.1879,3.3391,-1.4609,-0.9043
875,-0.4598,-9.81,-1.1113,3.4087,-1.3913,-0.9043
880,-0.4598,-9.8866,-1.1879,3.2696,-1.113,-0.9739
885,-0.3449,-9.7334,-1.1879,3.1304,-0.9739,-0.9043
890,-0.3832,-9.7717,-1.073,3.0609,-0.8348,-0.7652
895,-0.3832,-9.81,-1.073,2.7826,-0.6261,-0.7652
900,-0.4598,-9.8866,-1.1113,2.8522,-0.487,-0.6957
905,-0.4215,-9.7334,-1.1113,2.9217,-0.4174,-0.6957
910,-0.3449,-9.8483,-0.958,3.0609,-0.3478,-0.5565
915,-0.4215,-9.7334,-0.958,3.2696,-0.2087,-0.5565
920,-0.4598,-9.7717,-1.073,3.4087,-0.1391,-0.5565
925,-0.4215,-9.7334,-0.9197,3.4783,0.1391,-0.5565
930,-0.3066,-9.81,-0.9963,3.4783,0.2087,-0.8348
935,-0.3449,-9.7717,-0.843,3.4783,0.5565,-0.9043
940,-0.3066,-9.695,-0.9963,3.4783,0.8348,-0.6957
945,-0.4982,-9.6184,-0.8814,3.4783,1.113,-0.6957
950,-0.3066,-9.695,-0.9963,3.3391,1.4609,-0.7652
955,-0.4598,-9.8483,-1.0346,3.2696,1.6696,-0.7652
960,-0.4598,-9.7717,-0.9197,3.2,1.7391,-0.6261
965,-0.4598,-9.81,-0.9197,3.2696,1.7391,-0.487
970,-0.4982,-9.81,-0.843,3.3391,1.8783,-0.5565
975,-0.6514,-9.7334,-0.8814,3.4087,1.9478,-0.5565
980,-0.4982,-9.81,-0.843,3.4087,1.9478,-0.7652
985,-0.5365,-9.81,-0.843,3.5478,2.0174,-1.0435
990,-0.5365,-9.8483,-0.8047,3.6174,2.087,-1.113
995,-0.3066,-9.8483,-0.7664,4.0348,2.1565,-1.2522
1000,-0.4215,-9.8866,-0.843,4.313,2.1565,-1.3913
1005,-0.4215,-9.7334,-0.6898,4.5217,2.2261,-1.3217
1010,-0.3832,-9.925,-0.8814,4.8,2.2261,-1.1826
1015,-0.5365,-9.81,-1.073,5.0087,2.3652,-1.113
1020,-0.3449,-9.695,-0.843,5.1478,2.2957,-1.0435
1025,-0.4982,-9.7334,-0.958,5.0783,2.2957,-0.9043
1030,-0.4215,-9.6567,-0.8814,4.8696,2.4348,-0.9043
1035,-0.4215,-9.7334,-0.8047,4.6609,2.3652,-0.9043
1040,-0.2682,-9.8483,-0.8047,4.3826,2.5739,-0.8348
1045,-0.4598,-9.695,-0.843,4.1043,2.713,-0.9043
1050,-0.2682,-9.6567,-0.7664,3.8957,2.8522,-0.8348
1055,-0.4215,-9.7717,-0.9197,3.687,2.9913,-0.8348
1060,-0.3832,-9.7717,-0.958,3.4783,3.2,-0.8348
1065,-0.3066,-9.7334,-0.8814,3.2,3.2696,-0.7652
1070,-0.3066,-9.7334,-0.8047,2.9913,3.5478,-0.8348
1075,-0.3832,-9.7717,-0.9963,2.8522,3.7565,-0.6957
1080,-0.1533,-9.8483,-0.7281,2.8522,3.8957,-0.7652
1085,-0.3449,-9.7334,-0.7664,2.9217,4.0348,-0.7652
1090,-0.4598,-9.81,-0.958,3.2,4.2435,-0.8348
1095,-0.3066,-9.81,-0.843,3.5478,4.3826,-0.9043
1100,-0.3832,-9.81,-0.9963,3.7565,4.5217,-0.9043
1105,-0.3449,-9.81,-0.7664,3.9652,4.8696,-0.9043
1110,-0.3066,-9.7334,-0.843,4.2435,4.9391,-0.9739
1115,-0.4215,-9.7717,-0.7664,4.2435,5.287,-1.0435
1120,-0.3832,-9.695,-0.843,4.1739,5.5652,-1.0435
1125,-0.3066,-9.695,-0.7281,3.8261,5.7043,-0.8348
1130,-0.3832,-9.7717,-0.843,3.6174,5.7739,-0.8348
1135,-0.4215,-9.81,-0.7664,3.3391,5.8435,-0.7652
1140,-0.4215,-9.7334,-0.843,3.1304,5.913,-0.8348
1145,-0.3832,-9.7334,-0.843,2.9217,5.913,-0.8348
1150,-0.3449,-9.7334,-0.7664,2.8522,5.9826,-0.7652
1155,-0.3832,-9.7334,-0.7281,2.713,5.9826,-0.8348
1160,-0.3449,-9.81,-0.7664,2.713,5.9826,-0.8348
1165,-0.4215,-9.7717,-0.6898,2.6435,6.1913,-0.8348
1170,-0.3832,-9.81,-0.7664,2.8522,6.1913,-0.8348
1175,-0.3066,-9.7334,-0.6514,2.9913,6.1913,-0.8348
1180,-0.3449,-9.8483,-0.843,2.9217,6.1913,-0.7652
1185,-0.3449,-9.695,-0.8047,3.0609,6.1913,-0.5565
1190,-0.2682,-9.81,-0.6898,2.9217,6.2609,-0.6261
1195,-0.4215,-9.7334,-0.843,2.9217,6.2609,-0.4174
1200,-0.3832,-9.695,-0.8047,2.7826,6.2609,-0.4174
1205,-0.3449,-9.6567,-0.6898,2.6435,6.1913,-0.3478
1210,-0.3832,-9.7334,-0.6898,2.4348,6.0522,-0.3478
1215,-0.3832,-9.7717,-0.7664,2.087,5.913,-0.4174
1220,-0.3066,-9.81,-0.6898,1.8783,5.913,-0.487
1225,-0.2299,-9.8483,-0.7664,1.7391,5.913,-0.4174
1230,-0.3449,-9.7717,-0.7664,1.5304,5.8435,-0.2783
1235,-0.2682,-9.8483,-0.6898,1.4609,5.913,-0.3478
1240,-0.4215,-9.81,-0.6898,1.4609,5.913,-0.4174
1245,-0.2299,-9.8483,-0.843,1.5304,5.913,-0.2087
1250,-0.2682,-9.81,-0.843,1.5304,6.0522,-0.2783
1255,-0.3066,-9.7334,-0.7281,1.4609,6.1217,-0.2087
1260,-0.3066,-9.7717,-0.8047,1.5304,6.1217,-0.0696
1265,-0.4215,-9.81,-0.7281,1.3217,6.1217,-0.0696
1270,-0.3066,-9.81,-0.6898,1.1826,5.9826,-0.1391
1275,-0.3066,-9.8483,-0.7664,1.113,5.913,-0.0696
1280,-0.3449,-9.925,-0.6131,0.9739,5.8435,-0.1391
1285,-0.3449,-9.81,-0.7281,0.9739,5.7739,-0.0696
1290,-0.5365,-9.8866,-0.7281,0.9739,5.7739,-0.1391
1295,-0.3449,-9.8483,-0.7664,0.9739,5.7043,-0.1391
1300,-0.3832,-9.8483,-0.843,1.113,5.7043,-0.2087
1305,-0.4215,-9.8483,-0.7664,1.113,5.7043,-0.1391
1310,-0.4598,-9.8483,-0.8047,1.113,5.8435,-0.1391
1315,-0.3066,-9.8483,-0.7281,1.113,5.913,-0.1391
1320,-0.3832,-9.81,-0.7664,0.9739,5.9826,-0.1391
1325,-0.3832,-9.81,-0.7281,0.8348,5.9826,-0.0696
1330,-0.3066,-9.7717,-0.5748,0.7652,5.9826,0.0
1335,-0.4215,-9.7334,-0.843,0.6261,5.913,0.0
1340,-0.4215,-9.8483,-0.7664,0.5565,5.9826,0.0
1345,-0.4598,-9.81,-0.7664,0.487,5.7739,-0.0696
1350,-0.2682,-9.7334,-0.7664,0.2087,5.7043,0.0
1355,-0.5365,-9.6567,-0.843,-0.2087,5.6348,0.2087
1360,-0.4215,-9.81,-0.9197,-0.7652,5.6348,0.1391
1365,-0.4215,-9.7717,-0.8047,-1.2522,5.5652,0.2087
1370,-0.4982,-9.7334,-0.7664,-1.6,5.3565,0.487
1375,-0.4215,-9.81,-0.7281,-2.087,5.2174,0.7652
1380,-0.4598,-9.6567,-0.7664,-2.5739,5.0087,0.9043
1385,-0.3832,-9.8483,-0.7664,-3.0609,4.9391,1.0435
1390,-0.6131,-9.8483,-0.4982,-3.6174,4.7304,1.1826
1395,-0.4598,-9.925,-0.843,-4.0348,4.7304,1.3217
1400,-0.3449,-9.8483,-0.843,-4.313,4.8696,1.3913
1405,-0.2682,-10.0399,-0.6514,-4.2435,5.0087,1.3913
1410,-0.3832,-9.8866,-0.6898,-4.0348,5.2174,1.3913
1415,-0.3066,-9.925,-0.6514,-3.687,5.4261,1.3217
1420,-0.2299,-9.8483,-0.6514,-3.1304,5.7043,1.3217
1425,-0.2299,-9.7717,-0.6898,-2.713,5.9826,1.2522
1430,-0.3449,-9.7717,-0.7281,-2.2261,6.1217,0.9739
1435,-0.3449,-9.7334,-0.6898,-1.9478,6.1913,0.8348
1440,-0.4982,-9.5801,-0.7664,-1.7391,6.1913,0.7652
1445,-0.2682,-9.695,-0.7281,-1.6,6.1913,0.5565
1450,-0.4215,-9.7334,-0.7664,-1.5304,6.1217,0.3478
1455,-0.3449,-9.7334,-0.7664,-1.6,5.9826,0.2087
1460,-0.4598,-9.695,-0.6514,-1.7391,6.0522,0.0
1465,-0.4215,-9.7717,-0.7664,-1.8783,5.8435,-0.1391
1470,-0.4982,-9.695,-0.6898,-1.9478,5.7739,-0.1391
1475,-0.3832,-9.695,-0.7664,-2.0174,5.7739,-0.2087
1480,-0.4215,-9.6567,-0.7664,-1.9478,5.7043,-0.4174
1485,-0.3832,-9.7334,-0.7664,-2.0174,5.7739,-0.487
1490,-0.3832,-9.7717,-0.8047,-2.087,5.8435,-0.4174
1495,-0.2299,-9.8483,-0.843,-2.1565,5.7739,-0.4174
1500,-0.2299,-9.7717,-0.843,-2.1565,5.7739,-0.5565
1505,-0.3449,-9.7334,-0.8814,-2.087,5.7739,-0.487
1510,-0.3066,-9.81,-0.7664,-2.0174,5.7043,-0.5565
1515,-0.3832,-9.7334,-0.7664,-1.9478,5.7043,-0.487
1520,-0.3832,-9.7717,-0.7664,-1.7391,5.7043,-0.6957
1525,-0.4215,-9.7334,-0.8047,-1.3217,5.5652,-0.6957
1530,-0.3832,-9.8483,-0.7664,-0.9043,5.5652,-0.7652
1535,-0.4215,-9.8483,-0.843,-0.7652,5.6348,-0.8348
1540,-0.4982,-9.81,-0.7664,-0.7652,5.5652,-0.9043
1545,-0.4982,-9.8483,-0.843,-0.4174,5.6348,-1.0435
1550,-0.3832,-9.81,-0.7664,-0.487,5.6348,-0.9043
1555,-0.3832,-9.695,-0.958,-0.4174,5.6348,-0.9739
1560,-0.4215,-9.7717,-0.7664,-0.4174,5.6348,-0.9043
1565,-0.4598,-9.7334,-0.7664,-0.5565,5.5652,-0.9043
1570,-0.4215,-9.7334,-0.7664,-0.6261,5.5652,-0.8348
1575,-0.4982,-9.8483,-0.7281,-0.6261,5.3565,-0.6261
1580,-0.3066,-9.8866,-0.7281,-0.4174,5.1478,-0.5565
1585,-0.4215,-9.8483,-0.7281,-0.4174,5.287,-0.7652
1590,-0.3832,-9.8483,-0.7281,-0.3478,5.4957,-0.8348
1595,-0.4215,-9.81,-0.7281,-0.6261,5.5652,-0.7652
1600,-0.3066,-9.8483,-0.8047,-0.8348,5.5652,-0.7652
1605,-0.4215,-9.695,-0.8047,-0.9739,5.4261,-0.8348
1610,-0.3066,-9.7717,-0.5365,-1.1826,5.4957,-0.7652
1615,-0.2682,-9.8866,-0.7664,-1.2522,5.4261,-0.7652
1620,-0.4982,-9.6567,-0.8814,-1.4609,5.4957,-0.9043
1625,-0.3832,-9.7717,-0.7664,-1.4609,5.4261,-0.8348
1630,-0.3832,-9.7334,-0.7281,-1.4609,5.4261,-0.7652
1635,-0.3832,-9.7717,-0.843,-1.6,5.4261,-0.6957
1640,-0.3449,-9.7717,-0.6514,-1.6696,5.4261,-0.7652
1645,-0.3449,-9.7717,-0.843,-1.8087,5.4261,-0.7652
1650,-0.3832,-9.81,-0.843,-2.0174,5.287,-0.7652
1655,-0.4598,-9.695,-0.7281,-2.1565,5.0783,-0.6957
1660,-0.115,-9.7717,-0.7281,-2.2261,5.1478,-0.7652
1665,-0.3449,-9.7334,-0.7281,-2.4348,5.0783,-0.6261
1670,-0.3832,-9.6567,-0.7664,-2.5043,5.0087,-0.6261
1675,-0.3832,-9.695,-0.7281,-2.5739,5.0087,-0.487
1680,-0.3832,-9.695,-0.6898,-2.713,5.0087,-0.5565
1685,-0.3449,-9.7717,-0.8047,-2.7826,5.0783,-0.487
1690,-0.3449,-9.8483,-0.8814,-2.8522,5.0087,-0.3478
1695,-0.4215,-9.7334,-0.7664,-2.9913,4.8,-0.3478
1700,-0.3449,-9.81,-0.7281,-3.0609,4.8696,-0.3478
1705,-0.3832,-9.8483,-0.7664,-3.2696,4.8,-0.3478
1710,-0.3832,-9.695,-0.7664,-3.3391,4.8,-0.2783
1715,-0.2682,-9.695,-0.9963,-3.4783,4.8,-0.2783
1720,-0.3449,-9.8483,-0.7664,-3.687,4.7304,-0.2783
1725,-0.4215,-9.6567,-0.7281,-3.7565,4.7304,-0.3478
1730,-0.4598,-9.695,-0.7664,-3.8261,4.7304,-0.2783
1735,-0.4598,-9.7717,-0.7664,-3.8261,4.7304,-0.2783
1740,-0.4215,-9.7717,-0.7664,-3.8957,4.8,-0.2087
1745,-0.4598,-9.695,-0.7664,-3.8957,4.6609,-0.1391
1750,-0.3449,-9.8483,-0.8814,-3.8957,4.5913,-0.1391
1755,-0.4215,-9.7717,-0.7281,-4.1043,4.6609,-0.0696
1760,-0.4982,-9.6567,-0.7664,-4.3826,4.5913,-0.1391
1765,-0.3832,-9.81,-0.7664,-4.7304,4.6609,-0.1391
1770,-0.3449,-9.6184,-0.7281,-5.0783,4.5913,-0.2087
1775,-0.3449,-9.695,-0.8814,-5.4957,4.6609,-0.2087
1780,-0.4598,-9.6567,-0.9197,-5.7739,4.6609,-0.0696
1785,-0.4598,-9.8483,-0.8814,-6.1217,4.6609,-0.0696
1790,-0.3832,-9.7334,-0.7664,-6.2609,4.5913,-0.0696
1795,-0.3832,-9.7717,-0.7281,-6.2609,4.6609,0.0
1800,-0.3832,-9.7717,-0.9963,-6.3304,4.5913,-0.0696
1805,-0.3449,-9.8866,-0.843,-6.0522,4.5913,-0.0696
1810,-0.3449,-9.925,-0.8047,-5.8435,4.6609,0.0
1815,-0.3832,-9.8483,-0.8047,-5.5652,4.6609,0.0
1820,-0.3449,-9.695,-0.7664,-5.4261,4.6609,0.0696
1825,-0.3066,-9.8483,-0.843,-5.287,4.5913,0.0
1830,-0.3832,-9.7334,-0.7664,-5.1478,4.5913,0.0
1835,-0.3449,-9.7717,-0.958,-5.1478,4.5913,0.0
1840,-0.3449,-9.695,-0.9197,-5.287,4.5913,0.0696
1845,-0.3066,-9.7717,-0.9197,-5.4261,4.6609,0.0
1850,-0.4598,-9.6184,-0.843,-5.5652,4.6609,0.0
1855,-0.4215,-9.8483,-0.843,-5.6348,4.7304,0.0696
1860,-0.3449,-9.695,-0.7664,-5.7739,4.6609,0.2087
1865,-0.3066,-9.7717,-0.9197,-5.8435,4.6609,0.1391
1870,-0.3449,-9.8483,-0.843,-5.913,4.6609,0.1391
1875,-0.2299,-9.81,-0.9197,-5.913,4.5913,0.0696
1880,-0.3449,-9.6567,-0.8047,-5.913,4.7304,0.0696
1885,-0.3832,-9.7717,-0.8814,-5.9826,4.8,0.0696
1890,-0.4215,-9.81,-0.7664,-5.913,4.8696,-0.2087
1895,-0.4215,-9.7334,-0.9197,-5.913,4.9391,-0.2783
1900,-0.4982,-9.81,-0.9197,-5.913,4.9391,-0.5565
1905,-0.5365,-9.7334,-0.9197,-5.913,4.9391,-0.5565
1910,-0.4982,-9.7717,-0.843,-6.0522,5.0087,-0.6261
1915,-0.3832,-9.81,-0.958,-6.0522,5.0783,-0.6261
1920,-0.3832,-9.7717,-0.843,-6.0522,5.0087,-0.7652
1925,-0.4598,-9.8866,-0.9197,-6.1913,5.0087,-0.6261
1930,-0.4215,-9.6567,-0.7281,-6.2609,5.0087,-0.6957
1935,-0.4982,-9.6567,-0.958,-6.3304,5.0783,-0.6957
1940,-0.4598,-9.6184,-0.9963,-6.3304,5.1478,-0.5565
1945,-0.3832,-9.8866,-1.0346,-6.4696,5.0783,-0.5565
1950,-0.3066,-9.81,-0.9963,-6.4696,5.0087,-0.487
1955,-0.3832,-9.8866,-1.0346,-6.4,4.9391,-0.5565
1960,-0.3449,-9.8866,-0.9963,-6.2609,4.8,-0.487
1965,-0.4982,-9.695,-0.9197,-6.1913,4.8696,-0.5565
1970,-0.3832,-9.7717,-0.7664,-6.1913,4.8,-0.5565
1975,-0.3066,-9.7334,-0.9197,-6.1217,4.8,-0.5565
1980,-0.4598,-9.7334,-0.843,-6.1913,4.7304,-0.5565
1985,-0.2682,-9.81,-0.9963,-6.1217,4.7304,-0.6261
1990,-0.3832,-9.8483,-0.9197,-6.1217,4.6609,-0.5565
1995,-0.3832,-9.8866,-0.9963,-6.0522,4.5217,-0.487
2000,-0.3832,-9.7717,-0.9963,-5.9826,4.4522,-0.5565
2005,-0.4215,-9.7334,-0.8814,-5.8435,4.313,-0.5565
2010,-0.4598,-9.8483,-1.073,-5.8435,4.313,-0.487
2015,-0.4215,-9.7717,-1.1113,-5.7043,4.1739,-0.487
2020,-0.4598,-9.81,-1.0346,-5.5652,4.1739,-0.4174
2025,-0.3449,-9.81,-1.0346,-5.4261,4.1043,-0.4174
2030,-0.3066,-9.7717,-0.9197,-5.287,4.0348,-0.487
2035,-0.3832,-9.81,-1.1879,-5.0087,4.0348,-0.4174
2040,-0.3832,-9.81,-1.1496,-4.8696,4.1043,-0.4174
2045,-0.3832,-9.8483,-0.958,-4.5913,4.1043,-0.3478
2050,-0.3449,-9.7717,-1.1879,-4.4522,4.1043,-0.3478
2055,-0.3066,-9.81,-1.073,-4.1739,4.3826,-0.3478
2060,-0.3832,-9.81,-1.0346,-4.1043,4.4522,-0.3478
2065,-0.3449,-9.7334,-1.1879,-4.0348,4.5913,-0.3478
2070,-0.3066,-9.8866,-1.1113,-4.1043,4.7304,-0.3478
2075,-0.4598,-9.8483,-1.2263,-4.2435,4.9391,-0.2783
2080,-0.3066,-9.81,-1.1496,-4.3826,5.1478,-0.2087
2085,-0.3066,-9.7717,-1.1879,-4.5217,5.287,-0.1391
2090,-0.5365,-9.7717,-1.073,-4.5913,5.287,-0.2087
2095,-0.3066,-9.7334,-1.1113,-4.4522,5.3565,-0.0696
2100,-0.4215,-9.7717,-1.4562,-4.4522,5.3565,0.0
2105,-0.3832,-9.7334,-1.1879,-4.3826,5.3565,-0.1391
2110,-0.3832,-9.7334,-1.1879,-4.3826,5.4261,-0.0696
2115,-0.4598,-9.81,-1.2646,-4.5913,5.4957,-0.1391
2120,-0.4598,-9.6184,-1.2263,-4.8,5.5652,-0.0696
2125,-0.3449,-9.695,-1.1496,-5.0087,5.4957,-0.1391
2130,-0.3832,-9.7334,-1.1113,-5.287,5.4957,-0.2783
2135,-0.3449,-9.7334,-0.9963,-5.4261,5.4957,-0.2783
2140,-0.3832,-9.8483,-0.9963,-5.4957,5.4261,-0.3478
2145,-0.4598,-9.695,-1.073,-5.5652,5.287,-0.2783
2150,-0.4982,-9.7717,-1.1113,-5.7043,5.1478,-0.2087
2155,-0.4215,-9.8866,-1.2646,-5.5652,4.9391,-0.2087
2160,-0.4598,-9.7334,-1.1879,-5.6348,4.9391,0.0
2165,-0.4215,-9.8483,-1.1879,-5.6348,5.0087,0.1391
2170,-0.3832,-9.8866,-1.1879,-5.3565,5.0087,0.1391
2175,-0.3449,-9.925,-0.9963,-4.9391,5.1478,0.2783
2180,-0.4598,-9.8866,-1.1879,-4.4522,5.0783,0.1391
2185,-0.3449,-9.8483,-1.2263,-3.8957,5.2174,0.2087
2190,-0.3832,-9.8483,-1.1879,-3.4087,5.1478,0.2087
2195,-0.3066,-9.7717,-1.1879,-2.9913,5.2174,0.2087
2200,-0.3832,-9.8866,-1.1496,-2.8522,5.2174,-0.0696
2205,-0.2682,-9.81,-0.9963,-2.7826,5.1478,0.0
2210,-0.3832,-9.695,-0.9963,-3.1304,5.1478,-0.0696
2215,-0.4598,-9.6184,-1.0346,-3.2696,5.0783,-0.1391
2220,-0.4215,-9.695,-1.073,-3.5478,5.1478,-0.1391
2225,-0.3449,-9.81,-1.1113,-3.8261,5.1478,-0.1391
2230,-0.3449,-9.695,-1.2646,-4.1043,5.0783,-0.0696
2235,-0.3449,-9.6567,-1.1113,-4.1739,5.0087,0.0
2240,-0.3449,-9.7717,-1.1496,-4.2435,4.8,0.0696
2245,-0.3832,-9.7717,-1.0346,-4.2435,4.7304,0.2087
2250,-0.3066,-9.7334,-1.2646,-4.313,4.7304,0.1391
2255,-0.3832,-9.7334,-1.2646,-4.3826,4.7304,0.1391
2260,-0.4598,-9.925,-1.3412,-4.4522,4.8,0.1391
2265,-0.3066,-9.81,-1.1496,-4.5217,4.6609,0.0696
2270,-0.3449,-9.7717,-1.073,-4.6609,4.7304,0.0
2275,-0.4598,-9.7717,-1.073,-4.6609,4.6609,-0.0696
2280,-0.3449,-9.81,-1.0346,-4.5913,4.6609,0.0
2285,-0.3449,-9.8483,-1.1113,-4.5913,4.7304,0.1391
2290,-0.3449,-9.6184,-1.2263,-4.3826,4.8,0.0696
2295,-0.4215,-9.7717,-1.073,-4.1739,4.8696,0.0696
2300,-0.3449,-9.8483,-1.073,-3.9652,4.8,0.1391
2305,-0.3066,-9.8866,-1.2263,-3.8957,4.8696,0.0696
2310,-0.3066,-9.6567,-1.3029,-3.7565,4.9391,0.1391
2315,-0.4215,-9.7717,-1.1113,-3.687,4.9391,0.1391
2320,-0.3832,-9.7717,-1.3029,-3.7565,4.9391,0.0696
2325,-0.4598,-9.7334,-1.2263,-3.8957,5.0783,0.0696
2330,-0.3832,-9.81,-1.2263,-3.9652,5.0783,0.1391
2335,-0.4215,-9.7334,-1.1113,-4.0348,5.0087,0.1391
2340,-0.4598,-9.695,-1.1879,-4.1739,4.9391,0.0696
2345,-0.3066,-9.7717,-1.1113,-4.3826,4.8,0.0
2350,-0.4598,-9.7334,-1.1496,-4.5217,4.7304,0.0696
2355,-0.3449,-9.7334,-1.1496,-4.6609,4.6609,0.0696
2360,-0.4215,-9.695,-1.1113,-4.6609,4.6609,0.0
2365,-0.3832,-9.695,-1.2646,-4.8696,4.7304,0.0
2370,-0.4982,-9.81,-1.073,-5.0783,4.8,0.0696
2375,-0.4215,-9.695,-1.1879,-5.4261,5.0087,0.0
2380,-0.4598,-9.81,-1.1496,-5.7739,5.0783,-0.0696
2385,-0.4215,-9.7334,-1.2263,-6.1217,5.0087,-0.2087
2390,-0.5365,-9.7334,-1.1879,-6.4696,5.0087,-0.2783
2395,-0.3449,-9.6567,-1.3029,-6.7478,5.0783,-0.2783
2400,-0.3832,-9.7717,-1.2263,-6.887,5.0783,-0.3478
2405,-0.3066,-9.7334,-1.1496,-7.2348,5.0087,-0.2783
2410,-0.4598,-9.695,-1.1879,-7.513,4.9391,-0.2783
2415,-0.4215,-9.6184,-1.2646,-7.7217,5.0087,-0.2087
2420,-0.3449,-9.6184,-1.2646,-8.0696,5.0087,-0.1391
2425,-0.4215,-9.5418,-1.3795,-8.3478,4.8696,0.0
2430,-0.3832,-9.5801,-1.2263,-8.7652,4.6609,0.0
2435,-0.3449,-9.6567,-1.4179,-9.0435,4.5217,0.1391
2440,-0.3066,-9.6567,-1.3029,-9.2522,4.5217,0.2087
2445,-0.3832,-9.6567,-1.3029,-9.6,4.4522,0.2783
2450,-0.3832,-9.6567,-1.3029,-9.7391,4.4522,0.4174
2455,-0.3832,-9.695,-1.2263,-9.9478,4.5217,0.3478
2460,-0.3066,-9.6567,-1.3412,-10.1565,4.5913,0.4174
2465,-0.3832,-9.6567,-1.3029,-10.2957,4.7304,0.4174
2470,-0.3449,-9.6567,-1.3029,-10.4348,4.9391,0.4174
2475,-0.4215,-9.7717,-1.3412,-10.3652,5.0783,0.2783
2480,-0.2682,-9.695,-1.3412,-10.5043,5.1478,0.2087
2485,-0.3832,-9.8483,-1.4562,-10.4348,5.2174,0.2087
2490,-0.3066,-9.7334,-1.4179,-10.4348,5.4261,0.1391
2495,-0.3832,-9.7334,-1.5328,-10.4348,5.5652,0.0696
2500,-0.3449,-9.695,-1.4179,-10.5739,5.6348,-0.0696
2505,-0.4598,-9.695,-1.4179,-10.713,5.6348,-0.1391
2510,-0.3449,-9.6567,-1.4945,-10.9913,5.6348,-0.0696
2515,-0.4598,-9.6184,-1.4945,-11.2696,5.7043,-0.0696
2520,-0.4215,-9.5801,-1.4945,-11.5478,5.5652,0.0
2525,-0.3832,-9.7717,-1.5328,-11.8261,5.7043,0.0696
2530,-0.3832,-9.6567,-1.5328,-12.1043,5.5652,0.1391
2535,-0.4982,-9.6184,-1.4945,-12.5913,5.6348,0.1391
2540,-0.4982,-9.5801,-1.4945,-13.0087,5.6348,0.2783
2545,-0.4598,-9.5418,-1.5328,-13.4957,5.7043,0.3478
2550,-0.4215,-9.6567,-1.4945,-13.9826,5.7739,0.487
2555,-0.3066,-9.6567,-1.4562,-14.7478,5.7043,0.6261
2560,-0.5365,-9.5418,-1.5328,-15.513,5.6348,0.9043
2565,-0.4215,-9.6567,-1.5328,-16.3478,5.4957,0.9739
2570,-0.4982,-9.5801,-1.5328,-17.3217,5.4261,0.9739
2575,-0.3449,-9.6567,-1.5328,-18.2957,5.2174,1.0435
2580,-0.4982,-9.6184,-1.6478,-19.2696,5.1478,1.1826
2585,-0.3066,-9.6567,-1.6478,-20.2435,4.8696,1.3217
2590,-0.4215,-9.695,-1.7244,-21.1478,4.7304,1.4609
2595,-0.3449,-9.695,-1.6478,-22.0522,4.6609,1.5304
2600,-0.4598,-9.6567,-1.4945,-23.0261,4.7304,1.7391
2605,-0.5365,-9.6184,-1.4945,-23.8609,4.8696,1.8783
2610,-0.4598,-9.5418,-1.5328,-24.487,4.9391,2.087
2615,-0.4598,-9.5801,-1.6478,-25.1826,4.7304,2.1565
2620,-0.4598,-9.6184,-1.6478,-25.8087,4.4522,2.3652
2625,-0.3832,-9.695,-1.6861,-26.5739,4.2435,2.5043
2630,-0.4982,-9.5034,-1.6478,-27.4783,4.313,2.4348
2635,-0.4215,-9.5034,-1.6478,-28.7304,4.4522,2.4348
2640,-0.4215,-9.5418,-1.6861,-29.9826,4.6609,2.4348
2645,-0.4982,-9.4651,-1.8394,-31.2348,4.5913,2.4348
2650,-0.3832,-9.5418,-1.8394,-32.5565,4.6609,2.3652
2655,-0.3832,-9.5418,-1.8777,-33.7391,4.6609,2.1565
2660,-0.4598,-9.4268,-1.916,-34.713,4.7304,2.0174
2665,-0.4598,-9.3885,-1.916,-35.6174,4.9391,1.8783
2670,-0.4598,-9.4651,-1.7627,-36.4522,5.1478,1.7391
2675,-0.4598,-9.3885,-1.916,-37.3565,5.5652,1.8087
2680,-0.4215,-9.4651,-1.8011,-38.4696,5.8435,1.8783
2685,-0.4215,-9.3502,-1.916,-39.6522,6.1217,2.087
2690,-0.4598,-9.5418,-1.9543,-40.8348,6.4,2.3652
2695,-0.4215,-9.4651,-1.7627,-42.2261,6.9565,2.7826
2700,-0.3449,-9.6567,-1.8394,-43.687,7.3739,3.2
2705,-0.4598,-9.5418,-1.8777,-45.0087,7.5826,3.5478
2710,-0.4598,-9.5418,-1.8011,-46.2609,7.8609,3.9652
2715,-0.4215,-9.5801,-1.916,-47.1652,7.8609,4.313
2720,-0.4598,-9.5418,-1.916,-47.4435,7.7913,4.5217
2725,-0.6131,-9.4651,-1.916,-47.513,7.7913,4.6609
2730,-0.4982,-9.4651,-1.9543,-47.4435,7.6522,4.7304
2735,-0.4215,-9.4268,-1.9543,-47.3739,7.6522,4.5913
2740,-0.5365,-9.4268,-1.9543,-47.5826,7.7217,4.5913
2745,-0.4982,-9.4268,-1.9927,-48.0,7.4435,4.7304
2750,-0.4215,-9.3885,-1.8394,-48.7652,7.0957,4.8
2755,-0.4982,-9.4651,-1.916,-49.8087,6.7478,4.8
2760,-0.5365,-9.3885,-1.916,-51.1304,6.3304,4.9391
2765,-0.4598,-9.3118,-2.031,-52.7304,5.7739,5.287
2770,-0.5748,-9.4268,-1.8777,-54.2609,5.287,5.6348
2775,-0.6131,-9.3885,-1.916,-55.7913,4.4522,6.0522
2780,-0.6131,-9.4651,-2.031,-57.113,3.4087,6.4696
2785,-0.5365,-9.4651,-2.1459,-58.2261,2.5043,6.887
2790,-0.4598,-9.4268,-2.3375,-59.4783,1.8087,7.1652
2795,-0.4215,-9.4268,-2.2992,-61.0783,1.6696,7.5826
2800,-0.2299,-9.4651,-2.2992,-63.0261,1.5304,7.7913
2805,-0.0766,-9.695,-2.6058,-65.4609,1.6,8.0
2810,0.0383,-9.3502,-2.8357,-68.4522,1.8087,8.1391
2815,-0.0383,-9.0819,-2.7591,-71.6522,2.087,8.2783
2820,0.2299,-9.0053,-2.874,-74.7826,2.6435,8.6957
2825,0.1916,-8.8137,-2.989,-77.8435,3.7565,8.9739
2830,0.3832,-8.737,-3.1039,-81.113,5.2174,9.2522
2835,0.2682,-8.6987,-3.3339,-84.7304,6.887,9.8087
2840,0.2299,-8.5071,-3.2955,-88.4174,8.8348,10.2957
2845,0.2682,-8.5838,-3.3722,-92.313,10.9913,10.713
2850,0.1533,-8.5454,-3.4105,-95.7217,13.7043,11.2
2855,-0.0766,-8.5071,-3.2572,-98.7826,16.5565,11.687
2860,-0.0766,-8.6604,-3.3339,-101.0783,19.2,12.1739
2865,-0.3449,-8.6221,-3.2955,-102.6783,21.0087,12.5913
2870,-0.3449,-8.852,-3.5255,-104.0696,22.5391,13.1478
2875,-0.4598,-8.8903,-3.6404,-105.2522,23.7217,13.6348
2880,-0.5748,-8.967,-3.7554,-105.8087,24.6957,14.0522
2885,-0.7664,-9.1202,-3.7554,-106.087,25.3217,14.887
2890,-0.8047,-9.2352,-3.9087,-105.8783,25.4609,15.6522
2895,-0.8814,-9.1586,-3.7554,-105.4609,25.0435,16.487
2900,-1.2263,-9.1586,-3.7554,-105.0435,24.2087,17.113
2905,-1.2263,-9.1586,-3.8704,-104.7652,22.7478,17.6
2910,-1.4562,-9.1969,-3.7937,-104.8348,21.3565,17.6
2915,-1.5711,-9.1202,-3.7937,-105.3913,19.9652,17.3913
2920,-1.7244,-9.0053,-3.6404,-106.5043,18.4348,16.7652
2925,-1.8394,-9.0053,-3.7937,-108.2435,16.487,16.2783
2930,-1.8777,-8.737,-3.832,-110.5391,14.0522,16.0
2935,-1.8011,-8.852,-3.947,-113.4609,11.1304,16.1391
2940,-1.6478,-8.6221,-4.2152,-117.1478,8.0,16.8348
2945,-1.5711,-8.6987,-4.2919,-121.8087,4.9391,17.3913
2950,-1.4945,-8.852,-4.5601,-127.3043,2.2261,17.8087
2955,-1.1879,-8.967,-4.6368,-133.7043,0.9043,18.2261
2960,-0.9197,-9.1969,-5.3648,-140.8,0.4174,18.3652
2965,-1.2646,-9.3118,-5.4032,-147.9652,0.9043,18.0174
2970,-1.1879,-9.3885,-5.4798,-154.9913,1.8783,18.0174
2975,-0.843,-9.4268,-5.9013,-161.6696,3.2696,18.5043
2980,-0.843,-9.1202,-6.3229,-168.4174,4.5913,19.0609
2985,-0.7664,-8.737,-6.7444,-175.3043,5.287,19.7565
2990,-0.6514,-8.5454,-6.936,-181.4261,5.4261,21.287
2995,-0.843,-8.3921,-7.1276,-186.0174,4.4522,22.7478
