timestamp,accX,accY,accZ,gyroX,gyroY,gyroZ
0,0.3832,-9.3885,-3.4105,36.2435,5.2174,0.8348
5,1.0346,-9.1969,-3.7171,35.8957,5.5652,0.9043
10,0.6898,-9.3118,-3.3722,35.5478,5.9826,0.5565
15,0.6898,-9.2735,-3.2572,35.2696,6.4,0.6957
20,0.5365,-9.1969,-3.2189,34.8522,6.5391,0.487
25,0.5748,-9.2735,-3.2955,34.5739,6.8174,0.6261
30,0.4982,-9.2735,-2.9507,34.3652,7.0261,0.4174
35,0.4598,-9.1586,-3.1806,34.087,7.2348,0.487
40,0.4982,-9.3502,-3.0273,33.4609,7.3739,0.4174
45,0.5748,-9.3885,-2.9123,33.113,7.4435,0.5565
50,0.4982,-9.3885,-3.0273,32.9043,7.7217,0.5565
55,0.4598,-9.3885,-2.9507,32.9043,7.8609,0.7652
60,0.4982,-9.3885,-2.989,32.8348,7.7913,0.7652
65,0.4982,-9.5034,-2.874,33.0435,7.6522,0.9739
70,0.4598,-9.4651,-2.8357,33.3913,7.513,0.9739
75,0.4982,-9.4651,-2.9123,33.6696,7.1652,1.2522
80,0.4982,-9.4268,-2.6441,33.8087,7.0957,1.1826
85,0.4982,-9.3885,-2.9123,33.8087,6.887,1.3913
90,0.5365,-9.4268,-2.8357,33.8783,6.887,1.1826
95,0.4982,-9.3118,-2.7974,33.6,6.9565,1.3217
100,0.5365,-9.3502,-2.7591,33.5304,6.8174,1.3217
105,0.7281,-9.3502,-2.6824,33.3217,6.8174,1.3913
110,0.6514,-9.3885,-2.7591,32.9739,6.887,1.1826
115,0.6514,-9.3502,-2.7974,32.5565,6.9565,1.1826
120,0.6131,-9.3885,-2.6441,32.2087,6.9565,1.113
125,0.6131,-9.3885,-2.6058,31.6522,6.887,1.113
130,0.6131,-9.3885,-2.4525,31.2348,7.0957,0.9043
135,0.7281,-9.3502,-2.5291,30.8174,7.2348,0.8348
140,0.6514,-9.3885,-2.6441,30.4696,7.5826,0.6261
145,0.6131,-9.3885,-2.4142,30.3304,7.9304,0.6261
150,0.4982,-9.5418,-2.4142,30.2609,8.1391,0.4174
155,0.5748,-9.4651,-2.4142,30.1217,8.2783,0.487
160,0.5748,-9.3118,-2.4908,29.8435,8.487,0.487
165,0.6514,-9.4268,-2.4142,29.6348,8.7652,0.487
170,0.5748,-9.4268,-2.4142,29.4261,8.7652,0.4174
175,0.6514,-9.5034,-2.3759,29.287,8.8348,0.5565
180,0.6131,-9.4268,-2.2226,29.1478,8.9739,0.487
185,0.6514,-9.5034,-2.2609,29.1478,9.113,0.6261
190,0.6131,-9.3885,-2.3375,29.0783,9.1826,0.487
195,0.5748,-9.4651,-2.3759,29.2174,9.3913,0.6957
200,0.6131,-9.3502,-2.2609,29.3565,9.6696,0.6261
205,0.5748,-9.6184,-2.2609,29.5652,9.8087,0.9043
210,0.7281,-9.5418,-2.1843,29.4957,9.7391,0.9043
215,0.6898,-9.5801,-2.2609,29.287,9.7391,0.9739
220,0.6514,-9.5801,-2.0693,29.0783,9.5304,1.0435
225,0.6514,-9.7717,-2.1459,28.8,9.4609,1.0435
230,0.6131,-9.7334,-2.2226,28.5913,9.5304,0.9739
235,0.6131,-9.695,-2.1076,28.3826,9.4609,1.0435
240,0.6898,-9.695,-2.1459,28.1043,9.3913,1.0435
245,0.6898,-9.6184,-1.9927,28.1043,9.2522,1.0435
250,0.7281,-9.695,-2.0693,28.0348,9.1826,0.9043
255,0.8047,-9.6184,-1.9543,27.9652,9.2522,0.6957
260,0.7281,-9.695,-1.9543,27.8261,9.3913,0.6261
265,0.7281,-9.7334,-1.8394,27.6174,9.3913,0.5565
270,0.6514,-9.7334,-2.031,27.4783,9.5304,0.6261
275,0.5748,-9.5418,-1.9927,27.1304,9.7391,0.5565
280,0.8047,-9.695,-1.8011,26.8522,9.7391,0.487
285,0.6514,-9.6567,-1.916,26.4348,9.8783,0.4174
290,0.6514,-9.4651,-1.7627,25.8087,10.087,0.3478
295,0.6514,-9.5418,-1.8777,25.3913,10.0174,0.4174
300,0.6514,-9.5034,-1.8777,24.9043,10.0174,0.3478
305,0.6898,-9.6184,-1.6478,24.3478,9.9478,0.3478
310,0.6131,-9.695,-1.7244,23.9304,9.8087,0.5565
315,0.4982,-9.4651,-1.6478,23.3043,9.5304,0.7652
320,0.4982,-9.5418,-1.6861,22.7478,8.9739,1.113
325,0.6131,-9.6184,-1.5711,22.2609,8.4174,1.113
330,0.6131,-9.5418,-1.5711,21.8435,7.9304,1.1826
335,0.6514,-9.4651,-1.7244,21.6348,7.6522,1.113
340,0.6514,-9.6567,-1.5328,21.4261,7.3043,1.3217
345,0.6131,-9.6567,-1.7627,21.2174,7.0261,1.4609
350,0.7281,-9.6567,-1.4179,21.0783,6.8174,1.6
355,0.4982,-9.7334,-1.6095,20.8,6.887,1.8783
360,0.5365,-9.6567,-1.5328,20.4522,6.8174,2.0174
365,0.4982,-9.81,-1.5328,20.3826,6.9565,2.1565
370,0.5748,-9.8866,-1.5328,20.4522,7.2348,2.2261
375,0.6131,-9.81,-1.5328,20.7304,7.3739,2.2957
380,0.4982,-9.8483,-1.2646,20.9391,7.3739,2.2957
385,0.5748,-9.8483,-1.3412,21.287,7.513,2.087
390,0.5365,-9.7334,-1.5711,21.6348,7.4435,2.2261
395,0.6898,-9.8483,-1.4945,21.8435,7.0957,2.1565
400,0.6131,-9.695,-1.3412,21.913,6.9565,2.3652
405,0.5365,-9.5801,-1.4179,21.7739,6.9565,2.4348
410,0.6514,-9.4651,-1.4945,21.4957,6.8174,2.6435
415,0.6131,-9.695,-1.3795,21.0783,6.6783,2.6435
420,0.6514,-9.5801,-1.4179,20.5217,6.6087,2.8522
425,0.7281,-9.6184,-1.2263,20.0348,6.4696,2.7826
430,0.6131,-9.6184,-1.1113,19.3391,6.1913,2.9913
435,0.5748,-9.5801,-1.1113,18.713,5.7043,2.9913
440,0.5748,-9.5418,-1.1113,17.7391,5.1478,3.2
445,0.5365,-9.4651,-1.1496,16.9739,4.5913,3.2
450,0.5748,-9.4268,-1.1879,15.9304,4.2435,3.4783
455,0.4598,-9.5034,-1.2646,14.5391,4.0348,3.4783
460,0.4215,-9.6184,-1.2263,13.287,3.9652,3.6174
465,0.4598,-9.7717,-1.2646,12.1043,4.0348,3.4087
470,0.4598,-9.7717,-1.1879,11.0609,4.1043,3.3391
475,0.4215,-9.81,-1.1879,10.1565,4.1043,3.0609
480,0.3449,-9.8866,-1.1113,9.6696,4.1739,3.0609
485,0.5365,-9.925,-1.1113,9.6,4.313,2.7826
490,0.4215,-9.8866,-1.1113,9.6,4.7304,2.8522
495,0.4215,-9.925,-1.2646,9.8087,5.0783,2.6435
500,0.4982,-9.925,-1.1879,10.4348,5.4957,2.8522
505,0.4598,-9.925,-1.0346,11.0609,5.913,2.713
510,0.4982,-9.8483,-1.073,11.9652,5.8435,2.9217
515,0.5365,-9.8483,-0.958,12.5217,5.7739,2.9217
520,0.4598,-9.925,-0.9963,12.9391,5.5652,3.1304
525,0.5365,-9.81,-1.073,13.2174,5.3565,2.9913
530,0.4598,-9.695,-0.958,13.2174,5.287,2.9913
535,0.4982,-9.7717,-1.073,13.287,5.2174,2.8522
540,0.4982,-9.6567,-0.9197,13.0087,5.287,2.8522
545,0.4598,-9.6567,-0.958,12.7304,5.4261,2.5739
550,0.3449,-9.7334,-0.9197,12.4522,5.4261,2.5739
555,0.4982,-9.695,-1.073,12.2435,5.2174,2.3652
560,0.4215,-9.7334,-0.843,12.1739,4.8696,2.5739
565,0.4982,-9.7334,-0.958,12.0348,4.5913,2.5043
570,0.2682,-9.6184,-0.8814,11.8261,4.1739,2.6435
575,0.2682,-9.7334,-0.8814,11.4087,3.7565,2.5043
580,0.3066,-9.5801,-0.8814,10.713,3.3391,2.3652
585,0.4598,-9.695,-0.8814,9.8087,2.9913,2.0174
590,0.4598,-9.81,-0.8814,8.6957,2.9217,1.8783
595,0.3832,-9.6567,-0.9963,7.7913,2.9913,1.5304
600,0.4598,-9.81,-0.9197,6.9565,3.2696,1.5304
605,0.4598,-9.8866,-0.9963,6.2609,3.6174,1.1826
610,0.5365,-9.81,-0.958,6.0522,3.8957,1.3913
615,0.4215,-9.7334,-0.8814,6.1913,4.1043,1.3217
620,0.4598,-9.695,-0.8814,6.3304,4.2435,1.6
625,0.5748,-9.8483,-0.7664,6.6783,4.313,1.4609
630,0.5365,-9.8866,-0.8814,7.0261,4.2435,1.6
635,0.5365,-9.7717,-0.958,7.2348,4.313,1.5304
640,0.4982,-9.7334,-0.958,7.5826,4.3826,1.6696
645,0.4982,-9.7717,-0.8047,7.8609,4.3826,1.6696
650,0.5748,-9.81,-0.8047,7.8609,4.4522,1.9478
655,0.3832,-9.81,-0.8047,7.9304,4.4522,1.8783
660,0.5365,-9.7334,-0.8814,7.8609,4.4522,2.2957
665,0.5365,-9.695,-0.7664,7.8609,4.5913,2.2957
670,0.4215,-9.7717,-0.843,8.0,4.7304,2.7826
675,0.5748,-9.7334,-0.7281,8.0,4.9391,2.7826
680,0.4982,-9.81,-0.843,7.7913,5.287,3.0609
685,0.4982,-9.7717,-0.7281,7.513,5.4957,2.9913
690,0.4215,-9.81,-0.6514,7.3043,5.7739,3.2
695,0.4982,-9.81,-0.8047,7.0261,5.9826,3.0609
700,0.5748,-9.925,-0.843,6.887,6.1913,3.2696
705,0.4598,-9.8483,-0.6514,6.8174,6.1913,3.1304
710,0.4215,-9.81,-0.6898,6.887,6.2609,3.3391
715,0.4982,-9.81,-0.7281,7.0957,6.4,3.4087
720,0.4982,-9.8483,-0.7281,7.3739,6.2609,3.687
725,0.4982,-9.81,-0.5748,7.8609,5.9826,3.7565
730,0.5365,-9.8866,-0.6898,8.487,5.4261,4.1739
735,0.4598,-9.81,-0.7281,9.0435,4.9391,4.1739
740,0.4215,-9.925,-0.6898,9.7391,4.5217,4.5913
745,0.6131,-9.8866,-0.6514,10.4348,4.1043,4.5913
750,0.5365,-9.7717,-0.7281,10.9913,3.8957,5.0087
755,0.5365,-9.5418,-0.8047,11.1304,3.8261,4.9391
760,0.4598,-9.6184,-0.7664,10.9217,3.9652,5.2174
765,0.4215,-9.4651,-0.6514,10.4348,4.313,5.1478
770,0.5748,-9.4651,-0.8047,9.3217,4.6609,5.1478
775,0.4598,-9.4651,-0.7664,8.0,4.8696,4.8696
780,0.4215,-9.4268,-0.6514,6.5391,5.0783,4.8696
785,0.4215,-9.4651,-0.7664,4.8,5.1478,4.5217
790,0.3832,-9.5418,-0.5748,3.4087,5.1478,4.6609
795,0.3832,-9.5034,-0.5748,2.1565,4.8,4.4522
800,0.3449,-9.6184,-0.4982,1.1826,4.3826,4.5913
805,0.3066,-9.5801,-0.2682,0.4174,3.7565,4.313
810,0.2682,-9.8483,-0.2682,-0.0696,3.2696,4.4522
815,0.115,-9.7717,-0.4215,-0.4174,2.713,4.313
820,0.2299,-9.925,-0.3449,-0.487,2.2957,4.3826
825,0.2299,-9.9633,-0.4598,-0.3478,2.0174,4.2435
830,0.2682,-9.925,-0.3832,-0.0696,1.8087,4.313
835,0.1916,-9.9633,-0.4215,0.3478,1.5304,4.1043
840,0.115,-9.925,-0.4598,0.9043,1.1826,4.1739
845,0.115,-9.9633,-0.4982,1.6696,0.9043,3.8261
850,0.0383,-9.8483,-0.3832,2.2261,0.6957,4.0348
855,0.0766,-9.81,-0.3832,2.8522,0.487,3.8261
860,0.115,-9.81,-0.4598,3.2696,0.3478,3.8261
865,0.0766,-9.695,-0.4215,3.4783,0.3478,3.5478
870,0.1916,-9.695,-0.5365,3.4783,0.2783,3.6174
875,0.0766,-9.6567,-0.3832,3.1304,0.2087,3.2
880,0.115,-9.7717,-0.4982,2.7826,0.0,3.1304
885,0.1533,-9.695,-0.4598,2.2261,-0.2087,2.8522
890,0.2299,-9.6567,-0.5365,1.6,-0.2783,2.7826
895,0.1916,-9.695,-0.4982,0.8348,-0.1391,2.3652
900,0.1916,-9.8483,-0.6131,0.487,0.0696,2.3652
905,0.1916,-9.81,-0.4982,0.2087,0.0,2.0174
910,0.1916,-9.7717,-0.5748,0.0,0.2087,2.0174
915,0.115,-9.81,-0.5748,-0.2087,0.2087,1.7391
920,0.3066,-9.81,-0.5748,-0.2783,0.4174,1.6696
925,0.2682,-9.8866,-0.5748,-0.0696,0.4174,1.3913
930,0.3066,-9.925,-0.5365,0.3478,0.6261,1.4609
935,0.115,-9.8866,-0.6131,0.9043,0.7652,1.4609
940,0.2299,-9.8483,-0.5365,1.5304,1.113,1.4609
945,0.1916,-9.8483,-0.4215,2.087,1.4609,1.2522
950,0.2682,-9.9633,-0.6898,2.713,1.8783,1.3217
955,0.2299,-9.81,-0.5748,3.2,2.087,1.113
960,0.3832,-9.8866,-0.5365,3.7565,2.2261,1.1826
965,0.1533,-9.7717,-0.4982,4.1043,2.6435,1.0435
970,0.3066,-9.7334,-0.5748,4.313,2.9217,1.0435
975,0.2299,-9.695,-0.5365,4.3826,3.2,0.8348
980,0.1916,-9.695,-0.5748,4.313,3.5478,0.6957
985,0.2682,-9.81,-0.5748,3.9652,3.8261,0.487
990,0.3449,-9.7717,-0.4598,3.6174,4.0348,0.5565
995,0.3066,-9.7334,-0.6131,3.1304,4.1043,0.487
1000,0.3832,-9.7717,-0.5748,2.6435,4.1739,0.487
1005,0.3066,-9.7717,-0.4982,2.0174,4.1739,0.2783
1010,0.2682,-9.7334,-0.4598,1.6696,4.313,0.2783
1015,0.2299,-9.81,-0.4598,1.5304,4.4522,0.2783
1020,0.2682,-9.81,-0.4598,1.5304,4.5217,0.4174
1025,0.2682,-9.7717,-0.4982,1.7391,4.6609,0.3478
1030,0.2299,-9.7334,-0.5748,1.8087,4.8696,0.487
1035,0.1916,-9.6567,-0.4982,1.8087,5.0087,0.4174
1040,0.3832,-9.81,-0.5365,1.6696,5.1478,0.487
1045,0.4215,-9.7717,-0.4215,1.5304,5.3565,0.4174
1050,0.2682,-9.7334,-0.6514,1.1826,5.6348,0.487
1055,0.3449,-9.5801,-0.5748,0.6261,5.6348,0.4174
1060,0.2299,-9.6184,-0.4598,0.0,5.6348,0.6261
1065,0.3832,-9.6567,-0.4982,-0.2783,5.4261,0.5565
1070,0.3066,-9.6567,-0.4598,-0.487,5.2174,0.6957
1075,0.3066,-9.6567,-0.6514,-0.8348,5.1478,0.6261
1080,0.3449,-9.695,-0.6131,-1.113,5.0087,0.8348
1085,0.4598,-9.7717,-0.4982,-1.5304,4.7304,0.8348
1090,0.2299,-9.81,-0.6898,-1.9478,4.6609,0.9043
1095,0.2682,-9.7334,-0.5748,-2.3652,4.5913,0.9043
1100,0.2682,-9.8866,-0.4598,-2.5043,4.4522,0.9043
1105,0.2682,-9.8483,-0.4982,-2.4348,4.3826,0.9043
1110,0.3066,-9.8483,-0.4982,-2.0174,4.2435,0.9739
1115,0.1916,-9.7717,-0.6131,-1.4609,3.9652,0.9043
1120,0.2299,-9.695,-0.6898,-1.0435,3.4783,0.9739
1125,0.2299,-9.695,-0.6131,-0.9739,3.1304,0.9043
1130,0.3449,-9.7334,-0.6898,-1.3913,2.6435,0.9739
1135,0.1916,-9.5418,-0.7281,-1.8783,2.5043,1.0435
1140,0.3066,-9.695,-0.6514,-2.3652,2.4348,1.0435
1145,0.2299,-9.81,-0.5748,-2.5043,2.5043,1.1826
1150,0.1916,-9.8866,-0.6131,-2.5043,2.9217,1.113
1155,0.2682,-9.695,-0.6131,-2.3652,3.1304,1.1826
1160,0.1533,-9.8483,-0.7664,-2.2261,3.3391,1.3217
1165,0.2682,-9.81,-0.5365,-1.9478,3.6174,1.2522
1170,0.3066,-9.925,-0.5365,-1.8087,3.7565,1.3217
1175,0.1916,-9.7717,-0.6898,-1.6,3.9652,1.2522
1180,0.2299,-9.8866,-0.5748,-1.3913,3.9652,1.1826
1185,0.1533,-9.8866,-0.5365,-1.1826,4.0348,1.0435
1190,0.1533,-9.81,-0.5748,-0.6261,4.0348,0.9043
1195,0.1533,-9.81,-0.4982,-0.1391,3.8957,0.9739
1200,0.2299,-9.8866,-0.5748,0.487,3.687,0.8348
1205,0.0766,-9.7334,-0.6131,1.0435,3.5478,0.9043
1210,0.1533,-9.81,-0.5748,1.5304,3.4783,0.8348
1215,0.3066,-9.7334,-0.5365,1.6696,3.3391,0.7652
1220,0.1533,-9.7334,-0.5748,1.7391,3.3391,0.6261
1225,0.1916,-9.5801,-0.3832,1.6,3.3391,0.6261
1230,0.0766,-9.5801,-0.5365,1.113,3.4783,0.5565
1235,0.1916,-9.695,-0.4598,0.487,3.687,0.487
1240,0.0,-9.6184,-0.5748,-0.1391,3.9652,0.3478
1245,0.1916,-9.7334,-0.5748,-0.6957,4.1739,0.3478
1250,0.1533,-9.6184,-0.4982,-1.3217,4.1739,0.2087
1255,0.1916,-9.6567,-0.5365,-1.8087,4.3826,0.2087
1260,0.1533,-9.6184,-0.4215,-2.3652,4.4522,0.0696
1265,0.115,-9.7334,-0.4215,-2.6435,4.3826,0.1391
1270,0.115,-9.7334,-0.4215,-2.9217,4.1043,-0.0696
1275,0.1533,-9.7717,-0.3066,-2.8522,3.8957,0.0696
1280,0.1916,-9.8866,-0.3066,-2.5739,3.687,-0.1391
1285,0.115,-9.8866,-0.5748,-2.2957,3.3391,-0.1391
1290,0.0766,-9.925,-0.5748,-2.0174,3.2,-0.1391
1295,0.115,-9.8483,-0.6898,-1.7391,3.0609,-0.1391
1300,0.1533,-9.81,-0.4982,-1.6,2.9913,-0.2087
1305,0.1916,-9.7717,-0.4598,-1.6,3.1304,-0.2087
1310,0.1533,-9.6567,-0.4982,-1.6696,3.3391,-0.487
1315,0.1533,-9.8483,-0.4598,-1.8087,3.4783,-0.4174
1320,0.1533,-9.7334,-0.6898,-1.8783,3.687,-0.5565
1325,0.2299,-9.7334,-0.5365,-2.087,3.687,-0.6261
1330,0.1533,-9.695,-0.5748,-2.087,3.8261,-0.8348
1335,0.0766,-9.695,-0.4982,-2.087,3.9652,-0.7652
1340,0.0,-9.695,-0.5365,-2.087,4.0348,-0.8348
1345,0.1916,-9.7717,-0.4598,-2.1565,4.1043,-0.8348
1350,0.115,-9.81,-0.4215,-2.2261,4.0348,-0.9739
1355,0.0383,-9.81,-0.4215,-2.3652,3.9652,-0.8348
1360,0.0766,-9.7717,-0.5365,-2.2957,3.8261,-0.9739
1365,0.1533,-9.7717,-0.6131,-2.2957,3.5478,-0.7652
1370,0.115,-9.7717,-0.5365,-2.087,3.2696,-0.9043
1375,0.115,-9.7334,-0.4982,-2.0174,3.1304,-0.6957
1380,0.115,-9.7717,-0.4598,-1.9478,2.9913,-0.8348
1385,0.2682,-9.7717,-0.6514,-1.8783,2.9913,-0.5565
1390,0.1916,-9.695,-0.5365,-2.1565,3.0609,-0.6957
1395,0.2299,-9.8483,-0.5748,-2.3652,3.2696,-0.5565
1400,0.3066,-9.7717,-0.4982,-2.4348,3.5478,-0.7652
1405,0.2299,-9.8483,-0.6898,-2.4348,3.687,-0.5565
1410,0.1533,-9.81,-0.4598,-2.3652,3.8957,-0.6957
1415,0.115,-9.8866,-0.5365,-2.1565,4.0348,-0.5565
1420,0.2299,-9.8483,-0.7664,-1.8783,3.9652,-0.7652
1425,0.2682,-9.8866,-0.6514,-1.6696,3.9652,-0.487
1430,0.1533,-9.81,-0.5748,-1.2522,3.8261,-0.6261
1435,0.1533,-9.81,-0.6514,-0.9739,3.6174,-0.4174
1440,0.2682,-9.7717,-0.6898,-0.9043,3.5478,-0.5565
1445,0.1533,-9.7334,-0.6514,-0.8348,3.687,-0.3478
1450,0.3066,-9.695,-0.5365,-0.7652,3.687,-0.487
1455,0.3066,-9.7717,-0.5365,-0.9739,3.8261,-0.3478
1460,0.1916,-9.81,-0.5748,-1.113,3.8957,-0.487
1465,0.2299,-9.81,-0.5365,-1.4609,3.9652,-0.2783
1470,0.1916,-9.81,-0.5748,-1.6696,3.8957,-0.487
1475,0.1916,-9.7334,-0.4598,-1.7391,3.8261,-0.2783
1480,0.2682,-9.7334,-0.4982,-1.7391,3.6174,-0.487
1485,0.2682,-9.7717,-0.4598,-1.6,3.5478,-0.487
1490,0.2299,-9.7334,-0.5748,-1.3913,3.4783,-0.6261
1495,0.2299,-9.695,-0.5365,-1.3217,3.6174,-0.4174
1500,0.3066,-9.7334,-0.5365,-1.2522,3.7565,-0.6261
1505,0.2299,-9.8483,-0.5748,-1.1826,4.0348,-0.487
1510,0.3832,-9.81,-0.6131,-1.2522,4.2435,-0.6261
1515,0.1533,-9.8483,-0.6898,-1.2522,4.5217,-0.5565
1520,0.3066,-9.925,-0.5365,-1.3217,4.7304,-0.7652
1525,0.115,-9.8483,-0.4598,-1.1826,4.8,-0.6957
1530,0.2682,-9.8483,-0.5748,-1.2522,4.9391,-0.6957
1535,0.2299,-9.8483,-0.4598,-1.2522,4.8696,-0.6261
1540,0.115,-9.7334,-0.6514,-1.1826,4.8,-0.6957
1545,0.115,-9.81,-0.4982,-1.113,4.8696,-0.5565
1550,0.1533,-9.7717,-0.5748,-1.113,4.7304,-0.6261
1555,0.2299,-9.7717,-0.6131,-1.0435,4.7304,-0.487
1560,0.1916,-9.8483,-0.4982,-1.113,4.7304,-0.6261
1565,0.3066,-9.81,-0.4982,-1.113,4.8696,-0.3478
1570,0.1916,-9.81,-0.5748,-1.0435,4.8696,-0.487
1575,0.3066,-9.8866,-0.4215,-1.0435,4.8696,-0.2783
1580,0.2299,-9.8483,-0.5365,-1.0435,5.0087,-0.487
1585,0.3066,-9.8483,-0.3832,-0.9043,5.0783,-0.3478
1590,0.3066,-9.8866,-0.4598,-0.9043,5.2174,-0.5565
1595,0.1916,-9.7334,-0.5748,-0.6957,5.2174,-0.4174
1600,0.1916,-9.7334,-0.3066,-0.487,5.287,-0.6261
1605,0.2299,-9.7334,-0.5365,-0.4174,5.1478,-0.4174
1610,0.2299,-9.7334,-0.5748,-0.4174,5.1478,-0.487
1615,0.1916,-9.7334,-0.6514,-0.4174,5.2174,-0.4174
1620,0.1916,-9.7334,-0.5748,-0.4174,5.1478,-0.5565
1625,0.1916,-9.7717,-0.4598,-0.5565,5.1478,-0.4174
1630,0.0766,-9.7334,-0.5748,-0.6261,5.287,-0.5565
1635,0.1916,-9.81,-0.4982,-0.6261,5.3565,-0.4174
1640,0.2682,-9.8483,-0.4215,-0.7652,5.3565,-0.6261
1645,0.115,-9.8866,-0.4598,-0.8348,5.287,-0.4174
1650,0.1533,-9.81,-0.5365,-0.6957,5.1478,-0.5565
1655,0.2299,-9.7334,-0.6131,-0.6261,4.9391,-0.4174
1660,0.2299,-9.81,-0.4598,-0.5565,4.7304,-0.5565
1665,0.2299,-9.7717,-0.5365,-0.2783,4.6609,-0.4174
1670,0.3066,-9.81,-0.5748,-0.0696,4.6609,-0.487
1675,0.1916,-9.81,-0.4982,0.0696,4.5913,-0.4174
1680,0.2299,-9.7717,-0.3832,0.1391,4.5217,-0.5565
1685,0.2682,-9.8483,-0.4598,0.0,4.5217,-0.3478
1690,0.2299,-9.7717,-0.4598,0.0696,4.5913,-0.487
1695,0.2299,-9.7717,-0.4982,0.1391,4.5913,-0.3478
1700,0.3066,-9.8866,-0.5365,0.2087,4.5913,-0.487
1705,0.1533,-9.7334,-0.4982,0.487,4.6609,-0.4174
1710,0.1533,-9.8483,-0.4598,0.6261,4.5913,-0.5565
1715,0.115,-9.81,-0.5748,0.6957,4.5217,-0.487
1720,0.2299,-9.7717,-0.6514,0.6261,4.4522,-0.5565
1725,0.1916,-9.81,-0.4982,0.6957,4.4522,-0.4174
1730,0.1533,-9.8483,-0.5365,0.7652,4.5913,-0.6957
1735,0.1533,-9.8866,-0.5748,0.9739,4.6609,-0.6261
1740,0.1916,-9.7334,-0.5748,1.2522,4.8,-0.6957
1745,0.115,-9.7717,-0.6514,1.5304,4.7304,-0.6261
1750,0.2299,-9.7334,-0.4598,1.5304,4.7304,-0.6957
1755,0.2299,-9.695,-0.5748,1.1826,5.0087,-0.6957
1760,0.3066,-9.5801,-0.4598,0.6957,5.1478,-0.6957
1765,0.1916,-9.695,-0.5365,0.0696,5.1478,-0.6957
1770,0.1916,-9.5801,-0.3832,-0.4174,5.2174,-0.6957
1775,0.1533,-9.695,-0.4982,-0.6261,5.2174,-0.4174
1780,0.2682,-9.7334,-0.4598,-0.9043,5.287,-0.5565
1785,0.2299,-9.7334,-0.5365,-1.0435,5.287,-0.4174
1790,0.1916,-9.7334,-0.4215,-1.3217,5.1478,-0.6261
1795,0.1916,-9.81,-0.4598,-1.3913,5.287,-0.6261
1800,0.2682,-9.8483,-0.4598,-1.6696,5.287,-0.7652
1805,0.1916,-9.7334,-0.3832,-1.8087,5.3565,-0.6261
1810,0.1916,-9.81,-0.3449,-1.9478,5.287,-0.6261
1815,0.2299,-9.8866,-0.4598,-1.7391,5.4261,-0.5565
1820,0.1916,-9.81,-0.6131,-1.3913,5.4957,-0.6957
1825,0.2299,-9.8483,-0.4215,-0.9043,5.3565,-0.5565
1830,0.2682,-9.925,-0.3449,-0.6957,5.287,-0.5565
1835,0.2682,-9.81,-0.5365,-0.2087,5.0783,-0.4174
1840,0.0766,-9.8483,-0.4982,-0.0696,5.0783,-0.5565
1845,0.1533,-9.7334,-0.4982,0.0,5.0087,-0.3478
1850,0.1533,-9.7717,-0.4598,0.0696,4.8696,-0.487
1855,0.2682,-9.81,-0.5748,0.1391,4.5913,-0.487
1860,0.0766,-9.695,-0.4598,0.0,4.4522,-0.5565
1865,0.115,-9.7334,-0.4598,-0.1391,4.3826,-0.6261
1870,0.1916,-9.695,-0.4598,-0.2087,4.4522,-0.6957
1875,0.2299,-9.6567,-0.5748,-0.3478,4.4522,-0.6261
1880,0.115,-9.6567,-0.6131,-0.6957,4.5913,-0.6957
1885,0.1533,-9.6567,-0.5365,-1.0435,4.6609,-0.6957
1890,0.1533,-9.695,-0.4982,-1.3913,4.6609,-0.7652
1895,0.1916,-9.7717,-0.6514,-1.8783,4.8,-0.6261
1900,0.1533,-9.7717,-0.5748,-2.2957,4.8696,-0.9043
1905,0.1533,-9.81,-0.6514,-2.5043,4.8,-0.7652
1910,0.1533,-9.7334,-0.6131,-2.6435,4.5217,-0.8348
1915,0.2682,-9.925,-0.6514,-2.5043,4.5217,-0.7652
1920,0.1533,-9.8483,-0.6514,-2.5043,4.4522,-0.8348
1925,0.3066,-9.8866,-0.4215,-2.2957,4.3826,-0.7652
1930,0.1916,-9.8866,-0.5365,-1.8783,4.2435,-0.6957
1935,0.2299,-9.8866,-0.4982,-1.3217,4.1043,-0.6957
1940,0.3066,-9.81,-0.4982,-0.8348,4.1043,-0.6261
1945,0.2682,-9.81,-0.5365,-0.2783,4.1043,-0.6261
1950,0.1533,-9.8866,-0.4982,0.0696,4.1043,-0.6957
1955,0.3832,-9.81,-0.4215,0.2087,4.1739,-0.5565
1960,0.3449,-9.8866,-0.3832,0.2783,4.0348,-0.487
1965,0.1916,-9.7334,-0.6898,0.1391,4.0348,-0.487
1970,0.1533,-9.6184,-0.5365,0.0,3.9652,-0.4174
1975,0.2682,-9.7717,-0.4982,-0.2087,4.0348,-0.487
1980,0.115,-9.7334,-0.3832,-0.487,4.0348,-0.5565
1985,0.1916,-9.695,-0.4215,-0.6261,3.8957,-0.5565
1990,0.2299,-9.8866,-0.5365,-0.7652,3.8261,-0.487
1995,0.1533,-9.7717,-0.4982,-0.6261,3.8261,-0.4174
2000,0.1533,-9.81,-0.5748,-0.6957,3.8261,-0.4174
2005,0.3449,-9.81,-0.4598,-0.7652,3.9652,-0.3478
2010,0.2299,-9.8866,-0.6131,-0.8348,4.1043,-0.4174
2015,0.2299,-9.8483,-0.4598,-0.9739,4.1043,-0.487
2020,0.3066,-9.81,-0.4215,-0.8348,4.2435,-0.4174
2025,0.2299,-9.8866,-0.4982,-0.7652,4.313,-0.487
2030,0.2299,-9.8866,-0.4982,-0.6261,4.4522,-0.487
2035,0.2682,-9.8483,-0.5365,-0.2783,4.313,-0.5565
2040,0.1533,-9.7717,-0.6131,-0.0696,4.313,-0.4174
2045,0.2682,-9.81,-0.4982,0.2087,4.1739,-0.487
2050,0.2682,-9.7334,-0.4598,0.487,4.3826,-0.487
2055,0.1916,-9.81,-0.5365,0.3478,4.4522,-0.487
2060,0.2682,-9.695,-0.4982,0.1391,4.5913,-0.487
2065,0.2299,-9.7334,-0.4982,0.0,4.7304,-0.487
2070,0.1916,-9.7717,-0.4982,-0.2783,4.7304,-0.4174
2075,0.3066,-9.695,-0.5365,-0.487,4.7304,-0.4174
2080,0.2299,-9.7717,-0.5748,-0.4174,4.8696,-0.2783
2085,0.2682,-9.81,-0.4982,-0.5565,4.8696,-0.4174
2090,0.2682,-9.7334,-0.4598,-0.5565,5.0087,-0.2783
2095,0.3066,-9.8866,-0.4982,-0.5565,5.0087,-0.4174
2100,0.2682,-9.8483,-0.5748,-0.4174,4.8696,-0.2087
2105,0.1916,-9.7717,-0.4215,-0.2087,4.7304,-0.3478
2110,0.1533,-9.8483,-0.4598,-0.1391,4.8,-0.3478
2115,0.2299,-9.8483,-0.6131,0.0,4.7304,-0.3478
2120,0.2682,-9.6567,-0.5365,0.0,4.7304,-0.2783
2125,0.2682,-9.8483,-0.5365,0.0,4.7304,-0.2783
2130,0.3066,-9.7717,-0.4598,-0.1391,4.9391,-0.2087
2135,0.2299,-9.81,-0.3449,-0.2783,5.0087,-0.2783
2140,0.2299,-9.7334,-0.4598,-0.487,5.0783,-0.2783
2145,0.1916,-9.695,-0.4215,-0.5565,5.0783,-0.2783
2150,0.2682,-9.81,-0.4598,-0.6261,5.0783,-0.1391
2155,0.3066,-9.7717,-0.4982,-0.7652,5.1478,-0.2087
2160,0.1916,-9.81,-0.4598,-0.9043,5.1478,-0.0696
2165,0.2299,-9.695,-0.4598,-0.9739,5.2174,-0.2087
2170,1.0346,-9.925,-0.0766,-0.9043,5.1478,-0.2087
2175,0.3449,-9.8483,-0.6131,-0.9043,5.0087,-0.3478
2180,0.3066,-9.8866,-0.4598,-1.0435,4.9391,-0.2783
2185,0.3066,-9.8483,-0.4215,-0.9739,4.9391,-0.3478
2190,0.2299,-9.81,-0.5365,-1.0435,4.7304,-0.1391
2195,0.115,-9.7334,-0.4598,-1.0435,4.8,-0.2783
2200,0.1533,-9.7334,-0.5748,-1.0435,4.6609,-0.1391
2205,0.2299,-9.8866,-0.5748,-0.9739,4.8,-0.2783
2210,0.1533,-9.81,-0.4982,-1.0435,4.8696,-0.1391
2215,0.115,-9.7717,-0.4982,-1.0435,5.2174,-0.1391
2220,0.1533,-9.7334,-0.4982,-1.0435,5.3565,-0.0696
2225,0.1916,-9.81,-0.4598,-0.9739,5.4957,-0.2087
2230,0.115,-9.7334,-0.4598,-1.113,5.6348,-0.0696
2235,0.2299,-9.6567,-0.5365,-1.1826,5.7043,-0.2783
2240,0.2299,-9.6567,-0.3832,-1.3217,5.5652,-0.2087
2245,0.2299,-9.8483,-0.5365,-1.3913,5.6348,-0.3478
2250,0.3066,-9.7717,-0.5365,-1.3217,5.4957,-0.2783
2255,0.1916,-9.8483,-0.5748,-1.3217,5.0783,-0.487
2260,0.0766,-9.8866,-0.3832,-1.2522,4.8696,-0.2783
2265,0.2299,-9.81,-0.4598,-1.3217,4.6609,-0.5565
2270,0.1533,-9.7334,-0.4982,-1.1826,4.6609,-0.4174
2275,0.0766,-9.7717,-0.3449,-1.0435,4.6609,-0.487
2280,0.1916,-9.8866,-0.4982,-1.0435,4.5913,-0.3478
2285,0.1533,-9.7334,-0.5365,-0.9739,4.5913,-0.4174
2290,0.2299,-9.81,-0.4982,-1.113,4.6609,-0.4174
2295,0.2299,-9.8483,-0.4982,-1.1826,4.5913,-0.487
2300,0.2299,-9.8483,-0.4598,-1.2522,4.5913,-0.3478
2305,0.3066,-9.7717,-0.6131,-1.3217,4.6609,-0.5565
2310,0.2682,-9.8483,-0.5365,-1.2522,4.5913,-0.2783
2315,0.1533,-9.81,-0.4982,-1.113,4.4522,-0.5565
2320,0.3066,-9.695,-0.4598,-1.113,4.4522,-0.4174
2325,0.2682,-9.8483,-0.5748,-1.113,4.3826,-0.5565
2330,0.2682,-9.6567,-0.6131,-1.2522,4.3826,-0.487
2335,0.2682,-9.81,-0.4982,-1.3913,4.3826,-0.6261
2340,0.2682,-9.7717,-0.4982,-1.7391,4.3826,-0.487
2345,0.1533,-9.7334,-0.5748,-2.1565,4.3826,-0.6957
2350,0.2682,-9.695,-0.4598,-2.2957,4.313,-0.5565
2355,0.1916,-9.7334,-0.4215,-2.4348,4.313,-0.6261
2360,0.3066,-9.7334,-0.4982,-2.6435,4.313,-0.3478
2365,0.2299,-9.81,-0.4982,-2.6435,4.3826,-0.487
2370,0.2682,-9.8866,-0.4598,-2.713,4.313,-0.4174
2375,0.1533,-9.8866,-0.3066,-2.7826,4.313,-0.5565
2380,0.1916,-9.81,-0.5365,-2.5739,4.1043,-0.3478
2385,0.1916,-9.925,-0.5365,-2.1565,4.0348,-0.5565
2390,0.2682,-9.7717,-0.5748,-1.8783,3.9652,-0.3478
2395,0.3449,-9.7334,-0.5365,-1.7391,3.8957,-0.487
2400,0.3066,-9.695,-0.6131,-1.6,3.7565,-0.3478
2405,0.2299,-9.695,-0.6131,-1.6,3.8261,-0.5565
2410,0.1533,-9.7717,-0.5748,-2.1565,3.9652,-0.3478
2415,0.1916,-9.695,-0.6514,-2.6435,4.2435,-0.487
2420,0.3066,-9.6567,-0.3832,-3.0609,4.5913,-0.2783
2425,0.1916,-9.7717,-0.4215,-3.0609,4.7304,-0.4174
2430,0.2299,-9.81,-0.4982,-3.2696,4.6609,-0.2783
2435,0.2682,-9.8866,-0.3066,-3.0609,4.6609,-0.5565
2440,0.1916,-9.81,-0.4215,-2.8522,4.5913,-0.3478
2445,0.3449,-9.8866,-0.3066,-2.5739,4.5913,-0.487
2450,0.2299,-9.81,-0.5365,-2.3652,4.5913,-0.2087
2455,0.2299,-9.8483,-0.6898,-2.3652,4.6609,-0.3478
2460,0.1533,-9.7717,-0.5748,-2.5739,4.8,-0.1391
2465,0.3066,-9.695,-0.6131,-2.713,4.9391,-0.3478
2470,0.1533,-9.695,-0.5365,-2.8522,5.0783,-0.2087
2475,0.1916,-9.695,-0.6514,-2.9913,5.2174,-0.3478
2480,0.1533,-9.7717,-0.4215,-2.9913,5.3565,-0.2087
2485,0.1533,-9.7334,-0.5748,-3.0609,5.287,-0.4174
2490,0.3066,-9.695,-0.6514,-3.1304,5.3565,-0.2783
2495,0.1533,-9.6567,-0.5748,-3.2,5.287,-0.487
2500,0.1533,-9.695,-0.5748,-3.0609,5.0783,-0.2783
2505,0.1533,-9.695,-0.6131,-3.0609,5.0087,-0.4174
2510,0.1916,-9.8483,-0.6514,-3.2696,5.0087,-0.2783
2515,0.1916,-9.81,-0.6898,-3.687,5.1478,-0.3478
2520,0.115,-9.7717,-0.4982,-4.0348,5.1478,-0.1391
2525,0.1916,-9.6567,-0.6514,-4.1739,5.3565,-0.2783
2530,0.3066,-9.7717,-0.6131,-4.313,5.6348,-0.1391
2535,0.2682,-9.695,-0.5365,-4.4522,5.913,-0.4174
2540,0.2299,-9.7717,-0.8047,-4.4522,6.0522,-0.5565
2545,0.1916,-9.7334,-0.5748,-4.5217,6.1217,-0.9739
2550,0.2299,-9.695,-0.5748,-4.7304,6.1913,-0.9043
2555,0.1916,-9.7717,-0.6514,-4.8,6.1913,-1.1826
2560,0.2682,-9.7717,-0.6131,-4.7304,6.0522,-1.113
2565,0.2299,-9.8866,-0.5748,-4.5217,5.7739,-1.3217
2570,0.2682,-9.8866,-0.6514,-4.2435,5.7043,-1.1826
2575,0.3832,-9.8483,-0.6131,-3.8957,5.5652,-1.3217
2580,0.2682,-9.7717,-0.7281,-3.5478,5.5652,-1.113
2585,0.1533,-9.7717,-0.4982,-3.0609,5.6348,-1.2522
2590,0.1916,-9.7717,-0.7664,-2.7826,5.6348,-1.0435
2595,0.3066,-9.81,-0.7281,-2.5739,5.6348,-1.113
2600,0.1916,-9.695,-0.4982,-2.5043,5.7043,-1.0435
2605,0.2299,-9.7334,-0.6898,-2.4348,5.7739,-1.0435
2610,0.2299,-9.81,-0.5748,-2.5739,5.7043,-0.9043
2615,0.2299,-9.695,-0.5365,-2.713,5.6348,-1.0435
2620,0.115,-9.7334,-0.6131,-2.9913,5.4957,-0.8348
2625,0.1533,-9.7334,-0.6514,-3.2696,5.4957,-0.9739
2630,0.3066,-9.81,-0.5365,-3.5478,5.4957,-0.9739
2635,0.3449,-9.8483,-0.5748,-3.8957,5.3565,-1.0435
2640,0.1533,-9.7717,-0.4982,-3.9652,5.1478,-0.9043
2645,0.1533,-9.7717,-0.6514,-3.8957,5.0087,-0.8348
2650,0.2682,-9.8483,-0.4598,-3.687,4.8,-0.7652
2655,0.3066,-9.8483,-0.4982,-3.4087,4.6609,-0.8348
2660,0.2682,-9.7717,-0.4598,-3.1304,4.4522,-0.7652
2665,0.3449,-9.7717,-0.4598,-2.9913,4.2435,-1.0435
2670,0.2299,-9.695,-0.4982,-2.9217,4.1043,-0.8348
2675,0.3066,-9.7717,-0.3449,-2.9217,4.0348,-0.8348
2680,0.3449,-9.695,-0.5365,-2.9913,4.0348,-0.7652
2685,0.3449,-9.6567,-0.4982,-3.2,4.0348,-0.9739
2690,0.3066,-9.6567,-0.4215,-3.6174,4.1043,-0.9043
2695,0.3449,-9.6184,-0.4215,-4.1043,4.1739,-0.9739
2700,0.1916,-9.5418,-0.4598,-4.5913,4.1043,-0.9043
2705,0.3066,-9.5801,-0.4598,-5.3565,4.1739,-1.0435
2710,0.2682,-9.5418,-0.5365,-6.3304,4.0348,-0.9739
2715,0.3066,-9.5034,-0.3832,-7.3043,4.1043,-0.9739
2720,0.3449,-9.6567,-0.4598,-8.2087,4.0348,-0.8348
2725,0.3449,-9.695,-0.3832,-8.9043,3.9652,-0.9043
2730,0.2682,-9.6184,-0.4598,-9.6,3.9652,-0.9043
2735,0.2299,-9.695,-0.4982,-10.1565,3.8261,-0.9739
2740,0.2299,-9.6184,-0.4598,-10.6435,3.7565,-0.8348
2745,0.1533,-9.6184,-0.4215,-11.1304,3.4783,-0.9739
2750,0.2299,-9.6184,-0.5365,-11.5478,3.3391,-0.9043
2755,0.1533,-9.695,-0.6131,-11.8957,3.1304,-0.8348
2760,0.1916,-9.695,-0.6131,-12.313,2.9217,-0.9043
2765,0.1916,-9.7717,-0.6514,-12.8,2.713,-0.9043
2770,0.115,-9.6184,-0.6131,-12.8696,2.5739,-0.9043
2775,0.115,-9.7334,-0.5365,-12.9391,2.4348,-0.9739
2780,0.1533,-9.7334,-0.4598,-13.0087,2.5043,-0.9043
2785,0.3066,-9.7717,-0.7281,-12.8696,2.6435,-0.9739
2790,0.1533,-9.695,-0.5365,-12.8,2.8522,-0.9043
2795,0.2682,-9.5801,-0.6514,-12.9391,3.0609,-0.9739
2800,0.2682,-9.695,-0.7281,-13.287,3.1304,-0.9739
2805,0.2299,-9.6567,-0.6898,-13.7043,3.2696,-0.9043
2810,0.1916,-9.7334,-0.7664,-14.1913,3.2696,-0.9739
2815,0.1533,-9.5801,-0.843,-14.8174,3.2696,-1.0435
2820,0.1916,-9.7334,-0.6131,-15.1652,3.4087,-1.0435
2825,0.2682,-9.695,-0.7664,-15.3043,3.2696,-1.0435
2830,0.2299,-9.695,-0.7664,-15.3739,3.3391,-1.0435
2835,0.1916,-9.7334,-0.7281,-15.3043,3.2696,-1.0435
2840,0.2682,-9.6567,-0.8047,-15.3739,3.2696,-0.9739
2845,0.3066,-9.695,-0.7664,-15.5826,3.2696,-1.0435
2850,0.2299,-9.7334,-0.8814,-15.7913,3.3391,-0.9043
2855,0.2299,-9.695,-0.8814,-16.2087,3.4783,-0.9739
2860,0.3449,-9.7334,-0.9963,-16.5565,3.3391,-0.9739
2865,0.1916,-9.695,-0.7664,-16.9043,3.2696,-0.9043
2870,0.3449,-9.695,-0.958,-17.0435,3.1304,-0.9043
2875,0.3449,-9.6567,-0.958,-17.2522,3.1304,-0.9043
2880,0.2299,-9.695,-0.843,-17.3913,2.9913,-0.8348
2885,0.2682,-9.7334,-0.9963,-17.4609,2.9217,-0.6957
2890,0.3066,-9.7334,-1.0346,-17.7391,2.7826,-0.7652
2895,0.3449,-9.695,-1.0346,-17.9478,2.5739,-0.6957
2900,0.3066,-9.6567,-1.1113,-18.1565,2.4348,-0.6957
2905,0.3066,-9.7334,-1.073,-18.2957,2.3652,-0.6261
2910,0.3832,-9.7334,-0.9197,-18.3652,2.2261,-0.6957
2915,0.4215,-9.81,-1.1113,-18.5739,2.1565,-0.6261
2920,0.1916,-9.7334,-1.1113,-18.713,2.1565,-0.5565
2925,0.3066,-9.7717,-1.3029,-18.9217,2.2957,-0.487
2930,0.3066,-9.6567,-1.2263,-18.9913,2.2957,-0.5565
2935,0.2299,-9.7717,-1.2263,-19.2696,2.4348,-0.487
2940,0.3449,-9.7334,-1.2263,-19.687,2.5043,-0.7652
2945,0.2299,-9.695,-1.2263,-19.8957,2.6435,-0.8348
2950,0.2682,-9.695,-1.3795,-20.2435,2.7826,-1.0435
2955,0.1533,-9.7334,-1.2646,-20.313,3.0609,-1.113
2960,0.2682,-9.6184,-1.2263,-20.3826,3.1304,-1.3217
2965,0.2299,-9.8483,-1.2646,-20.313,3.4087,-1.3913
2970,0.2682,-9.81,-1.3412,-20.1739,3.687,-1.5304
2975,0.3832,-9.7717,-1.2646,-19.7565,4.1043,-1.5304
2980,0.2682,-9.8483,-1.2646,-19.2696,4.3826,-1.6696
2985,0.2682,-9.81,-1.3795,-18.4348,4.5217,-1.5304
2990,0.3449,-9.7717,-1.4562,-17.6696,4.5913,-1.6
2995,0.2682,-9.695,-1.4562,-17.1826,4.6609,-1.5304
