timestamp,accX,accY,accZ,gyroX,gyroY,gyroZ
0,7.8173,-2.6441,3.6787,22.7478,-14.887,-3.9652
5,7.779,-2.4525,3.9087,21.9826,-14.887,-4.9391
10,7.8173,-2.2226,3.7171,21.0087,-14.5391,-5.3565
15,7.7407,-1.9927,3.832,19.7565,-13.8435,-5.4261
20,7.894,-1.7244,4.062,17.6,-13.0783,-5.287
25,7.894,-1.7627,4.1386,14.7478,-12.1739,-5.0087
30,8.0473,-1.7244,4.2152,11.687,-11.2696,-5.0783
35,8.2005,-1.4945,4.5218,8.3478,-10.3652,-5.6348
40,8.4688,-1.8011,4.2919,5.0087,-9.0435,-6.0522
45,8.6987,-2.0693,4.3685,1.8783,-7.2348,-6.3304
50,8.8903,-2.2226,4.2919,-0.9739,-4.8,-6.4696
55,8.9286,-2.2992,4.2152,-3.5478,-1.3217,-6.2609
60,8.6604,-2.4142,4.1386,-5.7739,1.8783,-5.7739
65,8.6987,-2.6441,3.947,-8.0696,5.0087,-5.0087
70,8.6221,-2.7207,3.8704,-10.087,7.7217,-3.8261
75,8.6221,-2.874,3.8704,-11.687,9.6,-3.3391
80,8.8137,-2.9507,3.7171,-12.5217,9.7391,-3.2
85,8.852,-3.1806,3.832,-12.4522,7.9304,-3.687
90,8.9286,-3.0273,3.7171,-11.4087,4.5217,-4.5913
95,9.0053,-3.0273,3.5255,-10.2957,0.2783,-5.8435
100,8.967,-2.9507,3.2955,-9.3913,-3.8957,-7.2348
105,8.852,-2.7591,3.1806,-8.9043,-6.9565,-8.6261
110,8.8137,-2.7207,3.2189,-8.4174,-8.8348,-9.9478
115,8.8137,-2.8357,3.1806,-7.5826,-9.4609,-11.1304
120,8.6604,-2.7207,3.1806,-6.5391,-9.5304,-12.313
125,8.4305,-2.6824,3.1423,-5.6348,-10.3652,-13.7043
130,8.4688,-2.7591,3.4871,-4.8696,-12.1739,-15.3739
135,8.4688,-2.4525,3.4488,-4.6609,-14.6087,-17.113
140,8.6221,-2.4525,3.6787,-5.0087,-17.2522,-18.7826
145,8.5071,-2.4142,3.3722,-5.6348,-19.4783,-20.1739
150,8.5071,-2.6441,3.7554,-6.1913,-21.287,-21.2174
155,8.5454,-2.7207,3.832,-6.1217,-22.9565,-21.6348
160,8.4688,-2.7591,4.0236,-5.1478,-24.2783,-21.9826
165,8.3921,-2.7207,4.062,-3.7565,-25.3913,-22.2609
170,8.2389,-2.6824,4.1003,-2.3652,-26.9913,-22.3304
175,8.0856,-2.5291,3.9853,-1.5304,-29.2174,-22.4
180,8.0089,-2.2226,4.0236,-1.3913,-32.2783,-22.3304
185,8.0856,-2.1076,3.9853,-2.3652,-35.9652,-22.1217
190,7.9706,-1.9927,3.7937,-4.0348,-39.4435,-21.913
195,8.0089,-1.916,3.7937,-6.2609,-42.713,-21.8435
200,8.0089,-1.9543,3.7171,-8.5565,-45.7043,-21.5652
205,8.1622,-1.9927,3.5638,-10.7826,-48.2087,-21.0783
210,8.1622,-2.031,3.4871,-12.3826,-50.3652,-20.1739
215,8.2005,-2.1459,3.5255,-13.1478,-52.0348,-18.9913
220,8.2389,-2.2226,3.3722,-13.0783,-53.4957,-17.6
225,8.3921,-2.2609,3.2955,-12.1739,-54.5391,-16.487
230,8.5071,-2.2609,3.0656,-10.8522,-54.887,-15.5826
235,8.6987,-2.1459,2.989,-9.6696,-54.7478,-14.7478
240,8.8903,-2.3375,2.8357,-8.487,-54.2609,-14.4696
245,9.0436,-2.4142,2.7591,-7.0957,-53.4957,-14.5391
250,9.1202,-2.5291,2.6824,-5.287,-52.313,-14.887
255,9.1586,-2.4525,2.6824,-2.9913,-50.713,-15.2348
260,9.3118,-2.5291,2.6058,-0.2087,-48.9739,-15.5826
265,9.1969,-2.4908,2.5675,2.9217,-47.4435,-15.7913
270,9.1202,-2.5675,2.4142,5.8435,-45.8435,-15.8609
275,9.1969,-2.3759,2.4142,8.8348,-44.5217,-16.0
280,9.2352,-2.3375,2.3759,11.9652,-43.3391,-15.9304
285,9.1969,-2.1843,2.4525,14.5391,-42.3652,-15.7217
290,9.1586,-2.1459,2.7207,16.2783,-41.6,-15.513
295,9.1202,-2.1843,2.8357,17.8087,-40.8348,-15.6522
300,9.3118,-2.1843,2.989,18.8522,-40.0,-16.0
305,9.1202,-2.1076,3.1039,19.7565,-39.3043,-16.6261
310,9.0436,-2.031,3.0656,20.7304,-38.6783,-17.5304
315,8.8903,-1.8394,3.1806,21.4261,-37.9826,-18.8522
320,8.737,-1.6478,3.1039,22.1913,-37.287,-20.313
325,8.4688,-1.4562,3.1423,22.0522,-36.4522,-21.3565
330,8.4688,-1.2263,3.2189,21.0087,-35.7565,-21.8435
335,8.2005,-1.1113,3.0273,19.4783,-35.4783,-22.1217
340,8.2772,-1.0346,2.989,17.4609,-35.3391,-22.1913
345,8.4688,-0.9197,2.9507,15.2348,-35.2,-22.2609
350,8.5838,-0.9963,2.9507,12.7304,-34.1565,-22.2609
355,8.6604,-0.9197,2.6824,10.2261,-32.0696,-21.9826
360,8.6987,-0.843,3.0656,7.7913,-29.287,-21.5652
365,8.8137,-0.7281,3.1039,5.5652,-25.8087,-21.0087
370,9.0436,-0.9197,3.0656,3.9652,-22.1217,-20.1043
375,9.1586,-1.0346,3.0273,2.6435,-18.4348,-19.0609
380,9.3118,-1.1496,3.1423,1.8087,-14.887,-18.087
385,9.4268,-1.1879,3.1806,1.2522,-11.8957,-16.9043
390,9.4651,-1.3795,3.3722,1.0435,-9.3217,-15.6522
395,9.5034,-1.3795,3.1806,0.9043,-7.3739,-14.3304
400,9.5034,-1.3795,3.1423,0.6261,-6.4,-13.0087
405,9.5034,-1.3412,3.1806,0.487,-6.3304,-11.9652
410,9.5034,-1.3412,2.6441,0.0,-7.3043,-11.1304
415,9.3885,-1.3029,2.4525,-0.5565,-8.9739,-10.2957
420,9.5034,-1.3412,2.4142,-1.1826,-11.0609,-9.7391
425,9.5801,-1.3412,2.1076,-1.5304,-13.2174,-9.113
430,9.6184,-1.3795,1.916,-1.6,-15.2348,-8.9043
435,9.695,-1.4562,1.8394,-1.1826,-17.113,-8.8348
440,9.6567,-1.4945,1.8777,-0.487,-18.5043,-8.9739
445,9.7334,-1.4945,1.8011,0.3478,-19.3391,-9.2522
450,9.6567,-1.5328,1.7627,1.2522,-19.5478,-9.6696
455,9.695,-1.5328,1.8011,2.2261,-19.4087,-10.087
460,9.5801,-1.4562,1.8777,3.3391,-19.0609,-10.3652
465,9.4651,-1.3029,1.7244,4.3826,-18.5739,-10.7826
470,9.4651,-1.2646,1.6478,5.2174,-17.9478,-10.5043
475,9.3502,-1.0346,1.4945,5.6348,-17.113,-10.0174
480,9.5801,-1.073,1.4562,5.7043,-16.0,-9.4609
485,9.6184,-0.8814,1.4945,5.5652,-14.5391,-8.8348
490,9.6567,-0.9197,1.4179,5.4957,-12.5913,-8.2087
495,9.695,-0.8814,1.3795,5.4957,-10.3652,-7.513
500,9.7334,-0.7664,1.4562,5.4261,-7.6522,-6.887
505,9.695,-0.6514,1.3412,5.0783,-4.5913,-6.3304
510,9.695,-0.5365,1.5328,4.3826,-1.5304,-5.7043
515,9.8483,-0.5748,1.3795,3.1304,1.7391,-4.8
520,9.9633,-0.8047,1.5328,1.9478,4.9391,-3.9652
525,10.0016,-0.7281,1.6478,1.0435,8.2783,-3.3391
530,10.0016,-1.073,1.6861,0.9043,11.4783,-3.2
535,10.0782,-1.1113,1.7244,1.5304,14.3304,-3.5478
540,9.9633,-1.1879,1.7627,2.7826,16.8348,-3.8261
545,9.8866,-1.4562,1.916,4.2435,18.713,-4.0348
550,9.7717,-1.4945,1.9543,5.7739,19.8261,-4.6609
555,9.7717,-1.5711,1.7244,6.6087,19.687,-4.9391
560,9.81,-1.6095,1.6861,7.1652,18.7826,-4.8696
565,9.7334,-1.7627,1.5711,7.8609,17.1826,-4.3826
570,9.6567,-1.7627,1.6095,8.6261,15.3739,-3.9652
575,9.7717,-1.8777,1.5711,9.7391,13.2174,-3.6174
580,9.81,-1.916,1.4562,11.2,11.1304,-3.7565
585,9.4651,-1.8011,1.6861,12.4522,9.5304,-4.0348
590,9.3502,-1.7627,1.6861,13.287,8.2087,-4.1739
595,9.1586,-1.6478,1.8011,13.7739,7.0957,-3.9652
600,9.1202,-1.4945,1.7627,14.0522,6.4696,-3.6174
605,9.0819,-1.3412,1.8777,13.913,6.7478,-2.9217
610,9.2352,-1.2646,1.8394,13.4261,7.9304,-1.8087
615,9.3502,-0.9963,1.8394,12.313,10.1565,-0.6261
620,9.2735,-0.8814,1.7244,10.6435,12.8696,1.113
625,9.3885,-0.7664,1.7627,8.7652,15.2348,2.8522
630,9.4651,-0.8047,1.7627,6.6087,16.487,4.313
635,9.6184,-0.843,1.7244,4.3826,16.6957,5.4957
640,9.5418,-0.958,1.916,2.3652,15.7217,6.1217
645,9.695,-0.9963,1.9543,0.487,13.9826,6.8174
650,9.695,-1.2263,2.031,-0.6957,11.5478,7.0957
655,9.81,-1.3795,2.1843,-1.1826,9.0435,7.0957
660,9.7334,-1.3795,2.2226,-1.2522,6.7478,6.9565
665,9.7717,-1.4179,2.2609,-1.1826,4.7304,6.4696
670,9.695,-1.5711,2.4142,-0.9043,2.9217,5.6348
675,9.6567,-1.6861,2.4525,-0.9739,1.4609,4.9391
680,9.7717,-1.6861,2.4142,-1.1826,0.0,3.8957
685,9.7334,-1.7244,2.4142,-1.3913,-1.3217,2.713
690,9.6184,-1.3795,2.2609,-1.6696,-2.2957,1.5304
695,9.6567,-1.6478,2.2609,-2.087,-2.9913,0.5565
700,9.5801,-1.7244,2.1459,-2.3652,-3.3391,-0.4174
705,9.5418,-1.8394,2.2226,-2.5043,-3.7565,-1.3217
710,9.5034,-1.8011,2.0693,-2.3652,-4.0348,-2.087
715,9.5801,-1.6861,1.8394,-2.5739,-3.8261,-2.6435
720,9.5418,-1.6478,1.9543,-2.9913,-3.4783,-3.3391
725,9.4651,-1.4562,1.8011,-3.687,-2.713,-3.6174
730,9.5418,-1.3412,1.6478,-4.7304,-1.6,-3.8261
735,9.6567,-1.2263,1.4945,-6.1217,-0.0696,-4.1043
740,9.7334,-1.2263,1.4179,-7.7217,1.7391,-4.1043
745,9.7334,-1.1113,1.3412,-9.3913,3.8261,-3.8957
750,9.81,-1.1496,1.2263,-10.6435,5.913,-3.8261
755,9.925,-1.2646,1.1879,-11.8261,7.7913,-3.687
760,9.925,-1.1879,1.073,-12.6609,9.113,-3.4087
765,9.8866,-1.1496,1.073,-13.287,9.9478,-3.4087
770,9.925,-1.2646,0.9963,-13.3565,10.6435,-3.2696
775,9.8866,-1.1879,1.1496,-12.9391,10.7826,-3.3391
780,9.8866,-1.2263,1.2263,-12.5217,10.6435,-3.2
785,9.8483,-1.3412,1.1879,-12.313,10.2261,-3.2
790,9.7717,-1.3029,1.2646,-11.9652,9.4609,-3.2696
795,9.6567,-1.3412,1.4562,-12.0348,8.6261,-3.5478
800,9.5801,-1.2646,1.3795,-12.2435,7.7217,-3.8957
805,9.695,-1.3795,1.5328,-12.6609,6.9565,-4.5217
810,9.4651,-1.4945,1.5711,-13.0783,6.5391,-5.0087
815,9.5418,-1.6095,1.6861,-13.287,6.3304,-5.6348
820,9.3885,-1.5711,1.6478,-13.4261,6.4696,-6.1913
825,9.3885,-1.6095,1.7244,-13.2174,6.887,-6.6087
830,9.2735,-1.6095,1.8777,-12.5217,7.3739,-7.2348
835,9.2352,-1.5711,1.8011,-11.8261,8.0,-7.513
840,9.1586,-1.4562,1.8394,-10.9913,8.9043,-7.7217
845,9.2352,-1.4945,1.9543,-10.0174,9.8087,-7.7913
850,9.4268,-1.6095,2.031,-8.8348,10.8522,-7.7217
855,9.3885,-1.5711,1.9927,-7.5826,11.8261,-7.6522
860,9.3502,-1.4945,2.1459,-6.2609,12.6609,-7.7217
865,9.5034,-1.5711,2.1843,-5.287,13.3565,-7.7217
870,9.4268,-1.5328,2.1843,-4.5217,13.4957,-7.9304
875,9.3885,-1.4562,2.2226,-3.9652,13.287,-8.0
880,9.5418,-1.4945,2.3375,-3.5478,13.0087,-7.9304
885,9.4268,-1.2646,2.2609,-3.3391,12.313,-8.0696
890,9.5034,-1.2646,2.2609,-3.2,11.5478,-8.0696
895,9.4651,-1.2646,2.2992,-3.0609,10.6435,-8.0696
900,9.5034,-1.1879,2.3759,-3.2,9.6696,-8.2087
905,9.5801,-1.1496,2.4142,-3.4783,8.6261,-8.3478
910,9.5801,-1.1879,2.3375,-3.8957,7.4435,-8.3478
915,9.6567,-1.3029,2.2609,-4.3826,6.3304,-8.4174
920,9.6184,-1.1879,2.2609,-4.8696,5.2174,-8.3478
925,9.7334,-1.2646,2.2609,-5.2174,4.1739,-8.4174
930,9.7334,-1.1496,2.1076,-5.4261,3.2,-8.2783
935,9.6567,-1.1496,1.9543,-5.5652,2.4348,-8.3478
940,9.7717,-1.1496,2.1076,-5.7043,1.7391,-8.2783
945,9.5801,-1.1496,2.031,-5.7739,0.9739,-8.2087
950,9.6567,-1.1113,1.8777,-5.7043,0.2783,-8.0
955,9.6184,-1.0346,1.916,-5.913,-0.3478,-7.9304
960,9.5801,-1.1496,1.7627,-5.913,-0.9739,-7.8609
965,9.4651,-1.073,1.8777,-5.8435,-1.2522,-7.6522
970,9.4651,-1.1496,1.7627,-5.4957,-1.1826,-7.513
975,9.5418,-1.1113,1.8777,-5.2174,-0.9739,-7.513
980,9.5034,-0.9197,1.7244,-4.8696,-0.6261,-7.3739
985,9.6184,-0.9963,1.8011,-4.6609,0.0696,-7.2348
990,9.6184,-1.0346,1.7244,-4.2435,0.9043,-7.0957
995,9.6184,-0.9197,1.8394,-3.8957,1.8783,-6.9565
1000,9.5418,-0.8047,1.7627,-3.687,2.9913,-6.6783
1005,9.6567,-0.8814,1.7627,-3.4087,4.1043,-6.3304
1010,9.5418,-0.7664,1.7244,-3.2696,5.287,-6.1217
1015,9.695,-0.8814,1.7244,-3.2696,6.4696,-5.7739
1020,9.7334,-0.8047,1.8011,-3.2696,7.513,-5.4957
1025,9.7717,-0.7664,1.9543,-3.0609,8.487,-5.2174
1030,9.7334,-0.8047,1.7244,-2.9217,9.6696,-5.0783
1035,9.7717,-0.9197,1.8394,-2.713,10.6435,-4.8696
1040,9.8483,-0.7664,1.8777,-2.5739,11.4783,-4.6609
1045,9.7717,-0.8047,1.8394,-2.3652,12.0348,-4.2435
1050,9.8483,-0.9197,1.8011,-2.087,12.5913,-3.8957
1055,9.8866,-0.9197,2.031,-1.8087,12.8696,-3.4087
1060,9.7717,-0.843,1.8394,-1.7391,12.9391,-2.9913
1065,9.8483,-0.8047,1.9927,-1.6,12.8696,-2.5739
1070,9.7334,-0.8814,1.9543,-1.3913,12.5217,-2.1565
1075,9.81,-0.8814,1.8777,-1.4609,12.0348,-1.6696
1080,9.81,-0.9963,1.7244,-1.3913,11.687,-1.3217
1085,9.81,-1.0346,1.9927,-1.5304,11.0609,-1.113
1090,9.7334,-0.9963,1.8011,-1.8783,10.6435,-0.8348
1095,9.695,-0.9197,1.8011,-2.087,10.2261,-0.6261
1100,9.695,-1.0346,1.8394,-2.2261,9.8783,-0.487
1105,9.6567,-1.1879,1.916,-2.2957,9.6,-0.2783
1110,9.6567,-1.073,1.9543,-2.3652,9.3217,-0.2087
1115,9.6184,-1.1496,1.8777,-2.2957,9.113,-0.0696
1120,9.5801,-1.0346,2.0693,-2.087,9.0435,-0.1391
1125,9.3502,-1.073,1.5328,-1.8087,9.1826,-0.1391
1130,9.5418,-1.1113,2.0693,-1.4609,9.5304,-0.1391
1135,9.6567,-1.2263,1.9543,-1.0435,9.9478,0.0696
1140,9.5034,-1.1879,1.8777,-0.3478,10.7826,0.2087
1145,9.5801,-1.1113,1.916,0.3478,11.4087,0.2783
1150,9.5418,-1.1496,1.9927,1.1826,11.9652,0.3478
1155,9.5418,-0.9963,2.031,1.6,12.6609,0.3478
1160,9.6567,-1.1113,1.916,2.0174,13.2174,0.3478
1165,9.4268,-0.9963,2.1459,1.8087,13.7739,0.4174
1170,9.4651,-1.1496,2.1459,1.4609,14.1217,0.5565
1175,9.5418,-1.073,1.8777,1.1826,14.1217,0.6957
1180,9.5418,-0.9197,1.9927,0.6957,14.0522,0.9739
1185,9.5418,-0.958,2.1843,0.2783,13.8435,1.1826
1190,9.5801,-0.9197,2.1076,-0.2783,13.4957,1.2522
1195,9.5801,-1.1113,2.2226,-0.7652,13.287,1.3217
1200,9.695,-1.1496,2.1076,-1.3217,13.0783,1.2522
1205,9.6184,-1.2263,2.2226,-1.7391,12.8696,1.1826
1210,9.6184,-1.0346,2.0693,-2.087,12.5913,1.0435
1215,9.5801,-0.9963,2.2609,-2.5043,12.3826,0.9739
1220,9.5034,-1.0346,2.2609,-2.713,12.0348,0.8348
1225,9.5034,-1.2263,2.2226,-2.9913,11.8261,0.7652
1230,9.4651,-1.1879,2.3759,-3.2,11.3391,0.6261
1235,9.4268,-1.1496,2.4525,-3.4087,11.0609,0.6261
1240,9.4268,-1.0346,2.4142,-3.4087,10.8522,0.6261
1245,9.3118,-1.073,2.5291,-3.4783,10.5739,0.5565
1250,9.4268,-1.0346,2.4142,-3.5478,10.4348,0.6261
1255,9.3502,-1.1113,2.3375,-3.687,10.2261,0.487
1260,9.3885,-1.0346,2.2992,-3.5478,10.087,0.5565
1265,9.4651,-0.9963,2.4142,-3.687,10.087,0.4174
1270,9.3885,-1.1113,2.4142,-3.7565,10.0174,0.2783
1275,9.3885,-1.0346,2.2992,-3.8957,9.8087,0.1391
1280,9.3118,-1.0346,2.3375,-3.9652,9.6696,0.2087
1285,9.3118,-0.9963,2.2992,-3.9652,9.4609,0.0696
1290,9.3118,-1.2263,2.2992,-3.8957,9.3913,0.0
1295,9.4268,-1.1879,2.2609,-3.8261,9.3217,0.0
1300,9.3885,-1.1879,2.4142,-3.687,9.3913,-0.1391
1305,9.2735,-1.1113,2.3375,-3.4087,9.3913,-0.1391
1310,9.3118,-1.2263,2.4908,-3.0609,9.3217,-0.1391
1315,9.3118,-1.1879,2.3375,-2.713,9.4609,-0.2087
1320,9.3502,-1.1113,2.2992,-2.3652,9.4609,-0.2087
1325,9.3118,-1.1879,2.3375,-2.1565,9.4609,-0.3478
1330,9.3118,-1.073,2.3759,-1.8783,9.2522,-0.4174
1335,9.4268,-1.1879,2.3375,-1.7391,9.0435,-0.487
1340,9.2735,-1.073,2.3759,-1.7391,8.6261,-0.6261
1345,9.3885,-1.0346,2.3759,-1.8087,8.3478,-0.7652
1350,9.3118,-1.0346,2.4525,-2.087,8.0696,-0.7652
1355,9.4651,-1.073,2.3375,-2.2957,7.7217,-0.6261
1360,9.3502,-1.073,2.4142,-2.713,7.3043,-0.7652
1365,9.4268,-1.1113,2.2226,-3.0609,6.8174,-0.8348
1370,9.4651,-1.1113,2.2992,-3.4783,6.3304,-0.7652
1375,9.3118,-0.9963,2.3759,-3.8261,5.913,-0.7652
1380,9.3502,-1.1496,2.4525,-4.1739,5.4261,-0.8348
1385,9.3885,-1.0346,2.3375,-4.313,5.0783,-0.9043
1390,9.3502,-1.1496,2.2992,-4.4522,4.7304,-0.8348
1395,9.2735,-1.1113,2.3759,-4.5217,4.5217,-0.9043
1400,9.3118,-1.0346,2.3375,-4.5217,4.313,-1.113
1405,9.3118,-1.1113,2.4142,-4.3826,4.2435,-1.2522
1410,9.4268,-1.1496,2.3375,-4.1043,4.3826,-1.3217
1415,9.3502,-1.1496,2.1843,-4.0348,4.2435,-1.4609
1420,9.3885,-1.1496,2.3375,-3.8957,4.1739,-1.4609
1425,9.3502,-1.1879,2.4142,-3.7565,4.1043,-1.5304
1430,9.2735,-1.1879,2.3375,-3.5478,4.1739,-1.5304
1435,9.3502,-0.9963,2.1843,-3.4087,4.1739,-1.6
1440,9.3885,-1.1496,2.3375,-3.2696,4.0348,-1.6
1445,9.3885,-1.1879,2.3375,-3.2,4.0348,-1.7391
1450,9.3502,-1.1113,2.4142,-3.0609,3.8957,-1.8087
1455,9.3502,-1.1113,2.3375,-2.9913,3.8261,-1.8783
1460,9.3502,-1.2263,2.4142,-2.9217,3.8261,-1.9478
1465,9.3502,-1.1879,2.4142,-2.713,3.7565,-1.9478
1470,9.4651,-1.1496,2.3759,-2.3652,3.687,-2.0174
1475,9.5034,-1.2263,2.2609,-2.0174,3.4783,-2.0174
1480,9.5418,-1.2263,2.3759,-1.7391,3.3391,-2.087
1485,9.4268,-1.1113,2.3375,-1.4609,3.2696,-2.087
1490,9.4268,-1.1496,2.3759,-1.4609,3.0609,-2.0174
1495,9.4268,-1.073,2.2992,-1.6,2.8522,-2.0174
1500,9.3502,-0.8814,2.2992,-1.8087,2.713,-2.087
1505,9.4651,-1.0346,2.2609,-2.2261,2.5043,-1.9478
1510,9.3885,-0.8814,2.2609,-2.713,2.2957,-1.9478
1515,9.4268,-0.9197,2.3375,-3.2696,2.087,-1.8783
1520,9.4268,-0.9963,2.1076,-3.8957,1.8783,-1.8783
1525,9.4651,-0.958,2.3375,-4.4522,1.6696,-1.9478
1530,9.5034,-1.073,2.2992,-5.0783,1.6696,-1.9478
1535,9.4651,-1.1496,2.2609,-5.4261,1.6,-1.8783
1540,9.4651,-1.1113,2.2609,-5.7739,1.8087,-1.8783
1545,9.3502,-1.1113,2.2609,-6.1217,1.9478,-1.8783
1550,9.5034,-1.1113,2.2609,-6.1913,2.087,-1.8783
1555,9.5034,-1.1496,2.3375,-6.1913,2.2261,-1.8087
1560,9.4651,-1.1113,2.3759,-5.9826,2.3652,-1.9478
1565,9.4268,-1.0346,2.2992,-5.7043,2.4348,-1.8783
1570,9.3885,-1.1496,2.3375,-5.6348,2.5043,-1.9478
1575,9.4651,-1.2263,2.2609,-5.3565,2.3652,-1.9478
1580,9.4651,-1.0346,2.2992,-5.2174,2.3652,-2.087
1585,9.4651,-1.1113,2.3375,-4.8696,2.2957,-2.087
1590,9.3118,-1.0346,2.3375,-4.5217,2.087,-1.9478
1595,9.5034,-1.1496,2.1843,-4.1739,2.087,-1.8783
1600,9.5418,-1.1879,2.2609,-3.8261,1.9478,-1.6696
1605,9.5418,-0.9963,2.2226,-3.2,1.8783,-1.7391
1610,9.5418,-1.0346,2.031,-2.713,1.8783,-1.6696
1615,9.5418,-1.0346,2.0693,-2.2957,1.8783,-1.6
1620,9.3118,-1.1496,2.0693,-2.087,1.8087,-1.6
1625,9.3502,-1.0346,2.0693,-1.9478,1.7391,-1.6696
1630,9.5418,-0.9963,2.0693,-1.8087,1.6,-1.5304
1635,9.4268,-1.1496,2.2609,-1.6696,1.3913,-1.4609
1640,9.4651,-0.9963,2.1843,-1.6,1.3217,-1.2522
1645,9.4651,-1.073,2.1843,-1.5304,1.3217,-1.2522
1650,9.6184,-1.1496,2.3375,-1.4609,1.3913,-1.113
1655,9.4651,-1.1496,2.3375,-1.5304,1.5304,-1.113
1660,9.3118,-1.073,2.2609,-1.6,1.5304,-1.1826
1665,9.3502,-1.1496,2.2226,-1.6696,1.8087,-1.113
1670,9.5034,-1.1496,2.3759,-1.6696,1.7391,-1.2522
1675,9.5418,-1.1496,2.2992,-1.6,1.6696,-1.2522
1680,9.4651,-1.1496,2.2226,-1.3913,1.6,-1.3217
1685,9.5418,-0.9963,2.1843,-1.113,1.4609,-1.3217
1690,9.5801,-1.073,2.2226,-0.9739,1.1826,-1.3217
1695,9.4268,-1.1113,2.1843,-0.7652,0.9043,-1.3913
1700,9.3502,-1.0346,2.1076,-0.487,0.6957,-1.4609
1705,9.5418,-1.1496,1.916,-0.4174,0.6261,-1.4609
1710,9.4268,-1.073,1.9543,-0.2087,0.5565,-1.4609
1715,9.5034,-1.1496,2.1076,-0.0696,0.5565,-1.4609
1720,9.4651,-1.0346,2.0693,0.0696,0.487,-1.3913
1725,9.4268,-0.9963,1.9543,0.2783,0.6957,-1.3913
1730,9.5034,-1.1113,2.031,0.3478,0.9043,-1.3913
1735,9.4268,-1.1113,1.8394,0.487,1.1826,-1.3217
1740,9.5034,-0.9963,1.9543,0.6261,1.4609,-1.1826
1745,9.4651,-1.073,2.1459,0.7652,1.8783,-1.1826
1750,9.3502,-0.958,1.9927,1.0435,2.087,-1.1826
1755,9.4651,-0.958,2.031,1.113,2.4348,-1.113
1760,9.4651,-0.8047,2.0693,1.2522,2.713,-1.113
1765,9.4651,-0.958,1.9927,1.2522,2.9913,-1.0435
1770,9.5418,-0.958,2.0693,1.0435,3.2,-1.113
1775,9.5418,-0.8814,2.1459,0.9739,3.2696,-1.0435
1780,9.4651,-0.843,2.0693,0.6261,3.4087,-1.0435
1785,9.4651,-0.958,2.0693,0.2783,3.2696,-1.0435
1790,9.5034,-0.9197,2.1076,-0.0696,3.1304,-0.9043
1795,9.6184,-0.8814,2.0693,-0.3478,2.8522,-0.9043
1800,9.5418,-0.8814,1.916,-0.5565,2.5739,-0.7652
1805,9.5034,-0.9963,2.031,-0.5565,2.2957,-0.6957
1810,9.4651,-1.0346,2.0693,-0.4174,2.0174,-0.487
1815,9.5034,-1.1496,2.031,-0.0696,1.7391,-0.2783
1820,9.4651,-1.1879,1.8394,0.3478,1.5304,-0.0696
1825,9.5801,-1.1113,1.9543,1.2522,1.3913,0.1391
1830,9.5034,-0.9963,1.916,2.1565,1.3217,0.3478
1835,9.5801,-1.1496,1.916,3.1304,1.6,0.4174
1840,9.4268,-1.1113,1.8394,3.8957,1.8783,0.4174
1845,9.6567,-0.958,1.7244,4.6609,2.2261,0.4174
1850,9.5418,-1.073,1.916,5.0783,2.4348,0.4174
1855,9.4651,-0.958,1.8777,5.3565,2.713,0.4174
1860,9.4651,-1.0346,1.9543,5.5652,2.9217,0.4174
1865,9.5418,-1.073,1.9927,5.5652,3.2,0.487
1870,9.5034,-1.1113,1.8011,5.6348,3.4087,0.487
1875,9.5801,-1.0346,1.8394,5.7739,3.687,0.6261
1880,9.4651,-0.9963,1.9927,6.1217,3.8261,0.5565
1885,9.5801,-1.073,1.8777,6.5391,4.313,0.6261
1890,9.5034,-1.0346,1.916,6.887,4.8,0.6957
1895,9.5418,-0.9963,1.8394,7.2348,5.2174,0.8348
1900,9.4651,-0.9197,1.916,7.513,5.6348,0.9043
1905,9.4268,-0.9197,2.031,8.0696,6.1913,0.9739
1910,9.5801,-0.9963,2.0693,8.3478,6.3304,1.1826
1915,9.5418,-0.9963,2.0693,8.6261,6.4,1.2522
1920,9.5801,-0.9963,2.2609,8.8348,6.3304,1.2522
1925,9.6184,-0.9197,2.031,8.8348,6.3304,1.2522
1930,9.6184,-1.0346,2.1459,8.8348,6.3304,1.2522
1935,9.5801,-0.9963,2.1076,8.5565,6.1913,1.1826
1940,9.6567,-0.9963,2.031,8.0696,6.0522,1.2522
1945,9.6567,-0.958,2.1076,7.5826,5.9826,1.2522
1950,9.6567,-1.0346,2.0693,7.1652,5.7739,1.113
1955,9.6567,-0.9197,2.031,6.6783,5.7043,1.113
1960,9.5418,-0.9963,2.0693,6.4696,5.4261,1.113
1965,9.5034,-1.0346,2.1459,6.4696,5.4957,1.113
1970,9.5801,-0.9963,1.9927,6.5391,5.3565,1.1826
1975,9.4651,-0.9197,2.1843,6.6087,5.5652,1.2522
1980,9.5418,-1.0346,2.1076,6.8174,5.6348,1.2522
1985,9.4651,-0.9963,2.031,6.8174,5.7739,1.2522
1990,9.3885,-1.0346,1.9543,6.8174,6.1217,1.3217
1995,9.4268,-0.8814,2.2609,6.8174,6.4,1.3217
2000,9.4651,-0.9963,2.1459,6.887,6.887,1.3913
2005,9.4268,-0.9963,1.9927,6.9565,7.3043,1.4609
2010,9.3885,-0.958,2.0693,6.9565,7.7217,1.6
2015,9.5801,-1.0346,2.1459,7.0261,8.1391,1.8087
2020,9.4651,-0.958,2.1459,7.1652,8.2783,1.8087
2025,9.4651,-0.958,2.031,7.1652,8.4174,1.8783
2030,9.5418,-0.9963,2.0693,7.0957,8.5565,1.9478
2035,9.4651,-0.9963,2.1459,6.887,8.7652,1.9478
2040,9.5034,-0.8814,2.2226,6.6087,8.7652,2.0174
2045,9.5034,-0.8047,2.031,6.2609,8.8348,2.0174
2050,9.6567,-0.958,2.0693,5.8435,8.9739,1.9478
2055,9.4268,-0.8814,2.0693,5.4261,9.1826,1.8783
2060,9.5034,-0.8814,2.2226,4.9391,9.2522,1.8783
2065,9.6184,-0.9963,2.2992,4.5217,9.4609,1.8087
2070,9.5801,-0.958,2.0693,4.3826,9.7391,1.9478
2075,9.6567,-1.0346,2.1843,4.1739,9.7391,2.0174
2080,9.5034,-0.9963,2.2609,4.2435,9.8087,2.0174
2085,9.5801,-0.9197,2.2992,4.2435,9.8783,2.0174
2090,9.5418,-1.1496,2.4525,4.313,9.7391,2.1565
2095,9.4268,-0.9197,2.4142,4.313,9.5304,2.2261
2100,9.5034,-1.1113,2.4142,4.3826,9.3217,2.1565
2105,9.5034,-1.0346,2.2609,4.313,9.113,2.1565
2110,9.4651,-1.0346,2.2992,4.3826,8.9043,2.1565
2115,9.4268,-1.073,2.1843,4.3826,8.6261,2.087
2120,9.3502,-1.073,2.4142,4.313,8.4174,2.087
2125,9.3885,-1.1113,2.2609,4.313,8.2087,2.0174
2130,9.3885,-0.9197,2.2992,4.313,8.0696,2.087
2135,9.3502,-0.9963,2.2226,4.5913,8.0696,1.8783
2140,9.5034,-0.958,2.2609,4.7304,8.0696,1.8087
2145,9.4268,-0.9197,2.2609,4.7304,8.2087,1.6696
2150,9.5034,-0.9963,2.2609,4.6609,8.2087,1.6
2155,9.4651,-0.958,2.3375,4.3826,8.1391,1.4609
2160,9.3118,-0.958,2.3759,4.1739,8.1391,1.3217
2165,9.4268,-0.9197,2.2992,3.9652,8.0696,1.3217
2170,9.5801,-0.9963,2.3759,3.687,7.9304,1.3913
2175,9.5418,-1.073,2.3375,3.3391,7.7217,1.3913
2180,9.5034,-1.1113,2.2992,3.2,7.4435,1.4609
2185,9.5034,-1.1113,2.6058,2.9913,7.2348,1.6
2190,9.4651,-1.0346,2.4525,2.9217,7.0261,1.6
2195,9.3502,-0.9197,2.3759,2.9913,6.8174,1.5304
2200,9.5034,-1.1879,2.2992,3.2696,6.4696,1.4609
2205,9.4651,-0.9963,2.3375,3.3391,5.9826,1.2522
2210,9.5034,-0.9963,2.3375,3.4087,5.5652,1.3913
2215,9.5801,-0.958,2.1843,3.2696,5.2174,1.113
2220,9.3885,-0.843,2.2609,2.9913,4.9391,1.1826
2225,9.5418,-0.9197,2.4142,2.5739,4.7304,1.2522
2230,9.4268,-0.843,2.1459,2.2261,4.7304,1.3217
2235,9.3118,-0.8814,2.2226,1.7391,4.8,1.4609
2240,9.5034,-0.8047,2.2609,1.4609,4.8696,1.6
2245,9.5034,-0.8814,2.1459,1.0435,5.1478,1.7391
2250,9.4651,-0.8814,2.1843,0.7652,5.4261,1.7391
2255,9.5034,-0.9963,2.0693,0.487,5.6348,1.9478
2260,9.2735,-1.1113,1.9543,0.3478,5.7739,2.0174
2265,9.3118,-0.9963,2.1076,0.4174,5.8435,2.0174
2270,9.3885,-0.8047,2.3375,0.487,5.913,2.087
2275,9.4651,-1.073,2.2992,0.6957,5.7739,2.087
2280,9.3885,-1.2263,2.4142,0.9739,5.7043,1.9478
2285,9.3118,-1.1496,2.3375,1.1826,5.5652,1.8087
2290,9.3502,-1.1496,2.2992,1.4609,5.4261,1.6696
2295,9.3118,-1.2646,2.4142,1.8783,5.3565,1.6
2300,9.3118,-1.2263,2.2992,2.1565,5.287,1.3217
2305,9.3118,-1.2263,2.2992,2.4348,5.287,1.2522
2310,9.3502,-1.2263,2.4908,2.8522,5.287,1.0435
2315,9.3118,-1.2263,2.3759,3.2696,5.4957,0.9739
2320,9.2352,-1.1496,2.5291,3.687,5.4957,0.8348
2325,9.3885,-1.4945,2.8357,4.2435,5.7043,0.6957
2330,9.3885,-1.1879,2.3759,4.5913,5.6348,0.5565
2335,9.4268,-1.2263,2.3759,4.8,5.7043,0.3478
2340,9.3885,-1.1113,2.4142,4.8,5.7043,0.2087
2345,9.3885,-0.9963,2.4142,4.8,5.7043,0.2783
2350,9.4651,-0.9963,2.4525,4.7304,5.4261,0.2087
2355,9.4651,-1.0346,2.3375,4.5913,5.2174,0.2783
2360,9.4268,-0.9963,2.3759,4.313,5.0087,0.487
2365,9.4268,-1.0346,2.5291,4.0348,4.6609,0.6261
2370,9.5034,-1.1113,2.4908,3.5478,4.2435,0.6957
2375,9.3885,-1.073,2.4525,3.2,4.0348,0.8348
2380,9.4268,-0.9197,2.3375,2.9217,3.7565,0.8348
2385,9.4268,-0.9963,2.3375,2.5739,3.5478,0.8348
2390,9.2735,-0.9963,2.2226,2.4348,3.5478,0.8348
2395,9.3118,-1.0346,2.2992,1.9478,3.5478,0.6261
2400,9.4268,-1.073,2.2992,1.8783,3.7565,0.487
2405,9.4651,-1.1113,2.2992,1.8087,4.1739,0.487
2410,9.3885,-1.0346,2.3375,1.6,4.6609,0.2783
2415,9.3885,-1.1113,2.2992,1.3217,4.8696,0.0696
2420,9.4651,-1.0346,2.4142,0.8348,5.0783,-0.1391
2425,9.3885,-1.1113,2.3759,0.6261,5.1478,-0.2783
2430,9.4268,-1.073,2.4142,0.2783,5.0087,-0.487
2435,9.3885,-1.073,2.4908,0.1391,4.8696,-0.6261
2440,9.5034,-1.1496,2.3759,0.1391,4.7304,-0.6957
2445,9.3502,-1.1879,2.5291,0.1391,4.4522,-0.7652
2450,9.3885,-1.0346,2.4142,0.2783,4.2435,-0.9043
2455,9.3502,-1.0346,2.4142,0.2783,3.8957,-0.9043
2460,9.3502,-0.958,2.4908,0.3478,3.687,-0.8348
2465,9.3118,-0.8814,2.4525,0.2087,3.5478,-0.9043
2470,9.3118,-0.958,2.3759,0.2087,3.3391,-0.9043
2475,9.3885,-0.9197,2.2992,0.1391,3.2696,-0.9043
2480,9.4268,-1.0346,2.2992,0.0696,3.1304,-0.9739
2485,9.5034,-1.0346,2.2992,0.0,2.9913,-0.8348
2490,9.3885,-1.0346,2.4525,-0.1391,2.9913,-1.0435
2495,9.4651,-0.9197,2.3375,-0.1391,3.0609,-0.9739
2500,9.3502,-0.9197,2.2609,-0.2087,2.9913,-0.9043
2505,9.5418,-0.958,2.3759,-0.2783,2.9913,-0.9739
2510,9.3502,-0.9197,2.4525,-0.3478,2.9913,-0.9739
2515,9.4651,-0.958,2.2992,-0.4174,2.9913,-1.113
2520,9.3885,-0.843,2.2609,-0.6957,3.1304,-1.113
2525,9.3885,-0.958,2.2609,-0.8348,3.2696,-1.0435
2530,9.3885,-0.8814,2.4142,-1.0435,3.2696,-1.0435
2535,9.4651,-0.9197,2.2609,-1.3913,3.3391,-1.113
2540,9.3885,-0.6131,2.4525,-1.8087,3.1304,-1.113
2545,9.5034,-0.8814,2.3759,-2.1565,3.0609,-1.113
2550,9.5418,-0.958,2.2226,-2.5043,2.9913,-0.9739
2555,9.5034,-0.958,2.2226,-2.8522,2.8522,-0.7652
2560,9.5801,-0.9963,2.2609,-2.9913,2.5043,-0.8348
2565,9.4268,-0.958,2.3759,-3.1304,2.3652,-0.7652
2570,9.5801,-0.958,2.2226,-3.2,2.1565,-0.6261
2575,9.5801,-0.9197,2.2609,-3.2696,1.9478,-0.5565
2580,9.5034,-1.073,2.2992,-3.2696,1.8783,-0.5565
2585,9.5034,-1.073,2.2992,-3.1304,2.0174,-0.6261
2590,9.5034,-1.0346,2.2609,-3.2,2.0174,-0.6261
2595,9.5034,-1.073,2.2226,-3.1304,2.087,-0.5565
2600,9.5034,-1.0346,2.2609,-3.1304,2.2261,-0.6957
2605,9.5418,-1.0346,2.2992,-3.1304,2.2261,-0.7652
2610,9.5034,-0.9963,2.2992,-3.1304,2.2261,-0.9043
2615,9.5418,-1.0346,2.2992,-3.2,2.2261,-0.8348
2620,9.4651,-0.958,2.1843,-3.2696,2.1565,-0.9043
2625,9.4268,-0.9197,2.2609,-3.5478,2.1565,-0.8348
2630,9.5418,-1.0346,2.2609,-3.687,2.2261,-0.9043
2635,9.4651,-1.073,2.1843,-3.8957,2.2957,-0.8348
2640,9.5801,-1.1113,2.1843,-4.0348,2.2957,-0.7652
2645,9.3885,-0.9963,2.3759,-4.313,2.5043,-0.9739
2650,9.3118,-0.958,2.3759,-4.4522,2.713,-0.9043
2655,9.5034,-0.9963,2.2609,-4.3826,2.9217,-1.113
2660,9.5801,-1.1113,2.1843,-4.4522,3.3391,-1.1826
2665,9.4651,-1.0346,2.2609,-4.3826,3.6174,-1.2522
2670,9.5418,-1.073,2.2226,-4.3826,3.8957,-1.1826
2675,9.5034,-1.073,2.2609,-4.2435,4.1043,-1.113
2680,9.5034,-0.9963,2.4525,-4.1739,4.2435,-1.1826
2685,9.5801,-1.1496,2.2609,-4.1043,4.313,-1.3217
2690,9.5418,-0.958,2.2226,-4.0348,4.313,-1.3913
2695,9.5034,-1.073,2.1076,-4.0348,4.1739,-1.3913
2700,9.5034,-1.0346,2.2992,-3.9652,3.8957,-1.3913
2705,9.4268,-0.9963,2.1843,-3.9652,3.687,-1.4609
2710,9.5801,-0.9197,2.4142,-4.1043,3.4087,-1.4609
2715,9.6184,-0.958,2.2609,-4.313,3.0609,-1.3913
2720,9.6184,-1.073,2.1076,-4.4522,2.7826,-1.3217
2725,9.3885,-0.9197,2.0693,-4.5217,2.4348,-1.3913
2730,9.4651,-1.0346,2.2992,-4.5217,2.2957,-1.3217
2735,9.4268,-0.958,2.2226,-4.5913,2.087,-1.3217
2740,9.4268,-1.1113,2.2226,-4.6609,1.8783,-1.3913
2745,9.5034,-1.0346,2.3375,-4.8696,1.8087,-1.4609
2750,9.3502,-1.0346,2.2609,-4.6609,1.8087,-1.4609
2755,9.4268,-1.0346,2.1459,-4.5217,2.087,-1.5304
2760,9.1586,-1.073,1.916,-4.2435,2.3652,-1.6696
2765,9.4268,-1.073,2.1459,-3.9652,2.7826,-1.6
2770,9.5034,-1.0346,2.1843,-3.5478,2.9913,-1.5304
2775,9.5034,-1.1496,2.1843,-3.3391,3.2696,-1.6696
2780,9.5418,-1.1113,2.1843,-3.1304,3.4783,-1.6
2785,9.5801,-1.073,2.1076,-2.9913,3.5478,-1.3913
2790,9.3502,-0.958,2.1459,-3.0609,3.6174,-1.3217
2795,9.4268,-0.9963,2.1459,-3.0609,3.7565,-1.3217
2800,9.5418,-0.9963,2.2992,-3.2696,3.687,-1.3913
2805,9.4651,-0.8047,2.2226,-3.5478,3.4783,-1.2522
2810,9.5034,-0.9963,1.9927,-3.8261,3.2696,-1.3217
2815,9.4651,-0.9963,2.1459,-4.0348,3.1304,-1.1826
2820,9.5034,-0.958,2.1843,-4.313,3.1304,-1.1826
2825,9.4651,-1.073,2.2226,-4.3826,3.2,-1.1826
2830,9.5418,-0.9963,2.1843,-4.313,3.0609,-1.1826
2835,9.5418,-1.1113,2.1843,-4.3826,3.0609,-1.113
2840,9.5418,-0.9197,1.9927,-4.313,2.8522,-1.113
2845,9.5034,-1.073,2.1459,-4.313,2.8522,-1.113
2850,9.5034,-0.9963,2.1076,-4.1043,2.9217,-1.113
2855,9.5801,-0.958,2.1459,-4.1043,2.9217,-0.9739
2860,9.5034,-0.9963,2.1459,-3.8957,3.0609,-0.8348
2865,9.6184,-1.0346,2.2226,-3.5478,3.0609,-0.7652
2870,9.6184,-0.9963,2.1459,-3.2,3.2,-0.8348
2875,9.5801,-0.958,2.031,-2.9217,3.3391,-0.8348
2880,9.4651,-0.9963,2.031,-2.6435,3.2696,-0.7652
2885,9.4651,-0.9197,2.031,-2.5043,3.2696,-0.9043
2890,9.4268,-1.0346,2.1459,-2.4348,3.3391,-0.7652
2895,9.5418,-1.073,2.0693,-2.5739,3.2696,-0.6957
2900,9.5034,-0.9197,2.0693,-2.4348,3.4783,-0.7652
2905,9.4651,-0.9197,2.1843,-2.2957,3.6174,-0.7652
2910,9.5418,-1.073,2.0693,-2.1565,3.4783,-0.6957
2915,9.3885,-1.1113,2.031,-1.9478,3.687,-0.7652
2920,9.5034,-0.9963,2.1076,-2.0174,4.0348,-0.7652
2925,9.4268,-1.0346,1.9927,-1.9478,4.1043,-0.8348
2930,9.5034,-0.958,2.031,-2.0174,4.3826,-0.8348
2935,9.4268,-1.0346,2.1843,-2.087,4.4522,-0.7652
2940,9.4651,-0.9963,2.1076,-2.0174,4.5913,-0.7652
2945,9.4268,-0.958,2.2609,-2.087,4.5217,-0.7652
2950,9.4268,-0.958,2.2226,-2.1565,4.4522,-0.7652
2955,9.5034,-0.9963,2.2226,-2.2957,4.3826,-0.6957
2960,9.5034,-0.9963,2.1459,-2.3652,4.313,-0.6957
2965,9.4268,-1.0346,2.2226,-2.3652,4.0348,-0.6957
2970,9.5801,-1.1113,2.2226,-2.4348,3.8957,-0.6261
2975,9.3885,-1.2646,2.1459,-2.4348,3.7565,-0.6957
2980,9.5034,-1.0346,2.1459,-2.4348,3.6174,-0.7652
2985,9.5034,-0.958,2.2609,-2.3652,3.687,-0.6957
2990,9.5034,-0.9197,2.031,-2.2957,3.687,-0.6957
2995,9.4268,-0.9197,2.0693,-2.1565,3.687,-0.7652
