timestamp,accX,accY,accZ,gyroX,gyroY,gyroZ
0,0.8047,-9.4651,-5.4798,-99.687,-27.8957,-6.2609
5,1.0346,-9.3885,-5.9396,-95.9304,-29.4261,-5.913
10,1.0346,-9.2352,-6.3612,-93.4957,-31.3043,-6.1217
15,1.1879,-9.3118,-6.821,-92.0348,-33.2522,-6.3304
20,1.2263,-9.2352,-6.936,-91.7565,-34.5739,-7.2348
25,1.2646,-9.2735,-7.3958,-92.0348,-35.3391,-8.2783
30,1.1496,-9.2735,-7.4341,-92.3826,-35.4783,-9.5304
35,0.9963,-9.0819,-7.6641,-92.5913,-35.2,-10.5043
40,0.8814,-9.0819,-8.0856,-92.8,-34.4348,-11.7565
45,0.6898,-8.852,-8.2005,-93.0783,-32.9739,-12.5913
50,0.6514,-8.5454,-8.3155,-93.287,-30.7478,-13.4957
55,0.6131,-8.3155,-8.3155,-93.5652,-28.0348,-13.9826
60,0.4598,-7.9706,-8.3921,-94.0522,-24.9739,-14.4
65,0.4215,-7.5874,-8.6221,-95.3739,-20.7304,-14.6783
70,0.6131,-7.2809,-8.4688,-97.1826,-17.0435,-14.887
75,0.6514,-7.0893,-8.3155,-98.1565,-12.8696,-14.4
80,0.8814,-6.8977,-8.0089,-97.5304,-8.0696,-13.4261
85,1.0346,-6.7827,-7.3575,-95.2348,-3.0609,-11.687
90,1.1879,-6.7827,-6.821,-91.4783,1.3913,-10.1565
95,1.2263,-6.7827,-6.5528,-86.4696,5.0783,-8.1391
100,1.3029,-6.6677,-6.0163,-81.6,7.4435,-6.3304
105,1.2646,-6.5528,-5.6714,-76.7304,7.7913,-4.5913
110,1.2263,-6.7827,-5.1732,-71.7913,5.287,-3.3391
115,1.1879,-6.7444,-5.3648,-65.0435,2.087,-2.1565
120,1.3412,-6.7444,-5.5948,-59.687,-1.4609,-1.3913
125,1.1879,-6.4761,-5.9013,-55.3043,-4.1739,-0.3478
130,1.1113,-6.2845,-6.5145,-53.1478,-5.913,0.4174
135,0.9963,-6.0929,-6.8977,-53.4957,-6.6087,1.2522
140,0.843,-5.863,-7.3192,-56.2783,-6.4,1.6696
145,0.6898,-5.5564,-7.7024,-60.8,-5.5652,2.4348
150,0.5365,-5.2499,-8.0473,-66.713,-4.1043,2.713
155,0.4598,-5.0966,-8.4688,-73.8783,-2.4348,3.6174
160,0.4598,-4.905,-8.8137,-83.5478,-0.8348,3.687
165,0.3832,-4.9433,-8.8137,-91.687,0.0696,4.2435
170,0.2682,-5.0583,-8.8137,-98.1565,0.6261,4.7304
175,0.115,-5.0966,-8.6604,-103.3739,0.3478,5.7739
180,0.0766,-5.2116,-8.6604,-106.9217,-0.3478,6.6783
185,-0.0766,-5.3648,-8.5454,-108.8,-1.113,8.0
190,-0.1533,-5.6714,-8.6604,-109.4261,-1.6696,9.0435
195,-0.2299,-5.7864,-8.6604,-108.9391,-2.087,10.5739
200,-0.1916,-6.0163,-9.0436,-107.7565,-2.5043,11.687
205,-0.2299,-6.1696,-8.9286,-106.2957,-2.713,13.0087
210,-0.1916,-6.2462,-9.2352,-104.0696,-2.3652,13.7739
215,-0.1533,-6.3995,-9.3118,-101.7739,-1.5304,14.6783
220,-0.115,-6.5911,-9.4651,-99.1304,0.2087,14.887
225,0.0383,-6.7827,-9.3502,-96.487,2.5043,14.9565
230,-0.0766,-6.8977,-9.2735,-93.7739,5.2174,14.3304
235,0.0,-6.8977,-8.9286,-90.8522,8.1391,13.6348
240,0.0766,-6.8593,-8.852,-87.2348,11.0609,12.5913
245,0.0,-6.7444,-8.5071,-83.0609,13.3565,11.5478
250,0.1916,-6.6677,-8.3155,-78.6087,14.6087,10.0174
255,0.2299,-6.1696,-8.1622,-73.7391,15.0957,9.113
260,0.2299,-5.7097,-8.2772,-70.9565,14.8174,8.2783
265,0.2682,-5.2882,-8.2389,-69.3565,13.9826,8.4174
270,0.1916,-4.79,-8.4305,-68.8,12.5217,8.6261
275,0.3066,-4.5601,-8.5838,-69.1478,10.3652,9.8087
280,0.1916,-4.4068,-8.737,-70.1217,8.0,10.9217
285,0.1916,-4.1386,-8.852,-71.6522,5.5652,12.313
290,0.3832,-3.947,-9.0053,-73.8783,2.9913,13.4957
295,0.4215,-3.8704,-9.3885,-76.1043,0.6261,14.6087
300,0.3449,-3.8704,-9.7717,-78.1217,-1.8087,15.7217
305,0.2299,-3.947,-9.81,-80.5565,-3.2,16.5565
310,0.2682,-3.9087,-10.1166,-82.4348,-3.687,17.113
315,0.2299,-4.062,-10.2315,-84.313,-3.6174,18.1565
320,0.1533,-4.2919,-10.5381,-85.287,-2.7826,18.713
325,0.0383,-4.3302,-10.6147,-85.4957,-0.5565,19.3391
330,-0.0383,-4.4835,-10.6147,-85.1478,2.713,19.4087
335,-0.0766,-4.4835,-10.7297,-83.9652,6.3304,19.8261
340,-0.0383,-4.6368,-10.6914,-81.7391,9.6696,19.3391
345,0.0383,-4.6368,-10.7297,-79.1652,12.5913,18.3652
350,0.0,-4.2536,-10.3848,-75.7565,16.2783,16.3478
355,-0.115,-4.0236,-10.2315,-73.4609,18.9913,14.6087
360,-0.2299,-3.7171,-9.7334,-72.2087,20.4522,12.8
365,-0.2299,-3.3722,-9.5418,-71.6522,19.8957,11.8261
370,-0.1916,-3.2189,-9.3885,-71.0957,17.6696,11.2696
375,-0.0766,-3.1039,-9.1969,-70.1217,14.4696,11.4087
380,-0.1533,-3.0273,-9.2352,-69.7739,10.7826,11.8261
385,-0.1916,-3.1423,-9.1202,-69.6348,6.7478,12.3826
390,-0.2682,-3.2189,-9.1969,-69.4957,2.8522,12.8
395,-0.3832,-3.2955,-9.3502,-68.4522,-1.9478,13.5652
400,-0.2299,-3.4871,-9.3885,-67.0609,-5.4957,13.913
405,-0.3449,-3.4105,-9.6567,-65.3913,-7.9304,14.4
410,-0.3832,-3.6404,-9.8866,-62.7478,-9.3217,14.3304
415,-0.3449,-3.5255,-10.1549,-59.2,-10.6435,14.0522
420,-0.4215,-3.4105,-10.3848,-55.7913,-11.0609,13.3565
425,-0.4598,-3.1806,-10.4231,-53.1478,-11.4087,12.5913
430,-0.4598,-3.2189,-10.7297,-51.3391,-11.4087,11.8957
435,-0.5365,-2.874,-10.883,-50.2957,-11.5478,11.2696
440,-0.4982,-2.874,-10.9596,-49.6,-11.687,10.8522
445,-0.3832,-2.9507,-11.0363,-48.9043,-11.687,10.4348
450,-0.2682,-2.7974,-11.1129,-48.3478,-11.1304,9.8087
455,-0.1533,-2.7207,-10.9213,-48.0,-10.5739,9.3217
460,-0.1533,-2.7591,-11.0363,-47.6522,-9.6,8.487
465,0.0,-2.8357,-10.9596,-46.887,-8.1391,7.6522
470,0.0,-2.9507,-10.7297,-45.6348,-6.4696,6.6783
475,0.0383,-2.989,-10.7297,-43.6174,-4.8,6.0522
480,0.1916,-2.9507,-10.7297,-41.0435,-3.4087,5.287
485,0.0766,-2.7974,-10.4998,-38.3304,-2.6435,4.5217
490,0.2299,-2.7591,-10.5381,-35.2,-2.2261,3.4087
495,0.2299,-2.6058,-10.5381,-31.8609,-2.087,2.2261
500,0.1533,-2.4908,-10.5764,-29.3565,-1.9478,0.9043
505,0.0766,-2.4525,-10.5381,-27.6174,-1.3217,-0.2783
510,0.0766,-2.3759,-10.4998,-26.5043,-0.7652,-1.3217
515,0.0766,-2.2226,-10.768,-25.6,-0.6261,-2.2261
520,0.1533,-2.3375,-10.4231,-24.8348,-0.5565,-3.0609
525,0.0766,-2.1843,-10.4998,-23.7217,-1.113,-3.8261
530,0.115,-2.2226,-10.4231,-22.1913,-1.9478,-4.3826
535,0.0383,-2.2992,-10.3848,-20.3826,-2.9913,-5.0087
540,0.0383,-2.1843,-10.5381,-18.2261,-4.0348,-5.4957
545,0.0383,-2.3375,-10.6914,-16.5565,-4.2435,-6.0522
550,-0.1916,-2.2992,-10.5764,-15.0261,-4.0348,-6.5391
555,-0.0383,-2.2992,-10.653,-13.4261,-3.3391,-7.0957
560,-0.1916,-2.031,-10.653,-11.9652,-2.3652,-7.513
565,0.0,-2.1076,-10.768,-10.8522,-1.6,-8.0
570,-0.115,-1.9927,-10.9213,-10.087,-0.7652,-8.3478
575,-0.1533,-1.9543,-10.9979,-9.5304,0.0,-8.8348
580,-0.1533,-2.031,-10.9979,-8.9043,0.7652,-9.2522
585,-0.1533,-2.031,-11.3045,-8.6261,1.6696,-9.7391
590,-0.3449,-2.0693,-11.4578,-7.513,2.2957,-9.9478
595,-0.2299,-1.9927,-11.2662,-5.7739,2.713,-10.2261
600,-0.1916,-2.031,-11.3045,-3.9652,2.9913,-10.3652
605,-0.1533,-1.916,-11.1129,-1.9478,3.0609,-10.713
610,-0.115,-1.916,-10.9596,-0.1391,3.2,-10.8522
615,-0.1533,-1.8777,-10.8446,1.0435,3.3391,-10.8522
620,-0.1533,-1.5711,-10.4998,1.8087,3.2,-10.7826
625,-0.1533,-1.7244,-10.4998,2.3652,3.3391,-10.713
630,-0.3066,-1.7244,-10.1549,2.713,3.3391,-10.2957
635,-0.3449,-1.6095,-10.1549,3.2696,3.2,-9.9478
640,-0.3066,-1.6095,-10.1166,3.7565,3.4087,-9.4609
645,-0.1916,-1.8011,-10.0782,3.9652,3.6174,-9.113
650,-0.2682,-1.7627,-10.1549,4.3826,3.8261,-8.7652
655,-0.3449,-1.6478,-10.1549,4.5913,4.0348,-8.6957
660,-0.4215,-1.6478,-10.2698,4.8696,4.1739,-8.6261
665,-0.3832,-1.4562,-10.2315,5.1478,4.7304,-8.5565
670,-0.4215,-1.4179,-10.2698,5.4261,5.1478,-8.487
675,-0.3449,-1.3412,-10.3465,5.913,5.4957,-8.4174
680,-0.3832,-1.3029,-10.2315,6.7478,5.7739,-7.9304
685,-0.4598,-1.2646,-10.0782,7.4435,5.913,-7.7217
690,-0.4598,-1.2646,-10.0782,8.6957,6.1217,-7.3043
695,-0.4215,-1.2263,-9.925,9.6696,6.2609,-6.887
700,-0.3832,-1.1496,-9.8483,10.7826,6.1217,-6.1913
705,-0.3449,-0.9963,-10.0016,11.8261,5.7043,-5.8435
710,-0.4598,-0.9963,-9.8483,12.4522,5.0783,-5.2174
715,-0.4598,-0.958,-9.8866,12.7304,4.4522,-5.0087
720,-0.4982,-0.958,-9.925,12.5217,3.8957,-4.5913
725,-0.4982,-0.958,-9.9633,12.0348,3.5478,-4.4522
730,-0.6131,-0.9963,-9.81,11.4087,3.4783,-4.1043
735,-0.8047,-1.0346,-9.7717,10.7826,3.6174,-3.9652
740,-0.1533,-1.1879,-9.7717,10.4348,3.687,-3.5478
745,-0.6514,-1.2263,-9.8483,10.8522,3.8957,-3.4783
750,-0.6131,-1.2646,-10.0016,11.5478,4.2435,-3.0609
755,-0.7281,-1.1879,-10.0782,12.6609,4.8,-2.9913
760,-0.6131,-1.1879,-10.0399,13.8435,5.5652,-2.5043
765,-0.6131,-1.073,-10.1166,15.0261,6.4696,-2.3652
770,-0.4982,-0.9963,-10.2315,15.9304,7.3739,-1.8783
775,-0.5365,-0.9197,-10.1932,16.7652,8.0696,-1.7391
780,-0.5748,-0.843,-9.8866,17.113,8.2087,-1.3217
785,-0.5365,-0.8814,-9.8483,16.9043,7.7913,-1.2522
790,-0.6131,-0.7281,-9.8483,16.4174,7.3043,-0.8348
795,-0.5365,-0.843,-9.5801,15.4435,6.5391,-0.7652
800,-0.5748,-0.9197,-9.4268,14.0522,5.9826,-0.5565
805,-0.5748,-0.958,-9.5034,12.7304,5.5652,-0.5565
810,-0.4598,-1.073,-9.4651,11.4087,5.0783,-0.2087
815,-0.4598,-1.1113,-9.3502,10.2261,4.5913,0.0
820,-0.6131,-1.0346,-9.4268,9.5304,4.313,0.6261
825,-0.4982,-1.1496,-9.4651,8.9043,4.1043,0.8348
830,-0.5365,-1.1496,-9.5034,8.5565,4.0348,1.6
835,-0.843,-1.1113,-9.5418,8.3478,4.2435,1.8087
840,-0.6131,-1.1496,-9.7334,8.1391,4.7304,2.2957
845,-0.7281,-1.1496,-9.6567,8.1391,5.287,2.4348
850,-0.6898,-1.1496,-9.6567,8.0696,5.8435,2.7826
855,-0.8047,-1.1113,-9.695,7.7913,6.1913,2.713
860,-0.7281,-1.073,-9.5034,7.3739,6.3304,2.8522
865,-0.7281,-1.073,-9.5801,6.887,6.2609,2.713
870,-0.6131,-1.1496,-9.5034,6.4696,5.9826,2.8522
875,-0.6131,-1.1879,-9.4268,6.1913,5.4957,2.9217
880,-0.8047,-1.1879,-9.4268,5.9826,4.8696,3.2
885,-0.7281,-1.1496,-9.5418,5.6348,4.1043,3.3391
890,-0.7281,-1.1496,-9.6184,5.287,3.4087,3.687
895,-0.5748,-1.2646,-9.7334,4.8696,3.0609,3.8261
900,-0.4598,-1.3029,-9.7717,4.5217,2.9913,4.3826
905,-0.4598,-1.3412,-9.8866,4.1739,3.1304,4.3826
910,-0.5365,-1.2646,-9.9633,3.5478,3.6174,4.6609
915,-0.3832,-1.3412,-10.1549,2.8522,4.1739,4.6609
920,-0.4215,-1.3795,-10.1549,2.1565,4.8696,4.7304
925,-0.3449,-1.3412,-10.0782,1.3217,5.7043,4.7304
930,-0.3449,-1.5328,-10.1549,0.2783,6.6087,5.0087
935,-0.3449,-1.4562,-10.1166,-0.6261,7.3739,5.0783
940,-0.2682,-1.4945,-10.0399,-1.5304,8.0696,5.4261
945,-0.0766,-1.6861,-9.925,-2.0174,8.9043,5.4261
950,-0.1916,-1.8011,-9.925,-2.3652,9.3913,5.7043
955,-0.115,-1.8394,-9.81,-2.5043,9.6696,5.7043
960,-0.1916,-1.8011,-9.9633,-2.5043,9.8783,5.913
965,-0.0766,-1.8011,-9.8483,-2.5043,10.087,5.9826
970,-0.1533,-1.6861,-9.6184,-2.3652,10.2957,6.2609
975,-0.1916,-1.5711,-9.6567,-2.1565,10.2957,6.3304
980,-0.3066,-1.6478,-9.695,-1.7391,10.2261,6.4
985,-0.2299,-1.5711,-9.5418,-1.3913,10.087,6.2609
990,-0.3449,-1.5328,-9.5801,-1.3217,9.5304,6.4696
995,-0.3832,-1.5328,-9.6567,-1.2522,9.0435,6.4
1000,-0.3449,-1.4562,-9.6567,-1.3913,8.4174,6.4696
1005,-0.4215,-1.4179,-9.5418,-1.8783,7.6522,6.2609
1010,-0.4215,-1.5328,-9.6184,-2.5043,6.8174,6.1217
1015,-0.5365,-1.4562,-9.5801,-3.1304,5.913,5.7043
1020,-0.4598,-1.5711,-9.695,-3.4087,5.287,5.4957
1025,-0.5365,-1.5711,-9.6567,-3.8957,4.5913,5.0783
1030,-0.5365,-1.5711,-9.695,-4.5217,4.1739,4.8
1035,-0.7281,-1.6478,-9.5801,-4.9391,4.2435,4.4522
1040,-0.5748,-1.6478,-9.695,-5.287,4.2435,4.5217
1045,-0.4598,-1.7244,-9.7717,-5.4957,4.2435,4.5217
1050,-0.4982,-1.8011,-9.695,-5.5652,4.1739,4.8696
1055,-0.4598,-1.8011,-9.7334,-5.287,3.7565,5.0087
1060,-0.4215,-1.9543,-9.81,-5.1478,3.3391,5.2174
1065,-0.3449,-1.8011,-9.8483,-4.6609,2.9217,5.287
1070,-0.3449,-1.7244,-9.8866,-4.2435,2.5739,5.4261
1075,-0.2299,-1.6861,-9.925,-3.7565,2.087,5.3565
1080,-0.1533,-1.8394,-9.8866,-3.5478,1.7391,5.4957
1085,-0.115,-1.7244,-9.8483,-3.4783,1.6,5.3565
1090,-0.0766,-1.7244,-9.8483,-3.4783,1.5304,5.4957
1095,0.115,-1.7627,-9.7717,-3.6174,1.4609,5.5652
1100,-0.115,-1.7627,-9.7717,-3.4783,1.3913,5.6348
1105,0.0,-1.9543,-9.7334,-3.3391,1.3217,5.5652
1110,0.0,-1.916,-9.925,-3.1304,1.4609,5.6348
1115,-0.0383,-1.9927,-9.7717,-3.0609,1.6696,5.6348
1120,-0.1533,-1.916,-9.81,-2.9217,2.2957,5.7043
1125,-0.1533,-1.9543,-9.8866,-2.5739,2.713,5.6348
1130,-0.3066,-1.8777,-9.81,-2.4348,3.0609,5.6348
1135,-0.3066,-1.8777,-9.8483,-2.2261,3.3391,5.4261
1140,-0.3066,-1.916,-9.9633,-2.1565,3.4087,5.287
1145,-0.3449,-1.8011,-9.925,-2.2261,3.4087,5.2174
1150,-0.4215,-1.7244,-9.925,-2.4348,3.4087,5.3565
1155,-0.3832,-1.8011,-9.9633,-2.713,3.2,5.5652
1160,-0.3449,-1.7627,-10.0399,-3.1304,2.8522,5.6348
1165,-0.3832,-1.7244,-10.1932,-3.687,2.5043,5.6348
1170,-0.3066,-1.8777,-10.1549,-4.3826,2.3652,5.7043
1175,-0.3832,-1.9927,-10.1166,-5.1478,2.2261,5.4957
1180,-0.3832,-2.0693,-10.0399,-5.6348,2.087,5.3565
1185,-0.3832,-2.0693,-9.8866,-5.7043,1.6696,4.9391
1190,-0.4598,-2.1076,-10.0399,-5.287,1.113,4.6609
1195,-0.4598,-2.0693,-9.9633,-4.8696,0.6261,4.3826
1200,-0.4215,-2.1843,-9.81,-4.3826,0.4174,4.1739
1205,-0.4215,-2.0693,-9.8866,-4.1739,0.2087,4.1739
1210,-0.4598,-2.031,-9.81,-3.8957,0.0696,4.0348
1215,-0.3832,-2.031,-9.925,-3.6174,-0.1391,3.9652
1220,-0.3832,-2.031,-10.1549,-3.2696,-0.2783,3.8261
1225,-0.3832,-1.9927,-10.3082,-3.1304,-0.2783,3.4783
1230,-0.3066,-2.0693,-10.2698,-2.9913,0.0696,3.0609
1235,-0.4215,-2.0693,-10.2315,-2.8522,0.5565,2.5739
1240,-0.2682,-1.9927,-10.2698,-2.6435,1.1826,2.087
1245,-0.3449,-1.8394,-10.0782,-2.5043,1.6696,1.8783
1250,-0.2682,-1.916,-9.9633,-2.3652,2.2261,1.3913
1255,-0.2682,-1.9543,-10.0782,-2.2261,2.5739,1.2522
1260,-0.2682,-1.9927,-9.7717,-2.1565,2.9217,0.9043
1265,-0.3449,-1.8777,-9.925,-2.0174,3.2696,0.7652
1270,-0.3066,-1.916,-9.925,-2.1565,3.6174,0.8348
1275,-0.3066,-1.7627,-9.8483,-2.2957,4.1043,1.0435
1280,-0.1916,-1.916,-9.8866,-2.3652,4.3826,1.2522
1285,-0.1916,-1.916,-10.0782,-2.5739,4.5913,1.5304
1290,-0.1533,-2.031,-10.0782,-2.4348,5.0087,1.4609
1295,-0.2682,-1.9927,-10.1166,-2.087,5.4261,1.6
1300,-0.2299,-2.0693,-10.0782,-1.7391,5.913,1.3913
1305,-0.3449,-2.0693,-10.2315,-1.2522,6.4696,1.3913
1310,-0.3449,-1.9543,-10.0016,-0.8348,6.6783,1.113
1315,-0.3449,-1.8777,-9.9633,-0.487,6.6783,0.9739
1320,-0.3449,-1.8394,-10.0399,-0.2783,6.5391,0.6261
1325,-0.3832,-1.6861,-10.1549,-0.5565,6.2609,0.6261
1330,-0.3449,-1.9543,-10.2315,-1.2522,5.8435,0.3478
1335,-0.4598,-1.8777,-10.3082,-2.0174,5.4957,0.2087
1340,-0.4598,-1.9927,-10.3082,-2.7826,5.0783,-0.2087
1345,-0.4982,-2.031,-10.1549,-3.2696,4.8,-0.4174
1350,-0.4598,-1.9543,-10.2315,-3.7565,4.5913,-0.9739
1355,-0.4598,-1.9543,-10.2698,-4.1739,4.313,-1.113
1360,-0.4215,-2.1076,-10.2315,-4.4522,4.313,-1.4609
1365,-0.4598,-2.031,-10.2698,-4.7304,4.4522,-1.4609
1370,-0.4598,-2.031,-10.2315,-4.6609,4.5217,-1.6696
1375,-0.4982,-2.1076,-10.1166,-4.1043,4.5217,-1.4609
1380,-0.4215,-2.0693,-10.1166,-3.4783,4.3826,-1.4609
1385,-0.4598,-2.031,-10.0782,-2.713,4.2435,-1.2522
1390,-0.4598,-2.031,-10.0399,-1.9478,4.1739,-1.3913
1395,-0.4215,-2.0693,-9.9633,-1.2522,3.9652,-1.1826
1400,-0.4215,-1.8777,-9.925,-0.9043,3.8261,-1.3913
1405,-0.4598,-1.8777,-9.8866,-0.9043,3.3391,-1.2522
1410,-0.3449,-1.8394,-9.8866,-0.9043,3.2,-1.3913
1415,-0.3066,-1.8777,-10.0016,-1.3217,3.1304,-1.1826
1420,-0.3066,-1.8011,-9.81,-1.7391,3.0609,-1.4609
1425,-0.3066,-1.8394,-9.9633,-2.1565,3.2,-1.3217
1430,-0.3832,-1.9543,-9.925,-2.2957,3.3391,-1.6696
1435,-0.3449,-1.916,-9.8483,-2.2957,3.5478,-1.5304
1440,-0.4215,-1.8011,-9.925,-2.1565,3.8261,-1.6696
1445,-0.3832,-1.8394,-9.9633,-1.8783,3.8957,-1.3913
1450,-0.3449,-1.916,-9.925,-1.6696,3.8957,-1.5304
1455,-0.4598,-1.8011,-9.8483,-1.2522,3.9652,-1.1826
1460,-0.4598,-1.7627,-9.925,-1.0435,4.1739,-1.1826
1465,-0.4215,-1.8394,-9.7717,-0.7652,4.313,-0.9739
1470,-0.3449,-1.7627,-9.8483,-0.487,4.3826,-1.0435
1475,-0.3832,-1.6861,-9.8866,-0.2783,4.3826,-0.6261
1480,-0.3832,-1.6861,-9.8483,-0.2783,4.3826,-0.487
1485,-0.2682,-1.7244,-9.695,-0.2783,4.2435,-0.1391
1490,-0.2682,-1.7244,-9.8483,-0.2783,4.2435,-0.1391
1495,-0.3066,-1.6861,-9.925,-0.2783,4.2435,0.2087
1500,-0.4598,-1.7627,-9.8483,-0.1391,4.1739,0.0696
1505,-0.3832,-1.6478,-9.8866,0.0,4.0348,0.0696
1510,-0.3832,-1.7244,-10.0016,0.1391,3.8957,-0.2783
1515,-0.3449,-1.6095,-9.8866,0.2087,3.8261,-0.2087
1520,-0.3832,-1.5711,-9.925,0.0,3.8261,-0.487
1525,-0.3066,-1.7244,-10.0016,-0.2087,3.8957,-0.4174
1530,-0.4215,-1.7244,-10.0399,-0.5565,4.0348,-0.7652
1535,-0.3832,-1.6478,-10.0399,-0.9043,4.313,-0.7652
1540,-0.3832,-1.7627,-10.1549,-1.3217,4.8,-0.9739
1545,-0.3066,-1.7627,-10.2698,-1.6696,5.2174,-0.9739
1550,-0.3832,-1.8394,-10.1549,-1.8783,5.6348,-1.2522
1555,-0.3832,-1.8011,-10.2698,-2.087,6.3304,-1.113
1560,-0.4598,-1.7244,-10.0016,-2.2261,6.6087,-1.2522
1565,-0.4598,-1.6478,-10.0016,-2.2957,6.5391,-1.1826
1570,-0.3832,-1.7627,-10.1166,-2.3652,6.2609,-1.1826
1575,-0.4598,-1.7244,-10.0016,-2.5043,5.913,-1.0435
1580,-0.4598,-1.8011,-10.0782,-2.4348,5.4957,-1.113
1585,-0.4598,-1.8011,-10.0016,-2.0174,4.9391,-1.0435
1590,-0.4598,-1.7244,-10.0016,-1.4609,4.5217,-1.2522
1595,-0.4215,-1.8777,-9.7717,-0.8348,4.2435,-1.1826
1600,-0.4598,-1.7244,-9.9633,-0.4174,4.0348,-1.3217
1605,-0.4215,-1.6095,-9.9633,-0.3478,3.8261,-1.3913
1610,-0.4215,-1.6478,-9.7334,-0.7652,3.4783,-1.6696
1615,-0.4215,-1.7244,-9.7334,-1.3913,3.3391,-1.5304
1620,-0.3449,-1.5711,-9.6184,-2.1565,3.2,-1.7391
1625,-0.3832,-1.4945,-9.7717,-2.9913,3.1304,-1.3913
1630,-0.3449,-1.6861,-9.5801,-3.6174,3.0609,-1.3217
1635,-0.4215,-1.6095,-9.8483,-4.1043,2.9913,-0.9043
1640,-0.4215,-1.8011,-9.8483,-4.3826,3.0609,-0.9043
1645,-0.4215,-1.6478,-9.8483,-4.3826,3.3391,-0.7652
1650,-0.4598,-1.6478,-9.9633,-4.2435,3.8261,-0.7652
1655,-0.3832,-1.7627,-9.8866,-3.8261,4.313,-0.4174
1660,-0.3832,-1.5711,-9.8866,-3.2696,4.8696,-0.487
1665,-0.3066,-1.7244,-9.9633,-2.4348,5.0783,-0.2087
1670,-0.3449,-1.5711,-9.9633,-1.7391,5.0783,-0.2783
1675,-0.3449,-1.5711,-10.0399,-1.1826,4.9391,-0.2087
1680,-0.2682,-1.6095,-10.0016,-0.6957,4.8,-0.2087
1685,-0.3066,-1.5711,-9.925,-0.4174,4.5217,-0.1391
1690,-0.2299,-1.5711,-9.8866,-0.2783,4.2435,-0.2783
1695,-0.2299,-1.4945,-9.925,-0.4174,4.1739,-0.1391
1700,-0.2682,-1.5328,-9.7717,-0.6957,4.1739,-0.3478
1705,-0.3449,-1.4562,-9.7334,-0.9739,4.3826,-0.2783
1710,-0.2682,-1.4179,-9.8483,-1.3217,4.5217,-0.3478
1715,-0.2682,-1.5328,-9.8483,-1.7391,4.6609,-0.2087
1720,-0.3066,-1.4562,-9.695,-1.9478,4.9391,-0.4174
1725,-0.3449,-1.4562,-9.7717,-2.1565,5.0087,-0.3478
1730,-0.3449,-1.6095,-9.81,-2.2957,4.9391,-0.3478
1735,-0.3832,-1.5711,-9.8483,-2.5043,5.0087,-0.4174
1740,-0.4215,-1.5711,-9.7717,-2.5043,4.9391,-0.6957
1745,-0.4598,-1.6095,-9.81,-2.5043,4.7304,-0.8348
1750,-0.4598,-1.6095,-10.1166,-2.6435,4.7304,-1.1826
1755,-0.5365,-1.4945,-9.925,-2.9217,4.8696,-1.3217
1760,-0.3832,-1.6478,-10.0782,-3.2696,4.8696,-1.5304
1765,-0.4215,-1.5711,-10.1166,-3.6174,5.0783,-1.4609
1770,-0.3066,-1.5711,-10.1166,-3.8957,5.3565,-1.3913
1775,-0.3449,-1.6095,-10.0782,-4.1739,5.4957,-1.3217
1780,-0.3066,-1.5328,-10.0782,-4.3826,5.7043,-1.113
1785,-0.3066,-1.6861,-10.0399,-4.4522,5.913,-0.9739
1790,-0.3066,-1.5328,-10.0782,-4.313,5.913,-0.8348
1795,-0.4215,-1.6095,-10.0399,-4.1043,5.913,-0.6261
1800,-0.3832,-1.6861,-9.925,-3.8957,5.8435,-0.6261
1805,-0.4598,-1.5711,-10.0399,-3.687,5.7739,-0.487
1810,-0.4215,-1.5711,-9.925,-3.4783,5.7043,-0.6261
1815,-0.3832,-1.6095,-9.8483,-3.3391,5.5652,-0.5565
1820,-0.4598,-1.6095,-9.8866,-3.2696,5.4261,-0.487
1825,-0.4598,-1.5711,-9.8483,-3.3391,5.1478,-0.5565
1830,-0.4598,-1.4562,-9.8483,-3.6174,4.8,-0.6261
1835,-0.4215,-1.5328,-9.8483,-3.687,4.313,-0.6261
1840,-0.3832,-1.6478,-9.81,-3.7565,3.8957,-0.8348
1845,-0.4598,-1.5711,-9.7717,-3.8261,3.4783,-0.8348
1850,-0.4215,-1.7244,-9.9633,-3.687,2.9217,-0.8348
1855,-0.4598,-1.6095,-9.8483,-3.6174,2.6435,-0.9043
1860,-0.4215,-1.8011,-10.0016,-3.4087,2.5739,-1.0435
1865,-0.4215,-1.6095,-9.9633,-3.4087,2.6435,-1.0435
1870,-0.4598,-1.6095,-10.0016,-3.2,2.8522,-0.9739
1875,-0.115,-1.6861,-9.925,-3.3391,3.0609,-1.113
1880,0.0,-1.4562,-9.9633,-3.6174,3.3391,-0.9043
1885,-0.1533,-1.9927,-9.925,-3.8957,3.6174,-0.9043
1890,-0.3066,-1.7627,-10.4614,-4.1043,3.9652,-0.7652
1895,-0.0766,-1.4945,-9.81,-4.1739,4.1739,-0.5565
1900,-0.1533,-1.4945,-9.5034,-3.9652,4.1043,-0.4174
1905,-0.1916,-1.8011,-9.8483,-3.5478,3.9652,-0.2087
1910,-0.2299,-1.3412,-10.1549,-3.2,3.7565,0.0
1915,-0.4215,-1.4945,-9.5801,-2.8522,3.7565,0.0
1920,-0.0766,-1.8011,-10.1166,-2.6435,3.4783,0.2087
1925,-0.2299,-1.6095,-10.1549,-2.3652,3.5478,0.0696
1930,-0.0766,-1.6861,-10.0782,-2.2261,3.4783,0.0696
1935,-0.1916,-1.5711,-10.0399,-2.2261,3.4783,-0.1391
1940,-0.1533,-1.6478,-10.1932,-2.2261,3.4783,-0.1391
1945,-0.1916,-1.6095,-10.0782,-2.2261,3.4783,-0.3478
1950,-0.2299,-1.5328,-10.0782,-2.2261,3.4783,-0.4174
1955,-0.2682,-1.6095,-10.0016,-2.3652,3.6174,-0.487
1960,-0.1916,-1.6478,-10.0399,-2.6435,3.7565,-0.4174
1965,-0.2682,-1.6478,-10.1932,-2.7826,3.9652,-0.5565
1970,-0.3066,-1.6861,-10.0782,-3.0609,4.0348,-0.5565
1975,-0.2682,-1.6478,-10.1549,-3.3391,4.1739,-0.7652
1980,-0.2682,-1.6095,-10.0399,-3.4087,4.4522,-0.7652
1985,-0.3066,-1.7627,-10.0782,-3.3391,4.5913,-0.9043
1990,-0.3449,-1.7244,-9.9633,-3.1304,4.7304,-0.8348
1995,-0.3449,-1.8011,-10.1166,-2.9217,4.8696,-0.9739
2000,-0.3832,-1.7244,-10.1549,-2.5739,5.0087,-0.8348
2005,-0.2682,-1.7627,-10.0399,-2.2261,5.1478,-0.9043
2010,-0.3832,-1.6095,-9.9633,-1.9478,5.287,-0.7652
2015,-0.3832,-1.4945,-10.0016,-1.5304,5.0087,-0.8348
2020,-0.4215,-1.4945,-9.8866,-1.2522,4.7304,-0.6261
2025,-0.3832,-1.3795,-10.1549,-1.0435,4.3826,-0.6261
2030,-0.3066,-1.4945,-10.0399,-0.9043,3.8261,-0.3478
2035,-0.2682,-1.5711,-9.8866,-1.1826,3.3391,-0.3478
2040,-0.4215,-1.4562,-9.925,-1.5304,2.9217,-0.2783
2045,-0.2299,-1.4562,-9.925,-1.9478,2.8522,-0.3478
2050,-0.4215,-1.4945,-10.0016,-2.2261,3.0609,-0.2783
2055,-0.3449,-1.5711,-10.0399,-2.3652,3.2,-0.487
2060,-0.2682,-1.5328,-10.0782,-2.6435,3.4087,-0.4174
2065,-0.3832,-1.6095,-10.0782,-2.8522,3.7565,-0.6957
2070,-0.3832,-1.5328,-10.1166,-2.9217,4.1739,-0.5565
2075,-0.2682,-1.6095,-10.0782,-2.8522,4.5217,-0.6261
2080,-0.3832,-1.5328,-10.0399,-2.7826,4.8696,-0.3478
2085,-0.3449,-1.4945,-10.1166,-2.6435,4.8696,-0.3478
2090,-0.3066,-1.5328,-10.1166,-2.713,4.8696,0.0
2095,-0.3066,-1.5328,-10.0782,-2.6435,4.8696,0.0696
2100,-0.3449,-1.4562,-10.2698,-2.6435,5.0087,0.3478
2105,-0.3066,-1.5711,-10.0782,-2.4348,5.0783,0.5565
2110,-0.3449,-1.5328,-10.0782,-2.0174,5.0783,0.7652
2115,-0.3066,-1.5328,-10.0782,-1.8783,5.0783,0.7652
2120,-0.2299,-1.4945,-9.8866,-1.4609,4.8696,1.1826
2125,-0.2682,-1.4945,-10.0399,-1.0435,4.5913,1.0435
2130,-0.3832,-1.4945,-9.9633,-0.5565,4.313,1.2522
2135,-0.3066,-1.4562,-9.8866,-0.4174,4.0348,0.9739
2140,-0.4215,-1.4562,-9.81,-0.4174,3.8957,0.9739
2145,-0.4598,-1.3795,-9.925,-0.6261,3.8957,0.6261
2150,-0.3832,-1.4179,-9.81,-0.9739,3.8957,0.6261
2155,-0.4215,-1.3795,-9.925,-1.3217,3.8957,0.6261
2160,-0.3449,-1.4562,-9.925,-1.8087,3.7565,0.7652
2165,-0.3449,-1.3412,-9.9633,-2.2957,3.7565,0.5565
2170,-0.3449,-1.4179,-9.9633,-2.6435,3.687,0.6261
2175,-0.3449,-1.4945,-9.925,-2.8522,3.8261,0.487
2180,-0.4215,-1.4562,-9.8866,-2.9913,3.8261,0.6261
2185,-0.4215,-1.3412,-9.925,-2.8522,3.8261,0.487
2190,-0.3449,-1.4945,-9.81,-2.6435,3.9652,0.6957
2195,-0.2682,-1.4562,-10.1166,-2.5043,3.9652,0.5565
2200,-0.4215,-1.5328,-9.8866,-2.2261,3.8261,0.7652
2205,-0.3066,-1.5328,-10.0016,-2.0174,3.7565,0.5565
2210,-0.3832,-1.4945,-10.0399,-1.8783,3.687,0.6261
2215,-0.4215,-1.4562,-9.9633,-1.5304,3.687,0.4174
2220,-0.4215,-1.5328,-9.8483,-1.2522,3.687,0.5565
2225,-0.4598,-1.4179,-9.8866,-0.9739,3.7565,0.3478
2230,-0.4215,-1.3795,-9.8866,-0.8348,3.9652,0.487
2235,-0.2682,-1.4179,-9.7717,-0.6957,3.9652,0.3478
2240,-0.2682,-1.4562,-9.925,-0.487,4.1043,0.5565
2245,-0.3832,-1.2646,-10.0399,-0.3478,4.2435,0.487
2250,-0.3066,-1.2646,-10.0016,-0.3478,4.313,0.6261
2255,-0.1533,-1.3412,-10.1549,-0.4174,4.4522,0.5565
2260,-0.1916,-1.3795,-10.0399,-0.487,4.5913,0.8348
2265,-0.2299,-1.3795,-10.1549,-0.6261,4.8696,0.6957
2270,-0.2299,-1.4179,-10.0782,-0.7652,4.9391,0.9043
2275,-0.2682,-1.3795,-10.1166,-1.0435,5.2174,0.7652
2280,-0.115,-1.4179,-10.1166,-1.113,5.3565,0.9739
2285,-0.1916,-1.4179,-10.0782,-1.2522,5.4957,0.6957
2290,-0.1916,-1.6095,-10.0399,-1.3217,5.4957,0.7652
2295,-0.1916,-1.4562,-10.1549,-1.3913,5.4957,0.5565
2300,-0.3066,-1.5328,-9.8866,-1.5304,5.6348,0.6261
2305,-0.3449,-1.4562,-10.0016,-1.4609,5.7043,0.487
2310,-0.3832,-1.4945,-9.9633,-1.3217,5.7739,0.6261
2315,-0.4598,-1.4945,-10.0016,-1.0435,5.7043,0.3478
2320,-0.4215,-1.4945,-10.0016,-0.9043,5.6348,0.487
2325,-0.3832,-1.4945,-9.9633,-0.7652,5.6348,0.4174
2330,-0.3066,-1.5328,-9.9633,-0.6261,5.6348,0.7652
2335,-0.4215,-1.4945,-9.9633,-0.3478,5.6348,0.6261
2340,-0.3066,-1.5711,-9.7717,0.0,5.5652,0.6957
2345,-0.3449,-1.5711,-9.925,0.2087,5.4261,0.5565
2350,-0.3449,-1.4562,-9.81,0.3478,5.287,0.6957
2355,-0.3066,-1.6095,-9.8866,0.4174,4.8,0.6261
2360,-0.3832,-1.4945,-9.9633,0.487,4.2435,0.7652
2365,-0.4215,-1.4562,-10.0399,0.6957,3.6174,0.6261
2370,-0.3449,-1.3412,-9.9633,0.7652,3.2,0.6957
2375,-0.3832,-1.4562,-9.925,0.6261,2.8522,0.487
2380,-0.4215,-1.3412,-10.0016,0.4174,2.5739,0.6261
2385,-0.3449,-1.3795,-10.0016,0.0696,2.2957,0.5565
2390,-0.3449,-1.3412,-10.1932,-0.3478,2.0174,0.6957
2395,-0.3066,-1.4179,-10.1549,-0.6261,1.9478,0.5565
2400,-0.3066,-1.3795,-10.0399,-0.9043,1.9478,0.6261
2405,-0.2682,-1.5328,-10.1166,-1.1826,2.0174,0.6261
2410,-0.1916,-1.5711,-10.1549,-1.5304,2.087,0.8348
2415,-0.2682,-1.5328,-10.1549,-1.5304,2.1565,0.7652
2420,-0.2299,-1.5711,-10.0016,-1.1826,2.2261,0.9739
2425,-0.115,-1.6478,-10.1166,-0.9739,2.4348,0.9739
2430,-0.2299,-1.7244,-9.9633,-0.6261,2.6435,1.113
2435,-0.3066,-1.6478,-9.925,-0.0696,2.9913,0.9739
2440,-0.2682,-1.6095,-9.8866,0.6261,3.2696,1.0435
2445,-0.2682,-1.6861,-9.8866,1.3913,3.6174,0.9739
2450,-0.2299,-1.6095,-9.7717,2.0174,3.8261,0.9043
2455,-0.3832,-1.5328,-9.925,2.7826,4.1043,0.8348
2460,-0.3066,-1.4179,-9.8483,3.2,4.313,0.8348
2465,-0.2682,-1.3412,-9.8483,3.4087,4.5217,0.6957
2470,-0.3832,-1.3412,-9.8483,3.4783,4.5217,0.6261
2475,-0.2682,-1.1879,-9.7334,3.3391,4.4522,0.6261
2480,-0.1916,-1.3029,-9.9633,3.1304,4.2435,0.5565
2485,-0.3832,-1.2646,-9.925,2.7826,4.0348,0.4174
2490,-0.3449,-1.3029,-9.9633,2.1565,3.8957,0.3478
2495,-0.3066,-1.1879,-10.0016,1.3217,3.687,0.3478
2500,-0.3832,-1.3029,-10.0399,0.487,3.4087,0.3478
2505,-0.3832,-1.3412,-9.9633,-0.1391,2.9913,0.2087
2510,-0.4598,-1.3795,-9.7717,-0.5565,2.5739,0.2087
2515,-0.4598,-1.4179,-10.0399,-0.7652,2.4348,0.1391
2520,-0.4598,-1.4562,-10.0016,-0.7652,2.2261,0.1391
2525,-0.4598,-1.4562,-10.0399,-0.6261,2.087,0.1391
2530,-0.4215,-1.5711,-10.0399,-0.4174,1.8087,0.1391
2535,-0.3832,-1.5711,-9.925,-0.2783,1.8783,0.2087
2540,-0.4215,-1.4945,-9.8483,0.0,1.8087,0.0696
2545,-0.3832,-1.4562,-10.0782,0.2783,1.8783,0.1391
2550,-0.4598,-1.4562,-10.0016,0.3478,2.087,0.2783
2555,-0.3832,-1.4179,-10.0016,0.4174,2.2261,0.4174
2560,-0.3449,-1.5711,-10.1549,0.5565,2.4348,0.3478
2565,-0.3449,-1.4945,-10.0016,0.7652,2.713,0.3478
2570,-0.3066,-1.4179,-10.0016,0.8348,2.8522,0.2783
2575,-0.1916,-1.4179,-9.9633,0.9739,3.1304,0.2087
2580,-0.2299,-1.3795,-10.0016,1.113,3.4087,0.2087
2585,-0.3832,-1.4562,-10.0399,1.3913,3.5478,0.2783
2590,-0.1916,-1.4179,-9.925,1.4609,3.7565,0.0696
2595,-0.3832,-1.4179,-10.0782,1.4609,3.8261,0.1391
2600,-0.3449,-1.3795,-10.0782,1.5304,3.8957,0.0696
2605,-0.4215,-1.4179,-10.0782,1.2522,4.0348,0.0696
2610,-0.3832,-1.3795,-9.9633,1.113,4.1043,0.0
2615,-0.3066,-1.4945,-9.9633,0.9043,4.1739,0.0
2620,-0.3832,-1.4179,-9.925,0.5565,4.1739,-0.0696
2625,-0.4215,-1.5328,-9.81,0.2087,3.9652,0.0
2630,-0.4215,-1.5328,-9.925,-0.0696,4.0348,-0.0696
2635,-0.4598,-1.4945,-9.8866,-0.0696,4.0348,0.0696
2640,-0.4598,-1.4945,-9.8483,0.0,4.1739,0.0696
2645,-0.3832,-1.5328,-9.8483,0.2783,4.313,0.2087
2650,-0.3449,-1.5328,-9.81,0.487,4.3826,0.2087
2655,-0.4215,-1.6095,-9.925,0.6957,4.4522,0.2783
2660,-0.3449,-1.6861,-9.81,0.9739,4.3826,0.1391
2665,-0.3449,-1.5328,-9.7717,1.113,4.1739,0.2783
2670,-0.3066,-1.6478,-9.8866,1.2522,4.1043,0.0696
2675,-0.2682,-1.5711,-10.0016,1.6,4.0348,0.2087
2680,-0.2299,-1.5328,-10.0016,1.6696,4.0348,0.0
2685,-0.2299,-1.5711,-9.9633,1.8087,3.9652,0.0696
2690,-0.2682,-1.3412,-10.0399,1.9478,3.8261,-0.0696
2695,-0.2682,-1.5711,-9.925,1.8087,3.7565,0.0696
2700,-0.2682,-1.3795,-9.8866,1.7391,3.6174,-0.1391
2705,-0.4215,-1.3795,-9.925,1.5304,3.6174,-0.0696
2710,-0.4215,-1.4179,-10.0016,1.3913,3.6174,-0.3478
2715,-0.4215,-1.5328,-10.1549,1.2522,3.687,-0.2783
2720,-0.4598,-1.4562,-9.9633,1.113,3.9652,-0.487
2725,-0.3832,-1.6478,-9.925,1.0435,4.313,-0.3478
2730,-0.4598,-1.6095,-9.9633,0.9739,4.6609,-0.5565
2735,-0.4598,-1.6478,-9.81,0.9739,4.8,-0.3478
2740,-0.4598,-1.4945,-10.0399,1.1826,4.7304,-0.4174
2745,-0.4215,-1.6095,-10.0016,1.2522,4.7304,-0.487
2750,-0.4215,-1.5711,-9.9633,1.4609,4.6609,-0.6261
2755,-0.4598,-1.4945,-9.925,1.8087,4.5913,-0.5565
2760,-0.3832,-1.6861,-9.9633,2.087,4.4522,-0.7652
2765,-0.4215,-1.6478,-9.9633,2.3652,4.313,-0.6261
2770,-0.4215,-1.6478,-10.0782,2.2261,4.313,-0.8348
2775,-0.3449,-1.5711,-10.1549,2.2261,4.2435,-0.8348
2780,-0.4215,-1.5328,-10.1549,2.2957,4.1739,-0.9043
2785,-0.3449,-1.5711,-9.9633,2.1565,4.1043,-0.6261
2790,-0.4215,-1.5328,-10.1166,2.1565,3.9652,-0.8348
2795,-0.3066,-1.6861,-9.8866,2.0174,3.9652,-0.5565
2800,-0.4598,-1.6478,-10.0782,1.9478,3.9652,-0.6261
2805,-0.3449,-1.6478,-9.925,1.9478,4.0348,-0.4174
2810,-0.4598,-1.7244,-10.0399,1.9478,4.1739,-0.5565
2815,-0.4215,-1.8394,-9.9633,2.2261,4.3826,-0.4174
2820,-0.3832,-1.8011,-9.9633,2.3652,4.4522,-0.6957
2825,-0.3449,-1.9927,-10.1549,2.7826,4.6609,-0.5565
2830,-0.4215,-1.8777,-10.1166,3.3391,4.6609,-0.7652
2835,-0.2682,-2.031,-10.0782,4.2435,4.5913,-0.9043
2840,-0.3449,-1.916,-10.0782,5.1478,4.7304,-1.1826
2845,-0.4598,-1.916,-10.1166,5.913,4.7304,-1.3217
2850,-0.4215,-2.031,-10.0782,6.4696,4.7304,-1.6696
2855,-0.4598,-1.9543,-10.0016,7.0957,4.8,-1.8783
2860,-0.4215,-1.9543,-9.9633,7.4435,4.7304,-2.2261
2865,-0.4982,-1.916,-10.1166,7.6522,4.7304,-2.1565
2870,-0.4598,-1.916,-10.0782,8.0,4.8696,-2.3652
2875,-0.4598,-1.9927,-10.0782,8.3478,5.1478,-2.4348
2880,-0.4598,-2.1076,-10.1549,8.9739,5.0087,-2.6435
2885,-0.4598,-2.0693,-10.3465,9.6696,4.8,-2.6435
2890,-0.4598,-2.1459,-10.2315,10.4348,4.5217,-2.9913
2895,-0.3832,-2.1459,-10.3465,11.4087,4.0348,-3.0609
2900,-0.3449,-1.9927,-10.3465,12.4522,3.687,-3.687
2905,-0.4215,-2.1459,-10.1549,13.4261,3.2,-3.8957
2910,-0.3449,-2.2992,-10.0399,14.2609,2.713,-4.4522
2915,-0.3832,-2.2992,-10.0782,14.9565,2.3652,-4.8
2920,-0.3449,-2.1843,-10.0782,15.3739,2.0174,-5.287
2925,-0.4215,-2.1459,-9.9633,15.7217,1.8087,-5.7043
2930,-0.3449,-2.2992,-10.1166,16.2087,1.8087,-6.1217
2935,-0.3449,-2.2992,-10.0782,16.6261,1.9478,-6.3304
2940,-0.3832,-2.2992,-10.1166,17.2522,2.3652,-6.6087
2945,-0.4215,-2.3375,-10.1166,17.8087,2.7826,-6.6783
2950,-0.4598,-2.4908,-10.1549,18.3652,3.2696,-7.0261
2955,-0.4982,-2.4525,-10.1166,19.0609,3.6174,-7.0261
2960,-0.5365,-2.6058,-10.1549,19.8957,4.0348,-7.3043
2965,-0.4982,-2.6058,-10.1932,20.7304,4.2435,-7.2348
2970,-0.4598,-2.6058,-10.2698,21.3565,4.6609,-7.3739
2975,-0.5365,-2.6058,-10.2698,22.0522,4.6609,-6.9565
2980,-0.3832,-2.6441,-10.2315,22.0522,4.8696,-6.7478
2985,-0.3832,-2.6824,-10.1932,21.9826,4.8696,-6.1913
2990,-0.2682,-2.9507,-10.3848,21.9826,5.2174,-5.9826
2995,-0.3449,-2.6824,-10.3465,21.913,5.5652,-5.4957
