timestamp,accX,accY,accZ,gyroX,gyroY,gyroZ
0,-0.7281,-8.9286,-4.4835,-5.6348,5.4957,1.0435
5,-0.7664,-8.6604,-4.5601,-5.4957,5.4261,0.9043
10,-0.7281,-8.6604,-4.5984,-5.287,5.2174,0.8348
15,-0.843,-8.737,-4.5601,-5.1478,5.0783,0.6261
20,-0.7281,-8.6221,-4.5984,-4.9391,4.7304,0.3478
25,-0.6898,-8.6987,-4.6368,-4.6609,4.4522,0.2087
30,-0.8047,-8.5454,-4.5218,-4.4522,4.1739,-0.0696
35,-0.8814,-8.8137,-4.5601,-4.3826,3.8957,-0.2087
40,-0.7664,-8.6987,-4.6368,-4.2435,3.5478,-0.487
45,-0.8047,-8.7754,-4.5984,-4.0348,3.2,-0.6957
50,-0.958,-8.6987,-4.5601,-4.0348,2.9913,-0.9043
55,-0.8047,-8.852,-4.5984,-3.9652,2.7826,-1.1826
60,-0.8047,-8.737,-4.5984,-3.7565,2.5739,-1.2522
65,-0.7664,-8.7754,-4.5218,-3.4087,2.5739,-1.3913
70,-0.7281,-8.9286,-4.6368,-2.9913,2.5739,-1.6
75,-0.6898,-9.0053,-4.6368,-2.4348,2.5043,-1.6696
80,-0.7664,-8.8903,-4.5601,-1.8087,2.5739,-1.8087
85,-0.6898,-8.967,-4.4835,-1.1826,2.713,-1.8783
90,-0.6514,-8.852,-4.5984,-0.5565,2.7826,-2.0174
95,-0.6514,-8.8903,-4.5218,0.0,3.0609,-2.087
100,-0.6898,-8.852,-4.5984,0.5565,3.4783,-1.8783
105,-0.6514,-8.8903,-4.6368,0.9043,3.687,-1.8087
110,-0.6514,-8.7754,-4.5984,1.113,3.9652,-1.6
115,-0.7281,-8.9286,-4.4835,1.2522,4.3826,-1.3913
120,-0.6898,-8.9286,-4.4835,1.2522,4.7304,-1.2522
125,-0.6898,-8.852,-4.2919,1.2522,4.8696,-1.0435
130,-0.6131,-8.852,-4.4452,1.0435,5.1478,-0.9043
135,-0.7664,-8.8903,-4.2919,0.9043,5.2174,-0.8348
140,-0.9197,-8.8137,-4.3685,0.6957,5.287,-0.8348
145,-0.6898,-9.0819,-4.4068,0.5565,5.2174,-0.8348
150,-0.6898,-9.0053,-4.4068,0.6261,5.2174,-0.7652
155,-0.7281,-9.0436,-4.2536,0.5565,5.0783,-0.9043
160,-0.7664,-8.9286,-4.2536,0.487,5.0087,-0.8348
165,-0.843,-8.9286,-4.2919,0.6261,5.0087,-0.9043
170,-0.7664,-8.967,-4.2919,0.7652,4.8696,-0.7652
175,-0.7281,-8.9286,-4.3302,0.8348,4.7304,-0.8348
180,-0.7664,-8.9286,-4.2919,0.9043,4.5913,-0.6957
185,-0.8047,-9.0053,-4.2536,0.9043,4.5217,-0.5565
190,-0.7281,-9.0053,-4.3685,0.9739,4.5217,-0.6261
195,-0.843,-9.0053,-4.3302,0.9739,4.5217,-0.487
200,-0.8047,-8.8903,-4.3302,1.0435,4.5217,-0.4174
205,-0.6514,-9.0436,-4.4068,1.2522,4.4522,-0.2783
210,-0.7281,-8.8903,-4.3685,1.3217,4.4522,-0.0696
215,-0.8047,-8.967,-4.4068,1.5304,4.5217,0.0
220,-0.6514,-8.9286,-4.3302,1.6696,4.5913,0.0696
225,-0.6131,-8.967,-4.3685,1.6696,4.5913,0.0696
230,-0.6131,-8.8903,-4.5984,1.9478,4.5913,0.2783
235,-0.7281,-8.852,-4.4835,2.0174,4.8,0.3478
240,-0.7281,-8.8903,-4.4835,2.087,4.8,0.3478
245,-0.7664,-9.0436,-4.4068,2.2261,4.7304,0.2087
250,-0.6514,-9.0819,-4.6751,2.2957,4.8696,0.2087
255,-0.5748,-8.967,-4.3685,2.5043,4.8,0.0696
260,-0.5365,-8.967,-4.3685,2.6435,4.8696,-0.0696
265,-0.5748,-8.967,-4.1769,2.713,4.8,-0.3478
270,-0.5748,-8.8903,-4.4452,2.713,4.8,-0.4174
275,-0.5365,-8.8903,-4.4068,2.7826,4.7304,-0.6261
280,-0.6514,-8.9286,-4.2919,2.8522,4.7304,-0.7652
285,-0.6131,-8.9286,-4.5601,2.8522,4.5913,-0.7652
290,-0.7281,-8.8903,-4.2152,2.8522,4.4522,-0.8348
295,-0.6131,-8.967,-4.4068,2.8522,4.3826,-0.8348
300,-0.6514,-8.737,-4.2536,2.7826,4.3826,-0.9739
305,-0.7281,-8.8903,-4.3685,2.6435,4.3826,-1.0435
310,-0.6514,-8.852,-4.2536,2.5043,4.313,-1.1826
315,-0.6131,-8.8903,-4.2919,2.5043,4.313,-1.113
320,-0.5365,-8.9286,-4.2919,2.5739,4.313,-1.1826
325,-0.6131,-8.852,-4.2919,2.5739,4.2435,-1.2522
330,-0.6514,-8.852,-4.2919,2.713,4.313,-1.1826
335,-0.6514,-8.9286,-4.2152,2.6435,4.2435,-1.3217
340,-0.6898,-8.852,-4.2152,2.713,4.313,-1.3217
345,-0.6514,-8.8903,-4.3302,2.9217,4.313,-1.2522
350,-0.6898,-8.7754,-4.2536,2.8522,4.2435,-1.1826
355,-0.6514,-8.737,-4.062,2.7826,4.1739,-1.3913
360,-0.6514,-9.0053,-4.1769,2.713,4.1043,-1.3913
365,-0.6514,-8.8903,-4.2152,2.713,4.1043,-1.3217
370,-0.6514,-8.8137,-4.2536,2.6435,4.1043,-1.3217
375,-0.5365,-8.967,-4.1769,2.6435,4.0348,-1.3217
380,-0.6131,-8.852,-4.2919,2.5739,4.0348,-1.3217
385,-0.7281,-8.8137,-4.2536,2.5739,3.8261,-1.3217
390,-0.5365,-8.852,-4.1003,2.4348,3.8957,-1.2522
395,-0.6131,-8.8903,-4.1769,2.4348,3.687,-1.1826
400,-0.6514,-8.852,-4.4068,2.1565,3.7565,-1.2522
405,-0.5748,-8.9286,-4.2919,2.0174,3.687,-1.1826
410,-0.6898,-8.967,-4.2152,1.8783,3.6174,-1.1826
415,-0.7664,-8.852,-4.1003,1.6696,3.5478,-1.2522
420,-0.6898,-8.8903,-4.1386,1.4609,3.5478,-1.1826
425,-0.6898,-8.8903,-4.2152,1.3217,3.4783,-1.1826
430,-0.7281,-8.9286,-4.1003,1.1826,3.4087,-1.113
435,-0.6898,-8.967,-4.1769,1.113,3.3391,-1.1826
440,-0.6898,-8.8903,-4.062,1.1826,3.2696,-1.113
445,-0.7281,-8.9286,-4.0236,1.2522,3.1304,-1.1826
450,-0.843,-8.852,-4.1769,1.113,3.1304,-1.1826
455,-0.8047,-8.852,-4.1003,1.0435,2.9913,-1.2522
460,-0.6898,-8.967,-3.8704,0.8348,2.7826,-1.2522
465,-0.8814,-8.967,-4.062,0.5565,2.6435,-1.3217
470,-0.8047,-8.7754,-3.9087,0.487,2.5043,-1.3217
475,-0.6898,-8.967,-4.0236,0.4174,2.3652,-1.1826
480,-0.6131,-8.8137,-3.9853,0.3478,2.2261,-1.2522
485,-0.6898,-8.8903,-4.0236,0.3478,2.2261,-1.1826
490,-0.6514,-8.8137,-3.947,0.2783,2.2261,-1.113
495,-0.6898,-8.852,-3.9853,0.2783,2.1565,-1.113
500,-0.5748,-8.7754,-4.0236,0.0696,2.3652,-1.113
505,-0.8047,-8.7754,-4.0236,-0.2087,2.3652,-1.113
510,-0.7281,-8.7754,-4.1769,-0.5565,2.4348,-1.2522
515,-0.6514,-8.8903,-3.9853,-0.6261,2.5043,-1.3217
520,-0.6131,-8.9286,-4.0236,-0.8348,2.5043,-1.3913
525,-0.6131,-8.852,-4.1769,-1.0435,2.713,-1.5304
530,-0.6131,-8.9286,-4.1003,-1.113,2.9217,-1.4609
535,-0.6514,-8.8903,-4.1003,-1.3217,3.1304,-1.6696
540,-0.4598,-8.9286,-4.2536,-1.6696,3.2696,-1.8087
545,-0.5365,-9.0053,-4.2152,-2.0174,3.4783,-1.9478
550,-0.5365,-9.0436,-4.2536,-2.2957,3.687,-2.2261
555,-0.4982,-9.0436,-4.2152,-2.4348,3.8261,-2.1565
560,-0.5365,-9.0436,-4.0236,-2.4348,3.9652,-2.5043
565,-0.5748,-8.852,-4.2536,-2.2957,3.9652,-2.5043
570,-0.5365,-9.0819,-4.3302,-2.0174,4.0348,-2.5043
575,-0.7664,-9.0436,-4.2536,-1.8087,4.0348,-2.4348
580,-0.5365,-9.1586,-4.1386,-1.5304,4.0348,-2.2261
585,-0.6898,-8.9286,-4.1769,-1.3217,4.1739,-2.087
590,-0.6131,-8.967,-3.9853,-0.9043,4.3826,-2.087
595,-0.5365,-8.967,-4.2536,-0.7652,4.5217,-1.8783
600,-0.7281,-8.8137,-4.0236,-0.4174,4.6609,-1.7391
605,-0.7281,-8.967,-4.1769,-0.2087,4.6609,-1.6696
610,-0.5748,-9.0819,-4.0236,-0.1391,4.6609,-1.5304
615,-0.6514,-8.8903,-4.1769,-0.3478,4.6609,-1.6696
620,-0.5748,-9.0053,-4.1003,-0.4174,4.7304,-1.6
625,-0.6131,-9.0053,-4.1769,-0.6957,4.7304,-1.6
630,-0.4982,-8.967,-4.1003,-1.113,4.9391,-1.6696
635,-0.6131,-8.852,-4.2536,-1.6,5.0087,-1.6696
640,-0.6131,-8.9286,-4.1386,-1.9478,5.287,-1.6696
645,-0.6131,-8.852,-4.2919,-2.3652,5.5652,-1.7391
650,-0.4598,-8.9286,-4.1003,-2.5739,5.7739,-1.7391
655,-0.5365,-8.852,-4.1386,-2.5739,6.0522,-1.6696
660,-0.5748,-8.8137,-4.1769,-2.4348,6.4,-1.6
665,-0.5748,-8.8137,-4.2152,-2.2957,6.7478,-1.5304
670,-0.4982,-8.9286,-4.1386,-2.087,6.9565,-1.3913
675,-0.5748,-8.852,-4.1003,-2.0174,7.2348,-1.2522
680,-0.5365,-8.852,-4.1003,-2.087,7.3739,-1.113
685,-0.5365,-8.737,-4.2152,-2.0174,7.5826,-0.9739
690,-0.4215,-8.852,-4.1386,-2.1565,7.6522,-0.8348
695,-0.3832,-8.8137,-4.2919,-2.1565,7.7913,-0.6261
700,-0.5748,-8.9286,-4.3302,-2.2957,8.0,-0.487
705,-0.5748,-8.8137,-4.1386,-2.4348,7.8609,-0.487
710,-0.5748,-8.8137,-4.1769,-2.5043,7.8609,-0.3478
715,-0.5365,-8.8903,-4.1386,-2.5739,7.8609,-0.4174
720,-0.4982,-8.9286,-4.2919,-2.6435,7.7217,-0.2783
725,-0.4598,-8.967,-4.2152,-2.6435,7.5826,-0.1391
730,-0.5748,-8.8903,-4.1386,-2.6435,7.4435,-0.0696
735,-0.6131,-8.8903,-4.2152,-2.6435,7.3043,-0.1391
740,-0.5748,-8.8903,-4.2152,-2.7826,7.2348,-0.1391
745,-0.6514,-8.8903,-4.1386,-2.9913,7.1652,-0.1391
750,-0.4598,-8.8903,-4.2919,-3.1304,7.0957,0.0696
755,-0.6131,-8.967,-4.2919,-3.3391,6.9565,0.0696
760,-0.5748,-9.0053,-4.2919,-3.3391,7.0261,0.0696
765,-0.6898,-9.0436,-4.2536,-3.3391,7.0261,0.0696
770,-0.6514,-8.9286,-4.2919,-3.2,6.9565,0.1391
775,-0.5365,-8.9286,-4.1769,-3.0609,6.9565,0.1391
780,-0.5748,-8.9286,-4.3302,-2.9217,6.887,0.1391
785,-0.6131,-8.967,-4.3302,-2.9913,6.8174,-0.0696
790,-0.5748,-9.0436,-4.3302,-2.9913,6.7478,0.0
795,-0.3449,-9.1586,-4.2152,-3.1304,6.6783,-0.0696
800,-0.5365,-8.9286,-4.2536,-3.2,6.6783,0.0696
805,-0.6131,-8.967,-4.2152,-3.3391,6.5391,-0.0696
810,-0.5365,-8.9286,-4.2536,-3.3391,6.5391,-0.0696
815,-0.5748,-8.852,-4.2919,-3.3391,6.4696,0.0696
820,-0.5748,-8.8903,-4.2152,-3.2,6.4,0.1391
825,-0.6514,-8.9286,-4.1386,-2.9913,6.3304,0.1391
830,-0.5748,-9.0819,-4.3302,-2.713,6.2609,0.0696
835,-0.6514,-8.9286,-4.2152,-2.4348,6.3304,0.1391
840,-0.6514,-8.967,-4.3302,-2.0174,6.1217,0.1391
845,-0.6131,-8.967,-4.1769,-1.6696,5.9826,0.0696
850,-0.6898,-8.967,-4.2152,-1.3217,5.913,0.1391
855,-0.6131,-8.8903,-4.2919,-1.0435,5.8435,0.0696
860,-0.6898,-8.852,-4.2919,-0.9043,5.913,0.2087
865,-0.6131,-9.0053,-4.2536,-0.9043,5.913,0.2087
870,-0.5365,-8.9286,-4.3302,-0.7652,5.8435,0.3478
875,-0.6131,-8.9286,-4.1769,-0.7652,5.913,0.4174
880,-0.5748,-9.0819,-4.2152,-0.7652,5.7739,0.4174
885,-0.6131,-9.0053,-4.062,-0.8348,5.7043,0.487
890,-0.6131,-9.0053,-4.2536,-0.9739,5.7739,0.4174
895,-0.7281,-8.9286,-4.1769,-0.9739,5.7043,0.487
900,-0.8047,-9.1969,-4.3685,-1.0435,5.5652,0.4174
905,-0.6898,-9.0053,-4.1386,-0.9739,5.4261,0.2783
910,-0.8047,-8.9286,-4.2152,-1.0435,5.2174,0.0696
915,-0.6898,-8.8903,-4.2152,-1.1826,5.0087,-0.0696
920,-0.6898,-8.8903,-4.2152,-1.3217,4.8,-0.2783
925,-0.8047,-8.8903,-4.4068,-1.3217,4.5913,-0.487
930,-0.7281,-8.7754,-4.2536,-1.3913,4.4522,-0.6261
935,-0.7281,-8.852,-4.2919,-1.4609,4.313,-0.7652
940,-0.7281,-8.7754,-4.3685,-1.6,4.313,-0.8348
945,-0.7281,-8.8903,-4.1769,-1.6696,4.313,-0.9739
950,-0.6514,-8.967,-4.2536,-1.6696,4.313,-0.9739
955,-0.6131,-9.0053,-4.3685,-1.6696,4.313,-0.9739
960,-0.6514,-8.852,-4.3302,-1.6696,4.313,-0.9739
965,-0.6131,-8.8137,-4.4835,-1.6,4.4522,-0.8348
970,-0.5748,-8.9286,-4.4068,-1.4609,4.313,-0.7652
975,-0.5748,-8.7754,-4.3302,-1.3913,4.1739,-0.6957
980,-0.5748,-8.7754,-4.4835,-1.3217,4.1043,-0.8348
985,-0.4598,-8.967,-4.2919,-1.1826,4.1043,-0.7652
990,-0.6514,-9.0053,-4.3302,-1.0435,4.0348,-0.8348
995,-0.5748,-8.8903,-4.2536,-0.9739,4.0348,-0.8348
1000,-0.5748,-8.9286,-4.2536,-0.8348,3.9652,-0.9043
1005,-0.5748,-8.8903,-4.2536,-0.9043,3.8957,-0.8348
1010,-0.4982,-9.0053,-4.1769,-0.7652,3.8261,-0.9739
1015,-0.5748,-8.967,-4.3302,-0.6957,3.8261,-1.113
1020,-0.6131,-8.8903,-4.3685,-0.6261,3.9652,-1.113
1025,-0.5748,-8.967,-4.3302,-0.5565,4.0348,-1.113
1030,-0.6131,-8.8137,-4.2152,-0.5565,4.1043,-1.0435
1035,-0.6131,-8.8137,-4.2919,-0.6261,4.1043,-0.9043
1040,-0.4982,-8.9286,-4.3685,-0.5565,4.1043,-0.9739
1045,-0.5365,-8.7754,-4.2919,-0.6261,4.2435,-0.9739
1050,-0.6514,-8.737,-4.4068,-0.6261,4.1043,-0.9739
1055,-0.6131,-8.8137,-4.2919,-0.7652,4.1739,-0.8348
1060,-0.7281,-8.7754,-4.2152,-0.8348,4.313,-0.8348
1065,-0.7281,-8.7754,-4.1769,-0.9043,4.313,-0.8348
1070,-0.6898,-8.8903,-4.3685,-1.1826,4.1739,-0.9043
1075,-0.6898,-8.8903,-4.2919,-1.3217,4.2435,-1.0435
1080,-0.5748,-8.9286,-4.2919,-1.3913,4.1739,-0.9043
1085,-0.6898,-8.8903,-4.2536,-1.4609,4.1739,-0.8348
1090,-0.6131,-8.9286,-4.2152,-1.5304,4.2435,-0.9043
1095,-0.6131,-8.9286,-4.3685,-1.6,4.1043,-0.9043
1100,-0.6514,-8.967,-4.2919,-1.5304,4.0348,-0.6957
1105,-0.6898,-9.0053,-4.3302,-1.4609,4.0348,-0.6957
1110,-0.6514,-9.0819,-4.2152,-1.2522,3.9652,-0.6957
1115,-0.6131,-8.967,-4.2536,-1.113,3.9652,-0.487
1120,-0.6131,-9.0819,-4.2919,-0.7652,3.9652,-0.5565
1125,-0.6131,-8.9286,-4.2536,-0.5565,3.8957,-0.487
1130,-0.5365,-8.9286,-4.3685,-0.2783,3.8957,-0.4174
1135,-0.5365,-9.0436,-4.2152,-0.2087,3.9652,-0.487
1140,-0.5748,-8.852,-4.3302,-0.0696,3.8261,-0.487
1145,-0.5365,-9.0436,-4.3302,0.0,3.8957,-0.4174
1150,-0.5748,-8.8903,-4.2152,0.1391,3.7565,-0.4174
1155,-0.5365,-8.8903,-4.2919,0.1391,3.687,-0.487
1160,-0.4598,-8.8903,-4.2919,0.2783,3.687,-0.5565
1165,-0.5748,-8.967,-4.3685,0.3478,3.687,-0.7652
1170,-0.6514,-8.7754,-4.2919,0.3478,3.687,-0.6261
1175,-0.6514,-8.7754,-4.2536,0.4174,3.6174,-0.6261
1180,-0.5365,-8.9286,-4.1003,0.3478,3.6174,-0.5565
1185,-0.6131,-8.9286,-4.1769,0.2087,3.687,-0.6957
1190,-0.5365,-8.852,-4.3302,0.0696,3.7565,-0.6261
1195,-0.6131,-8.852,-4.3302,0.0696,3.8957,-0.487
1200,-0.6131,-8.7754,-4.2152,0.0,3.8957,-0.5565
1205,-0.6131,-8.8903,-4.062,-0.1391,4.0348,-0.5565
1210,-0.5748,-8.967,-4.4452,-0.2087,4.1043,-0.5565
1215,-0.5748,-8.852,-4.2536,-0.3478,4.2435,-0.6261
1220,-0.5748,-8.9286,-4.2536,-0.4174,4.313,-0.487
1225,-0.5365,-8.8903,-4.3302,-0.487,4.5217,-0.4174
1230,-0.4215,-8.8903,-4.1386,-0.5565,4.7304,-0.5565
1235,-0.4215,-8.967,-4.2152,-0.6957,4.8696,-0.4174
1240,-0.4982,-8.8903,-4.2919,-0.7652,5.0087,-0.487
1245,-0.5748,-8.8903,-4.2919,-0.8348,5.2174,-0.487
1250,-0.5365,-8.852,-4.062,-0.7652,5.4261,-0.5565
1255,-0.4982,-8.852,-4.3685,-0.6957,5.5652,-0.487
1260,-0.4982,-8.852,-4.4068,-0.7652,5.6348,-0.4174
1265,-0.3449,-9.0053,-4.2152,-0.6261,5.7739,-0.487
1270,-0.5365,-8.8903,-4.2919,-0.5565,5.8435,-0.4174
1275,-0.5365,-8.8903,-4.4068,-0.4174,5.9826,-0.4174
1280,-0.3832,-8.8137,-4.4068,-0.2783,5.913,-0.5565
1285,-0.5365,-8.8137,-4.3302,-0.2783,5.9826,-0.5565
1290,-0.4215,-8.967,-4.2536,0.0,5.9826,-0.6957
1295,-0.4598,-8.852,-4.4835,0.0696,5.9826,-0.6957
1300,-0.5748,-8.8137,-4.4835,0.1391,5.913,-0.6261
1305,-0.5365,-8.8903,-4.2536,0.2783,5.7739,-0.6957
1310,-0.6514,-8.967,-4.5218,0.3478,5.7043,-0.7652
1315,-0.4598,-8.967,-4.3302,0.5565,5.7043,-0.6957
1320,-0.5365,-8.852,-4.2152,0.6957,5.6348,-0.7652
1325,-0.5748,-9.0436,-4.1769,0.8348,5.4957,-0.6957
1330,-0.6131,-9.0819,-4.3685,0.9739,5.3565,-0.6957
1335,-0.4982,-8.9286,-4.2919,1.113,5.287,-0.5565
1340,-0.6131,-8.967,-4.2919,1.2522,5.287,-0.5565
1345,-0.5748,-9.0053,-4.2536,1.2522,5.3565,-0.4174
1350,-0.5365,-8.967,-4.2152,1.3217,5.287,-0.2783
1355,-0.5365,-8.9286,-4.4068,1.3913,5.287,-0.2087
1360,-0.6131,-8.9286,-4.2919,1.5304,5.287,-0.1391
1365,-0.4982,-8.967,-4.2152,1.4609,5.287,-0.1391
1370,-0.5365,-9.0053,-4.1769,1.4609,5.287,0.0
1375,-0.5748,-9.0053,-4.1386,1.5304,5.287,0.1391
1380,-0.5365,-8.967,-4.062,1.4609,5.287,0.0696
1385,-0.3832,-9.0819,-4.2536,1.4609,5.287,0.0696
1390,-0.6131,-8.967,-4.1386,1.4609,5.287,0.1391
1395,-0.6131,-8.9286,-4.2152,1.5304,5.3565,0.2087
1400,-0.6131,-8.967,-4.1769,1.5304,5.3565,0.2087
1405,-0.7281,-8.967,-4.2152,1.6,5.3565,0.3478
1410,-0.6131,-8.967,-4.2152,1.6696,5.3565,0.2783
1415,-0.6898,-9.0053,-4.2536,1.6696,5.287,0.3478
1420,-0.8047,-8.9286,-4.2919,1.7391,5.287,0.3478
1425,-0.6898,-8.9286,-4.2919,1.8087,5.287,0.4174
1430,-0.6131,-8.967,-4.2152,1.9478,5.2174,0.4174
1435,-0.6898,-9.0053,-4.1769,2.087,5.1478,0.4174
1440,-0.6898,-9.0436,-4.1003,2.1565,5.1478,0.4174
1445,-0.6514,-9.1202,-4.1769,2.1565,5.0087,0.4174
1450,-0.6898,-8.9286,-4.2536,2.2261,4.8696,0.4174
1455,-0.6514,-8.967,-4.0236,2.2957,4.8696,0.4174
1460,-0.7664,-8.967,-4.1386,2.2957,4.7304,0.2783
1465,-0.4982,-8.9286,-4.0236,2.2957,4.6609,0.2783
1470,-0.7281,-8.8903,-4.1769,2.2261,4.6609,0.2087
1475,-0.7664,-8.9286,-4.3302,2.2261,4.5913,0.2783
1480,-0.6898,-8.967,-4.1003,2.4348,4.5913,0.2087
1485,-0.6514,-8.967,-4.1003,2.3652,4.4522,0.1391
1490,-0.5748,-8.967,-4.062,2.2261,4.313,0.0696
1495,-0.7664,-8.852,-4.2152,2.1565,4.2435,0.2087
1500,-0.6514,-8.8903,-4.1003,2.087,4.1739,0.1391
1505,-0.6131,-8.852,-4.1769,2.0174,4.2435,0.0696
1510,-0.6514,-8.967,-4.062,1.9478,4.1739,0.0696
1515,-0.6514,-8.9286,-4.1003,1.9478,4.2435,0.0
1520,-0.6514,-8.852,-4.062,1.8783,4.2435,0.0
1525,-0.6514,-9.0053,-4.1386,1.8783,4.2435,-0.0696
1530,-0.6898,-9.0053,-4.1386,1.8783,4.2435,-0.0696
1535,-0.6131,-8.8903,-4.1386,1.7391,4.2435,-0.1391
1540,-0.6131,-8.967,-4.1003,1.5304,4.2435,-0.1391
1545,-0.6131,-8.852,-3.9853,1.3913,4.2435,-0.2087
1550,-0.7281,-8.967,-4.062,1.2522,4.313,-0.2783
1555,-0.4982,-9.1202,-3.9853,1.0435,4.3826,-0.2783
1560,-0.6131,-8.9286,-4.1769,0.9043,4.4522,-0.3478
1565,-0.6514,-8.9286,-4.1386,0.8348,4.3826,-0.4174
1570,-0.6898,-9.0436,-4.1003,0.487,4.313,-0.5565
1575,-0.5748,-9.0053,-4.062,0.487,4.3826,-0.487
1580,-0.7664,-8.9286,-4.1769,0.487,4.4522,-0.5565
1585,-0.6514,-8.852,-4.1386,0.487,4.4522,-0.6261
1590,-0.6898,-8.8903,-4.062,0.6261,4.5217,-0.7652
1595,-0.6898,-8.9286,-4.1386,0.6261,4.5217,-0.6957
1600,-0.4982,-9.0436,-4.1003,0.6261,4.4522,-0.6957
1605,-0.5748,-8.9286,-4.1003,0.6261,4.5217,-0.6957
1610,-0.5748,-8.967,-4.3685,0.6957,4.5913,-0.7652
1615,-0.6131,-8.967,-4.1386,0.6261,4.5913,-0.6957
1620,-0.5365,-8.967,-4.1003,0.8348,4.7304,-0.7652
1625,-0.4598,-8.9286,-4.1003,0.9043,4.6609,-0.9043
1630,-0.4982,-9.0053,-4.1769,0.9739,4.6609,-0.9043
1635,-0.4982,-8.967,-4.2152,1.1826,4.7304,-0.9043
1640,-0.4598,-9.0436,-4.1386,1.3217,4.7304,-1.113
1645,-0.4982,-8.9286,-4.2152,1.3913,4.8,-1.113
1650,-0.5748,-8.9286,-4.2152,1.6,4.7304,-1.0435
1655,-0.5748,-8.9286,-4.1003,1.7391,4.8,-1.0435
1660,-0.5365,-8.8903,-4.3302,1.8087,4.8,-0.9739
1665,-0.4982,-9.0053,-4.062,1.8783,4.8696,-0.9739
1670,-0.5365,-9.0053,-4.2536,2.0174,4.9391,-0.7652
1675,-0.5365,-8.967,-4.1769,2.0174,4.8696,-0.6261
1680,-0.5365,-8.9286,-4.2152,2.087,4.9391,-0.487
1685,-0.4982,-9.0053,-4.062,2.2261,4.9391,-0.4174
1690,-0.6131,-8.8903,-4.0236,2.2261,5.0783,-0.2087
1695,-0.4982,-9.0436,-4.062,2.2957,5.0087,-0.1391
1700,-0.6514,-8.967,-3.9087,2.2957,5.0783,-0.0696
1705,-0.5748,-8.967,-3.9087,2.3652,5.0783,0.0696
1710,-0.5365,-8.967,-4.0236,2.3652,4.9391,0.0696
1715,-0.5748,-8.967,-4.1386,2.2957,4.9391,0.0696
1720,-0.7664,-8.852,-3.9853,2.1565,4.7304,0.0696
1725,-0.5365,-8.967,-3.8704,2.087,4.6609,0.0696
1730,-0.6131,-8.967,-4.1003,1.9478,4.6609,0.2087
1735,-0.4982,-9.0436,-4.1386,1.8783,4.5217,0.2087
1740,-0.5748,-8.8903,-4.1003,1.8783,4.4522,0.2087
1745,-0.4982,-9.0053,-4.062,1.8087,4.3826,0.2087
1750,-0.5365,-9.0053,-4.0236,1.8087,4.313,0.1391
1755,-0.5365,-8.9286,-4.0236,1.6696,4.3826,0.2783
1760,-0.4982,-8.852,-3.9853,1.5304,4.3826,0.3478
1765,-0.4982,-8.9286,-4.1386,1.4609,4.4522,0.4174
1770,-0.6131,-8.9286,-3.947,1.3217,4.5913,0.487
1775,-0.5748,-8.8903,-4.1769,1.0435,4.5217,0.5565
1780,-0.5748,-8.967,-4.1003,0.9739,4.5913,0.5565
1785,-0.6514,-9.0053,-4.1386,0.8348,4.6609,0.6261
1790,-0.4215,-9.1586,-4.1386,0.6957,4.8,0.6957
1795,-0.5748,-8.967,-4.1003,0.6261,4.8,0.6957
1800,-0.5365,-8.967,-4.1386,0.4174,5.0783,0.6957
1805,-0.6514,-8.852,-4.1769,0.2087,5.2174,0.7652
1810,-0.6131,-9.0819,-4.0236,0.1391,5.4261,0.8348
1815,-0.5748,-9.0053,-4.0236,0.2087,5.7739,0.9739
1820,-0.3832,-9.0053,-4.1386,0.2087,5.913,1.113
1825,-0.5748,-9.1202,-4.1003,0.4174,6.2609,1.3217
1830,-0.5365,-9.0436,-4.062,0.487,6.5391,1.3217
1835,-0.5748,-8.967,-4.1386,0.6957,6.8174,1.6
1840,-0.6131,-9.0819,-4.2919,0.7652,7.1652,1.6696
1845,-0.5748,-8.967,-4.1386,0.6957,7.7217,1.8783
1850,-0.6131,-9.0053,-4.1003,0.5565,8.4174,2.2957
1855,-0.6131,-8.9286,-4.2536,0.6261,9.0435,2.6435
1860,-0.6898,-8.8903,-4.2919,0.7652,9.7391,3.0609
1865,-0.4598,-8.9286,-4.3685,1.113,10.2261,3.3391
1870,-0.6514,-9.0436,-4.2919,1.6,10.5739,3.7565
1875,-0.6131,-8.9286,-4.1386,2.2261,10.9217,4.2435
1880,-0.6514,-9.1586,-4.4068,2.6435,11.2,4.6609
1885,-0.5748,-9.0819,-4.1003,2.8522,11.2,4.8
1890,-0.6131,-8.967,-4.1003,2.7826,11.2696,5.0783
1895,-0.7664,-9.2352,-4.1003,2.5739,11.4783,5.2174
1900,-0.6131,-9.0819,-3.9087,2.2957,11.4783,5.4261
1905,-0.6898,-9.1202,-3.9853,2.087,11.687,5.5652
1910,-0.6898,-9.1969,-3.7937,1.9478,11.6174,5.8435
1915,-0.5748,-9.0819,-3.832,1.8087,11.4087,6.1913
1920,-0.6514,-9.0436,-3.7554,1.6696,11.0609,6.4696
1925,-0.6898,-8.967,-3.7554,1.5304,10.5739,6.9565
1930,-0.4598,-8.967,-3.7554,1.3217,10.1565,7.4435
1935,-0.5365,-8.8903,-3.7171,0.9739,9.5304,7.7217
1940,-0.4215,-8.967,-3.7171,0.7652,8.8348,8.0696
1945,-0.4598,-8.852,-3.7937,0.487,8.0696,8.1391
1950,-0.4598,-8.9286,-3.832,0.3478,7.3739,8.2087
1955,-0.4598,-8.9286,-3.7554,0.1391,6.7478,8.1391
1960,-0.4215,-8.9286,-3.7937,0.1391,6.0522,8.0
1965,-0.4598,-8.967,-3.7554,-0.0696,5.4261,7.7217
1970,-0.4598,-8.967,-3.832,-0.2087,4.8,7.3739
1975,-0.6131,-8.967,-3.7554,-0.4174,4.2435,7.0957
1980,-0.6131,-8.9286,-3.8704,-0.8348,3.7565,6.887
1985,-0.6898,-8.8903,-3.947,-1.3217,3.3391,6.8174
1990,-0.3066,-8.7754,-3.5638,-1.9478,2.9217,6.6783
1995,-0.5365,-9.0436,-3.832,-2.5739,2.713,6.7478
2000,-0.6514,-8.967,-3.9087,-3.3391,2.5043,6.887
2005,-0.6131,-8.967,-3.947,-3.8261,2.5739,7.1652
2010,-0.6514,-8.967,-3.832,-4.3826,2.7826,7.3739
2015,-0.5365,-9.0053,-4.0236,-4.8,2.7826,7.6522
2020,-0.5365,-8.9286,-4.062,-5.1478,3.0609,7.8609
2025,-0.5748,-8.8903,-3.947,-5.287,3.3391,8.2087
2030,-0.6131,-8.852,-3.9853,-5.4957,3.8261,8.4174
2035,-0.6131,-9.0053,-4.0236,-5.7043,4.1739,8.7652
2040,-0.4982,-9.0436,-4.062,-5.7739,4.5913,8.8348
2045,-0.6514,-9.0053,-3.947,-5.8435,5.0783,9.113
2050,-0.4598,-9.1586,-4.062,-5.913,5.4957,9.2522
2055,-0.4982,-9.0053,-4.0236,-6.0522,5.7739,9.4609
2060,-0.5365,-9.0053,-4.062,-6.1217,5.913,9.6
2065,-0.4982,-9.0436,-3.947,-6.2609,6.0522,9.8087
2070,-0.5365,-9.0053,-3.9853,-6.4696,6.1217,9.9478
2075,-0.5748,-8.967,-4.1003,-6.6087,6.0522,10.1565
2080,-0.5748,-8.9286,-4.0236,-6.6783,6.0522,10.2261
2085,-0.6514,-9.1202,-4.1769,-6.8174,5.7739,10.2957
2090,-0.6898,-8.9286,-3.9853,-6.9565,5.5652,10.5739
2095,-0.7281,-8.9286,-4.062,-7.0261,5.3565,10.8522
2100,-0.6898,-9.1202,-4.4068,-7.3043,5.0783,11.0609
2105,-0.6898,-9.0053,-3.9087,-7.3739,4.8,11.3391
2110,-0.7281,-9.0819,-3.947,-7.5826,4.4522,11.6174
2115,-0.843,-8.967,-3.9087,-7.6522,4.1043,11.8957
2120,-0.8814,-8.967,-4.062,-7.7913,3.9652,12.2435
2125,-0.7281,-9.0053,-3.9853,-7.8609,3.7565,12.6609
2130,-0.8814,-9.0819,-4.0236,-8.0696,3.7565,13.1478
2135,-0.9197,-8.8137,-4.0236,-8.2783,3.687,13.4957
2140,-0.8047,-8.8137,-4.062,-8.6261,3.7565,13.9826
2145,-0.7664,-8.8903,-4.1386,-8.9739,3.687,14.4696
2150,-1.0346,-8.9286,-4.1003,-9.2522,3.7565,14.887
2155,-0.7664,-9.0053,-4.1769,-9.6,3.8957,15.2348
2160,-0.8814,-8.852,-4.2152,-10.0174,4.0348,15.7913
2165,-0.9963,-8.8137,-4.1003,-10.6435,4.1043,16.0696
2170,-0.843,-8.8903,-4.1003,-11.3391,4.313,16.487
2175,-0.8814,-8.737,-4.1769,-11.8261,4.4522,16.7652
2180,-0.9197,-8.8137,-4.1386,-12.3826,4.6609,16.9043
2185,-0.9197,-8.8903,-4.2152,-12.9391,4.9391,17.113
2190,-0.9197,-8.8903,-4.3302,-13.2174,5.0783,17.3913
2195,-0.8814,-8.9286,-4.4068,-13.4261,5.3565,17.8087
2200,-0.9197,-8.8137,-4.2152,-13.287,5.6348,18.0174
2205,-0.9197,-8.8903,-4.1769,-13.1478,5.7043,18.4348
2210,-0.7664,-8.852,-4.5218,-12.9391,5.7739,18.7826
2215,-0.8814,-8.967,-4.2919,-12.8,5.913,19.2696
2220,-0.9197,-8.9286,-4.1386,-12.4522,6.0522,19.687
2225,-0.8814,-8.967,-4.1769,-12.1043,6.2609,20.1043
2230,-0.843,-9.0053,-4.1386,-11.7565,6.1913,20.5217
2235,-0.958,-8.8903,-4.2152,-11.4783,6.1913,20.7304
2240,-0.843,-9.0053,-4.2536,-11.2,6.0522,20.8696
2245,-0.958,-8.9286,-4.1386,-11.2,5.913,21.0783
2250,-1.073,-9.0053,-4.1386,-11.1304,5.913,21.3565
2255,-1.0346,-9.0053,-4.1769,-11.2,5.913,21.4261
2260,-0.958,-9.0436,-4.0236,-11.2,5.8435,21.7739
2265,-0.958,-8.9286,-4.1386,-11.5478,5.9826,22.1217
2270,-1.1113,-8.7754,-4.1769,-11.9652,6.0522,22.3304
2275,-0.958,-8.9286,-4.2536,-12.3826,6.3304,22.4696
2280,-1.073,-8.8903,-4.3302,-12.9391,6.5391,22.6087
2285,-0.958,-9.0053,-4.3685,-13.4957,7.0261,22.8174
2290,-0.958,-8.8903,-4.2536,-13.9826,7.4435,22.7478
2295,-0.9197,-8.852,-4.2919,-14.5391,8.0,22.8174
2300,-0.9963,-8.852,-4.3685,-14.9565,8.5565,23.1652
2305,-1.0346,-8.852,-4.3302,-15.2348,9.0435,23.2348
2310,-0.9963,-8.9286,-4.2536,-15.4435,9.5304,23.2348
2315,-1.1113,-8.8903,-4.4068,-15.7217,9.8783,23.1652
2320,-1.3412,-9.1586,-4.2536,-15.7913,10.2261,22.9565
2325,-1.073,-8.852,-4.4452,-15.9304,10.5043,22.887
2330,-1.2263,-8.8137,-4.2919,-15.8609,10.713,23.1652
2335,-1.1879,-8.967,-4.2536,-15.7913,10.8522,23.513
2340,-1.3412,-8.6987,-4.5601,-15.4435,10.9913,24.0
2345,-1.2646,-8.8137,-4.4835,-15.0957,11.2696,24.2783
2350,-1.1879,-8.6987,-4.4452,-14.887,11.3391,24.6261
2355,-1.3412,-8.6987,-4.3302,-14.8174,11.3391,25.1826
2360,-1.4562,-8.6987,-4.4452,-14.6087,11.2,25.6696
2365,-1.4945,-8.737,-4.3685,-14.5391,11.2696,25.8783
2370,-1.6095,-8.737,-4.4452,-14.7478,11.1304,26.2957
2375,-1.4179,-8.737,-4.4452,-14.9565,10.9913,26.9913
2380,-1.5711,-8.6604,-4.4452,-15.0261,11.1304,27.687
2385,-1.5711,-8.6987,-4.5218,-14.9565,11.1304,28.1739
2390,-1.5328,-8.6987,-4.5218,-14.887,11.1304,28.4522
2395,-1.4562,-8.6987,-4.5601,-14.8174,11.1304,28.3826
2400,-1.5328,-8.5454,-4.5601,-14.6087,11.2,28.2435
2405,-1.3795,-8.6604,-4.5601,-14.4696,11.2696,28.2435
2410,-1.4562,-8.5838,-4.8284,-14.1913,11.4783,28.2435
2415,-1.3029,-8.8137,-4.6751,-13.8435,12.1043,28.1043
2420,-1.3412,-8.737,-4.7517,-13.4957,12.6609,28.1043
2425,-1.3029,-8.6221,-4.6751,-13.1478,13.4261,28.2435
2430,-1.3795,-8.6987,-4.79,-12.8696,14.3304,28.313
2435,-1.3029,-8.6987,-4.7134,-12.6609,15.3739,28.4522
2440,-1.4179,-8.737,-4.8284,-12.4522,16.3478,28.3826
2445,-1.3412,-8.6987,-4.8284,-12.313,17.5304,28.313
2450,-1.3795,-8.737,-4.8284,-12.1739,18.5739,28.7304
2455,-1.3412,-8.6987,-4.6751,-11.9652,19.687,29.0087
2460,-1.5328,-8.5838,-4.5218,-11.687,20.6609,29.1478
2465,-1.5711,-8.5838,-4.6751,-11.2696,21.5652,29.4957
2470,-1.6478,-8.5071,-4.6751,-10.8522,22.2609,29.7739
2475,-1.7244,-8.5838,-4.6368,-10.5739,22.7478,29.7739
2480,-1.7244,-8.5454,-4.7134,-10.4348,23.0261,29.8435
2485,-1.8394,-8.6221,-4.7134,-10.3652,23.2348,29.9826
2490,-1.8011,-8.5454,-4.79,-10.2261,23.4435,30.2609
2495,-1.8394,-8.4688,-4.6751,-10.0174,23.6522,30.6087
2500,-1.9543,-8.3921,-4.79,-9.8783,23.7217,30.887
2505,-1.8011,-8.4688,-4.79,-9.8783,23.8609,31.0261
2510,-1.8394,-8.3155,-4.79,-9.8783,23.9304,30.7478
2515,-1.8777,-8.3921,-4.8667,-10.0174,24.1391,30.4696
2520,-1.9543,-8.3155,-4.9433,-9.9478,24.2783,29.9826
2525,-1.8394,-8.2389,-4.9816,-9.8783,24.2783,29.4957
2530,-2.031,-8.1622,-4.905,-9.7391,24.5565,28.9391
2535,-1.9927,-8.0089,-4.9816,-9.6,24.9043,28.313
2540,-2.0693,-8.1239,-4.905,-9.4609,25.1826,27.6174
2545,-2.031,-8.2005,-4.9433,-9.4609,25.6696,27.2696
2550,-2.1076,-8.2772,-4.9816,-9.5304,26.1565,26.7826
2555,-1.9927,-8.1622,-5.1732,-9.5304,26.6435,26.5739
2560,-2.031,-8.3155,-5.1349,-9.4609,27.2696,26.5739
2565,-2.1459,-8.3538,-5.1349,-9.0435,27.9652,26.5043
2570,-2.0693,-8.3155,-5.2116,-8.5565,28.5217,26.5739
2575,-2.1459,-8.4688,-5.2499,-8.0696,29.0087,26.7826
2580,-2.1459,-8.3155,-5.1732,-7.513,29.4261,26.9913
2585,-2.1459,-8.2772,-5.2499,-7.0261,29.7739,27.0609
2590,-2.1459,-8.3921,-5.0966,-6.7478,29.913,26.7826
2595,-2.1076,-8.3538,-5.2882,-6.4,29.9826,26.3652
2600,-2.1843,-8.4305,-5.4032,-5.913,30.1217,25.4609
2605,-2.2609,-8.5071,-5.2116,-5.287,30.4,24.3478
2610,-2.2609,-8.4305,-5.4032,-4.4522,30.6783,23.0957
2615,-2.2226,-8.4688,-5.4032,-3.687,30.7478,21.913
2620,-2.2609,-8.4305,-5.5564,-2.713,30.6783,20.8
2625,-2.3759,-8.5071,-5.5181,-1.8087,30.4,19.687
2630,-2.2226,-8.5071,-5.5181,-0.6957,29.7739,18.4348
2635,-2.1459,-8.5071,-5.4798,0.6957,29.1478,17.3913
2640,-2.3759,-8.5071,-5.5181,2.3652,28.6609,16.6261
2645,-2.6058,-8.4305,-5.3265,4.1739,28.313,16.0696
2650,-2.4142,-8.3921,-5.4415,5.7739,27.9652,15.6522
2655,-2.4908,-8.2389,-5.5564,7.0261,27.687,15.513
2660,-2.5675,-8.1239,-5.3648,7.6522,27.4087,15.7217
2665,-2.6058,-8.1622,-5.2499,7.7913,27.0609,15.9304
2670,-2.7207,-8.0089,-5.2499,7.513,26.7826,16.2087
2675,-2.6441,-7.9706,-5.1349,7.0261,26.5739,16.6957
2680,-2.7974,-8.0089,-4.79,6.1913,26.2261,17.113
2685,-2.8357,-7.9706,-4.79,5.0783,26.087,17.4609
2690,-2.9123,-7.779,-4.6368,3.9652,25.7391,17.5304
2695,-2.9507,-7.9706,-4.6751,3.1304,25.5304,17.6
2700,-2.874,-8.0089,-4.5601,2.5739,25.113,17.5304
2705,-2.874,-7.894,-4.7134,2.087,24.9043,17.2522
2710,-2.8357,-7.8557,-4.7517,1.9478,24.3478,16.7652
2715,-2.7974,-7.779,-4.6368,1.8087,23.8609,16.2087
2720,-2.7974,-7.6641,-4.79,1.6696,23.3739,15.2348
2725,-2.9123,-7.3958,-4.79,1.4609,22.887,13.8435
2730,-2.989,-7.2425,-4.905,1.1826,22.1913,12.2435
2735,-3.0273,-7.1276,-5.0583,0.5565,21.6348,10.713
2740,-3.1039,-7.0509,-5.02,-0.2783,20.8696,9.1826
2745,-3.1039,-6.9743,-5.02,-1.4609,20.5217,7.5826
2750,-3.2955,-6.936,-4.8284,-2.9913,20.313,5.6348
2755,-3.4105,-7.0126,-4.79,-4.3826,20.313,3.687
2760,-3.4105,-6.8977,-4.79,-5.7043,20.5217,1.2522
2765,-3.6021,-6.8593,-4.7517,-7.2348,20.5913,-1.113
2770,-3.6021,-6.7061,-4.79,-9.1826,20.6609,-3.5478
2775,-3.6404,-6.6294,-4.5218,-11.6174,20.3826,-5.8435
2780,-3.832,-6.5911,-4.6751,-14.7478,19.8261,-8.1391
2785,-3.7937,-6.5911,-4.6368,-18.1565,18.9217,-10.3652
2790,-3.947,-6.7061,-4.7134,-21.913,17.6696,-12.5217
2795,-4.1003,-6.6677,-4.6368,-25.9478,16.2783,-14.6783
2800,-4.2919,-6.7827,-4.5984,-30.0522,14.5391,-16.6261
2805,-4.3302,-6.8977,-4.6751,-33.8783,12.5913,-18.2261
2810,-4.5601,-7.0126,-4.79,-37.5652,10.9217,-19.6174
2815,-4.4452,-7.0509,-4.79,-40.7652,9.5304,-20.6609
2820,-4.5601,-6.9743,-4.8284,-43.7565,8.6957,-21.4957
2825,-4.4452,-7.0893,-4.9816,-46.6783,8.487,-21.8435
2830,-4.3685,-7.0893,-4.905,-49.3913,8.9043,-22.1217
2835,-4.2536,-7.1659,-4.9433,-52.0348,9.6696,-22.1913
2840,-4.1386,-7.1276,-5.1349,-54.4696,10.4348,-22.0522
2845,-3.9853,-7.0893,-5.02,-56.6957,11.4087,-21.913
2850,-3.7171,-7.0126,-5.0583,-58.9217,12.3826,-21.8435
2855,-3.6404,-7.0893,-5.0583,-60.9391,13.3565,-21.6348
2860,-3.4105,-7.0893,-5.3265,-63.0261,14.6783,-21.4957
2865,-3.1806,-7.1276,-5.1732,-65.2522,16.0696,-21.287
2870,-3.0273,-7.1276,-5.02,-67.4087,17.4609,-21.2174
2875,-2.8357,-7.1659,-5.0583,-69.7739,18.6435,-21.1478
2880,-2.7591,-7.0893,-5.0583,-72.6261,19.5478,-21.1478
2885,-2.6441,-7.0509,-4.9433,-76.0348,20.2435,-21.1478
2890,-2.6058,-6.8977,-4.905,-79.8609,20.5217,-21.2174
2895,-2.4908,-6.936,-5.0966,-84.1739,20.3826,-21.4261
2900,-2.5675,-6.7827,-5.1732,-88.8348,20.0348,-21.8435
2905,-2.5291,-6.7827,-5.2882,-93.8435,19.687,-22.4
2910,-2.3759,-6.821,-5.2882,-98.8522,19.2,-23.0957
2915,-2.4142,-6.936,-5.3648,-103.513,18.6435,-23.7217
2920,-2.6824,-6.821,-5.5948,-107.4783,18.2261,-24.2783
2925,-2.989,-6.6294,-5.748,-110.7478,18.2261,-24.6261
2930,-2.4908,-6.6294,-6.0546,-112.9739,18.6435,-24.9043
2935,-2.5675,-6.5528,-6.3229,-114.2957,19.1304,-25.1826
2940,-2.6058,-6.3995,-6.7444,-115.2,19.8957,-25.3217
2945,-2.3759,-6.2845,-6.3995,-115.8261,21.0087,-25.6
2950,-2.5291,-6.6677,-6.821,-116.2435,22.1217,-25.8783
2955,-2.5291,-6.7061,-6.1313,-116.8,23.3739,-26.0174
2960,-2.874,-6.6677,-6.7444,-117.7739,24.6957,-26.1565
2965,-2.7207,-6.4761,-6.936,-118.7478,25.8783,-26.1565
2970,-2.6058,-6.3229,-6.8977,-119.513,27.1304,-26.2261
2975,-2.4525,-6.0163,-6.936,-120.2783,28.0348,-26.1565
2980,-2.2609,-5.978,-7.0126,-120.6957,28.7304,-26.2261
2985,-2.0693,-5.9396,-6.936,-120.6261,29.287,-26.9217
2990,-1.6095,-6.2845,-7.1659,-120.6261,29.287,-27.7565
2995,-1.7627,-5.7864,-7.0509,-120.6261,29.287,-29.0087
