timestamp,accX,accY,accZ,gyroX,gyroY,gyroZ
0,-9.7334,-0.4598,1.073,7.0957,0.2087,1.0435
5,-9.81,-0.4215,1.1113,6.2609,0.0696,0.6957
10,-9.81,-0.4598,1.1113,5.287,-0.0696,0.4174
15,-9.81,-0.5748,1.0346,4.313,0.0696,0.2783
20,-9.81,-0.5748,0.9963,3.5478,0.0,0.0696
25,-9.925,-0.6131,0.958,2.713,0.3478,-0.1391
30,-9.9633,-0.6131,1.073,2.087,0.5565,-0.4174
35,-9.9633,-0.6898,0.958,1.4609,0.9043,-0.5565
40,-9.925,-0.7281,0.843,0.9043,1.2522,-0.6261
45,-9.925,-0.7281,0.9963,0.6261,1.4609,-0.8348
50,-9.8866,-0.7664,1.073,0.2783,1.7391,-0.9043
55,-9.925,-0.6898,0.9963,0.1391,1.8783,-0.9043
60,-9.7717,-0.6131,0.9197,0.0,1.9478,-0.9043
65,-9.8866,-0.843,0.958,-0.2087,1.7391,-0.9043
70,-9.81,-0.7664,1.0346,-0.2783,1.6,-0.9043
75,-9.8483,-0.7664,1.2646,-0.5565,1.5304,-0.6957
80,-9.7334,-0.843,1.3029,-0.8348,1.3217,-0.6261
85,-9.7717,-0.8047,1.2263,-0.9043,1.1826,-0.6261
90,-9.81,-0.8814,1.2263,-1.1826,1.0435,-0.6261
95,-9.8483,-0.6898,1.3029,-1.3217,1.113,-0.6261
100,-9.925,-0.7664,1.1879,-1.3217,1.2522,-0.6957
105,-9.8866,-0.7281,1.073,-1.3913,1.4609,-0.6957
110,-9.8866,-0.7664,1.1113,-1.4609,1.6,-0.7652
115,-9.925,-0.8047,1.1879,-1.7391,1.9478,-0.9043
120,-9.925,-0.6514,0.9963,-1.8783,2.1565,-0.9043
125,-10.0016,-0.8047,0.9197,-2.087,2.5043,-0.9043
130,-9.925,-0.6514,0.9963,-2.4348,2.7826,-1.113
135,-9.9633,-0.7664,0.958,-2.7826,3.1304,-1.113
140,-10.0782,-0.7281,1.0346,-2.9217,3.3391,-1.1826
145,-9.8866,-0.7281,1.1113,-3.2,3.4783,-1.3217
150,-9.7717,-0.7664,1.0346,-3.2696,3.5478,-1.3913
155,-9.81,-0.7281,0.9197,-3.1304,3.6174,-1.4609
160,-9.81,-0.7664,1.0346,-3.1304,3.687,-1.5304
165,-9.8483,-0.7664,1.073,-3.1304,3.687,-1.7391
170,-9.81,-0.7664,1.1113,-3.1304,3.7565,-1.6
175,-9.6567,-0.7664,1.1496,-3.0609,3.8261,-1.6696
180,-9.6567,-1.0346,1.3412,-2.9913,3.8957,-1.5304
185,-9.7334,-0.7281,0.9963,-2.9913,3.9652,-1.3913
190,-9.7334,-0.8814,1.1113,-2.9913,4.2435,-1.2522
195,-9.7334,-0.8047,0.958,-3.1304,4.4522,-1.2522
200,-9.7717,-0.843,1.2263,-3.3391,4.5913,-1.113
205,-9.7334,-0.8814,1.1113,-3.6174,4.8696,-1.0435
210,-9.695,-0.9197,1.2263,-3.8261,5.2174,-0.9739
215,-9.81,-0.843,1.2646,-4.1739,5.6348,-0.6957
220,-9.695,-0.958,1.2646,-4.5217,5.9826,-0.6261
225,-9.7334,-1.0346,1.1879,-4.8,6.2609,-0.2783
230,-9.81,-0.843,1.073,-4.8696,6.6783,-0.2087
235,-9.7334,-0.9963,1.2263,-4.8,7.0261,0.0
240,-9.7717,-1.0346,1.2646,-4.6609,7.4435,0.2087
245,-9.81,-1.073,1.073,-4.5913,7.7217,0.2783
250,-9.7717,-0.843,1.1496,-4.5217,8.0696,0.6957
255,-9.7717,-0.8814,1.1496,-4.5913,8.4174,0.8348
260,-9.81,-0.9197,1.2263,-4.6609,8.6261,1.0435
265,-9.81,-0.8047,1.0346,-4.6609,8.7652,1.3217
270,-9.7717,-0.6898,0.9963,-4.6609,8.9043,1.4609
275,-9.7334,-0.8814,1.0346,-4.7304,8.9739,1.6
280,-9.7717,-0.843,0.9963,-4.6609,9.0435,1.6696
285,-9.7717,-0.7281,0.958,-4.5913,8.9739,1.6
290,-9.7717,-0.843,1.0346,-4.5913,8.8348,1.6
295,-9.7334,-0.8047,0.9197,-4.4522,8.6261,1.5304
300,-9.7334,-0.843,1.1113,-4.2435,8.487,1.4609
305,-9.7334,-0.7664,0.9963,-4.0348,8.3478,1.5304
310,-9.7334,-0.843,1.0346,-3.8957,8.2087,1.3913
315,-9.7717,-0.843,0.958,-3.8261,8.0,1.2522
320,-9.81,-0.958,1.0346,-3.8261,7.7913,1.2522
325,-9.81,-0.8814,1.0346,-3.8957,7.9304,1.1826
330,-9.8866,-0.8814,0.9197,-4.0348,7.9304,1.3217
335,-9.925,-0.8814,0.958,-4.1739,8.1391,1.3913
340,-9.8483,-0.8814,0.958,-4.313,8.4174,1.3913
345,-9.81,-0.843,0.843,-4.5913,8.6957,1.4609
350,-10.0016,-0.958,0.7664,-4.5913,8.7652,1.5304
355,-9.8866,-0.8047,0.9197,-4.6609,8.8348,1.4609
360,-9.9633,-0.843,0.958,-4.8,8.8348,1.3913
365,-9.8866,-0.8814,0.8814,-4.7304,8.5565,1.1826
370,-9.925,-0.8047,0.843,-4.7304,8.2087,1.1826
375,-9.8866,-0.8047,0.8814,-4.5913,7.8609,1.113
380,-9.8483,-0.8047,0.8047,-4.4522,7.4435,1.0435
385,-9.81,-0.8047,0.8814,-4.313,7.1652,0.9043
390,-9.81,-0.9197,0.8047,-4.0348,6.8174,0.8348
395,-9.81,-0.7664,0.9197,-3.9652,6.6087,0.8348
400,-9.7717,-0.6131,0.7281,-3.8261,6.3304,0.6957
405,-9.81,-0.9197,0.9197,-3.7565,6.0522,0.487
410,-9.81,-0.7664,0.8814,-3.8261,5.913,0.4174
415,-9.81,-0.8047,0.958,-4.0348,5.7739,0.2783
420,-9.81,-0.843,0.8814,-4.0348,5.8435,0.2087
425,-9.8483,-0.7281,0.843,-4.1739,5.7739,0.1391
430,-9.81,-0.7664,0.8814,-4.313,5.7043,0.0696
435,-9.8483,-0.843,0.843,-4.313,5.4957,-0.0696
440,-9.81,-0.7664,0.843,-4.4522,5.3565,-0.1391
445,-9.81,-0.8047,0.8814,-4.4522,5.3565,0.0
450,-9.7334,-0.843,0.9963,-4.5217,5.287,-0.2087
455,-9.81,-0.7281,0.9197,-4.5913,5.3565,-0.2783
460,-9.81,-0.8047,1.0346,-4.5913,5.287,-0.4174
465,-9.8483,-0.958,1.073,-4.6609,5.4261,-0.3478
470,-9.8483,-0.958,0.8814,-4.8,5.6348,-0.2087
475,-9.9633,-0.7664,1.073,-4.8696,5.913,-0.0696
480,-9.9633,-0.843,1.0346,-4.8696,6.3304,0.0696
485,-9.8866,-0.7664,0.958,-4.9391,6.7478,0.1391
490,-9.81,-0.7664,0.843,-4.9391,7.0957,0.2783
495,-9.8483,-0.7664,0.8047,-4.9391,7.5826,0.487
500,-9.8483,-0.8814,0.8814,-4.8696,7.8609,0.6261
505,-9.8483,-0.9963,0.843,-4.8696,8.1391,0.6957
510,-9.7717,-0.9963,0.7281,-4.5913,8.1391,0.7652
515,-9.81,-0.7664,0.843,-4.313,8.2783,0.8348
520,-9.81,-0.7664,0.8047,-4.1043,8.2087,0.7652
525,-9.7334,-0.7664,0.843,-3.8261,8.0696,0.6957
530,-9.81,-0.8814,0.9197,-3.6174,8.0696,0.6261
535,-9.8483,-0.8047,1.0346,-3.4783,7.8609,0.487
540,-9.8483,-0.8047,0.8814,-3.3391,7.7913,0.4174
545,-9.7717,-0.7664,0.8814,-3.3391,7.513,0.2783
550,-9.6184,-0.8047,0.8047,-3.4087,7.3739,0.3478
555,-9.7334,-0.8814,0.9197,-3.4783,7.3739,0.3478
560,-9.7334,-0.6898,0.9963,-3.5478,7.3043,0.3478
565,-9.8483,-0.8047,0.8814,-3.687,7.3043,0.3478
570,-9.7334,-0.6514,0.958,-3.6174,7.1652,0.487
575,-9.7717,-0.843,0.958,-3.687,6.9565,0.487
580,-9.7717,-0.7281,0.8047,-3.6174,6.887,0.3478
585,-9.81,-0.6898,0.8814,-3.5478,6.6783,0.3478
590,-9.8483,-0.7664,0.7664,-3.4087,6.3304,0.3478
595,-9.81,-0.7281,0.9197,-3.1304,6.1217,0.2783
600,-9.7717,-0.6898,0.7281,-2.7826,5.913,0.2783
605,-9.81,-0.8047,0.8814,-2.713,5.7043,0.2783
610,-9.81,-0.8814,0.958,-2.713,5.7043,0.1391
615,-9.81,-0.5748,0.9197,-2.7826,5.6348,0.2087
620,-9.8483,-0.7664,0.9197,-2.9217,5.5652,0.0696
625,-9.8483,-0.7281,0.843,-3.1304,5.7043,0.0
630,-9.8866,-0.8047,0.8814,-3.4087,5.7043,0.0
635,-9.7717,-0.8047,0.9197,-3.7565,5.913,0.0
640,-9.7717,-0.9197,0.958,-4.0348,6.1217,-0.0696
645,-9.8866,-0.843,0.843,-4.313,6.3304,-0.0696
650,-9.8866,-0.8047,0.9197,-4.3826,6.5391,-0.0696
655,-9.8483,-0.6898,0.7664,-4.5217,6.7478,0.0
660,-9.8483,-0.8047,0.8047,-4.4522,6.9565,0.0696
665,-9.8483,-0.8047,0.8047,-4.2435,7.0261,0.1391
670,-9.7717,-0.9197,0.8814,-4.0348,7.0957,0.0696
675,-9.81,-0.7281,0.8047,-3.8261,7.0261,0.2087
680,-9.7717,-0.7664,0.7664,-3.687,6.9565,0.0696
685,-9.7717,-0.7281,0.7281,-3.687,6.7478,0.1391
690,-9.81,-0.843,0.8814,-3.7565,6.6087,0.1391
695,-9.81,-0.7664,0.8047,-3.8957,6.6087,0.2087
700,-9.8483,-0.7664,0.8047,-4.0348,6.4696,0.0696
705,-9.7717,-0.843,0.958,-4.313,6.2609,0.0
710,-9.7717,-0.8814,0.7281,-4.313,6.1913,0.0696
715,-9.695,-0.843,0.8047,-4.4522,6.0522,0.0696
720,-9.81,-0.9963,0.7664,-4.4522,5.913,0.2087
725,-9.81,-0.843,0.6514,-4.313,5.8435,0.0696
730,-9.7717,-0.7281,0.843,-4.2435,5.7043,0.2087
735,-9.8866,-0.8047,0.8047,-4.0348,5.4261,0.2087
740,-9.8866,-0.7664,0.843,-4.0348,5.1478,0.2087
745,-9.7334,-0.8047,0.8814,-3.9652,5.0087,0.0
750,-9.8866,-0.843,0.8814,-4.1043,4.5913,-0.1391
755,-9.8483,-0.958,0.7281,-4.0348,4.313,-0.2087
760,-9.8483,-0.8047,0.843,-4.1739,4.1739,-0.3478
765,-9.81,-0.7664,0.9963,-4.1739,4.0348,-0.5565
770,-9.81,-0.7664,0.958,-4.1739,3.8957,-0.5565
775,-9.8866,-0.9963,0.8047,-4.1043,4.0348,-0.5565
780,-9.8483,-0.8814,0.7664,-3.9652,4.2435,-0.487
785,-9.8483,-0.8814,0.843,-4.0348,4.5217,-0.3478
790,-9.81,-0.958,0.843,-3.9652,4.7304,-0.1391
795,-9.81,-0.8047,0.9963,-3.9652,5.2174,-0.0696
800,-9.81,-0.9197,0.843,-3.9652,5.5652,0.2783
805,-9.8483,-0.7281,0.8047,-4.1043,5.9826,0.4174
810,-9.81,-0.9197,0.8814,-4.1739,6.1913,0.8348
815,-9.7717,-0.9963,0.843,-4.2435,6.4696,0.9739
820,-9.8483,-0.7281,0.6131,-4.2435,6.887,1.2522
825,-9.81,-0.8814,0.7664,-4.2435,7.0957,1.3217
830,-9.3502,-0.8047,0.8047,-4.2435,7.3043,1.4609
835,-9.8483,-0.8047,0.7664,-4.0348,7.4435,1.4609
840,-9.8483,-0.7664,0.7281,-3.687,7.5826,1.3913
845,-9.81,-0.7664,0.7664,-3.2,7.513,1.2522
850,-9.8483,-0.8814,0.5748,-2.6435,7.4435,1.113
855,-9.8866,-0.843,0.6514,-2.1565,7.2348,1.0435
860,-9.81,-0.8047,0.6131,-1.6696,7.0261,0.9043
865,-9.7334,-0.843,0.9197,-1.1826,6.6783,0.9739
870,-9.81,-0.7664,0.843,-0.8348,6.4696,0.9043
875,-9.81,-0.8814,0.7664,-0.6957,6.3304,0.9043
880,-9.7334,-0.7281,0.6514,-0.6261,6.1217,0.7652
885,-9.81,-0.8047,0.7664,-0.6957,5.913,0.7652
890,-9.8483,-0.6131,0.6514,-0.7652,5.7739,0.6261
895,-9.925,-0.6514,0.6514,-0.9043,5.7739,0.5565
900,-9.81,-0.843,0.6898,-0.9043,5.4957,0.4174
905,-9.8483,-0.7281,0.6131,-1.0435,5.3565,0.2783
910,-9.7717,-0.7281,0.843,-1.113,5.2174,0.2087
915,-9.8866,-0.7281,0.7664,-1.0435,5.1478,0.2087
920,-9.7717,-0.8047,0.7281,-0.9739,5.0087,0.2087
925,-9.81,-0.8047,0.6898,-1.0435,4.9391,0.0696
930,-9.81,-0.8814,0.7664,-0.9043,4.8696,-0.0696
935,-9.7334,-0.843,0.5748,-0.9739,4.9391,-0.0696
940,-9.81,-0.9197,0.7664,-0.8348,4.8696,-0.0696
945,-9.7717,-0.8047,0.6898,-0.6261,5.0087,-0.1391
950,-9.81,-0.843,0.8814,-0.487,4.8696,-0.2087
955,-9.7717,-0.7281,0.8047,-0.2087,4.7304,-0.2783
960,-9.7717,-0.7664,0.843,-0.0696,4.4522,-0.3478
965,-9.7334,-0.7664,0.5748,0.2087,4.2435,-0.3478
970,-9.7717,-0.843,0.6898,0.3478,4.0348,-0.4174
975,-9.7717,-0.843,0.8047,0.487,3.8957,-0.487
980,-9.7717,-0.8047,0.8047,0.5565,3.687,-0.5565
985,-9.6567,-0.843,0.843,0.487,3.6174,-0.487
990,-9.7717,-0.8047,0.8047,0.4174,3.6174,-0.6261
995,-9.7717,-0.8047,0.6514,0.4174,3.687,-0.9043
1000,-9.81,-0.8814,0.9197,0.3478,3.6174,-0.9739
1005,-9.8483,-0.7664,0.7664,0.487,3.4783,-0.9043
1010,-9.925,-0.7664,0.8047,0.3478,3.3391,-0.9739
1015,-9.7717,-0.843,0.7664,0.3478,3.3391,-0.9739
1020,-9.925,-0.8814,0.7664,0.4174,3.2,-0.9739
1025,-9.81,-0.8047,0.7281,0.4174,3.1304,-1.113
1030,-9.7717,-0.8814,0.8047,0.3478,3.0609,-1.113
1035,-9.81,-0.8047,0.8814,0.3478,3.1304,-1.113
1040,-9.8483,-0.7281,0.7664,0.3478,3.1304,-1.2522
1045,-9.7334,-0.7664,0.8047,0.2087,3.1304,-1.1826
1050,-9.81,-0.8047,0.6514,0.2783,3.1304,-1.1826
1055,-9.81,-0.6514,0.9197,0.3478,2.9913,-1.113
1060,-9.8866,-0.8047,0.7664,0.2783,2.9913,-1.113
1065,-9.8483,-0.6898,0.7281,0.4174,2.9913,-1.0435
1070,-9.7717,-0.7664,0.8814,0.2783,2.9913,-0.9043
1075,-9.9633,-0.7664,0.843,0.1391,3.0609,-0.8348
1080,-9.8483,-0.843,0.7664,0.1391,3.0609,-0.6957
1085,-9.695,-0.7664,0.7281,0.1391,3.2,-0.6957
1090,-9.8866,-0.8047,0.7281,0.0,3.3391,-0.6957
1095,-9.81,-0.7281,0.7664,-0.0696,3.4087,-0.5565
1100,-9.7717,-0.8047,0.8814,0.0,3.6174,-0.6261
1105,-9.8483,-0.8047,0.8047,0.0696,3.6174,-0.5565
1110,-9.81,-0.8814,0.958,0.2087,3.6174,-0.487
1115,-9.81,-0.843,0.958,0.2783,3.5478,-0.3478
1120,-9.7334,-0.8814,0.9197,0.4174,3.6174,-0.2783
1125,-9.81,-0.843,0.8814,0.487,3.4783,-0.2783
1130,-9.81,-0.8047,0.958,0.487,3.4783,-0.3478
1135,-9.81,-0.7281,0.9963,0.5565,3.4783,-0.3478
1140,-9.81,-0.8814,0.9197,0.487,3.2696,-0.3478
1145,-9.7717,-0.843,1.1113,0.1391,3.2,-0.4174
1150,-9.8483,-0.8047,0.8814,0.0,3.2,-0.5565
1155,-9.81,-0.843,0.843,-0.2783,3.2,-0.487
1160,-9.81,-0.7664,0.958,-0.5565,3.4783,-0.6261
1165,-9.8866,-0.843,0.958,-0.6957,3.6174,-0.5565
1170,-9.8483,-0.8047,0.843,-0.8348,3.8261,-0.5565
1175,-9.9633,-0.8047,0.8047,-0.9043,3.9652,-0.5565
1180,-9.8866,-0.7664,0.7664,-0.9739,4.2435,-0.487
1185,-9.9633,-0.8814,0.8047,-0.6957,4.4522,-0.487
1190,-9.81,-0.8814,0.8047,-0.6261,4.8,-0.4174
1195,-9.81,-0.8047,0.9197,-0.487,4.8696,-0.4174
1200,-9.925,-0.7281,0.8814,-0.2783,4.9391,-0.3478
1205,-9.8866,-0.8047,0.843,-0.2087,5.0087,-0.2087
1210,-9.81,-0.7664,0.843,-0.1391,5.0783,-0.1391
1215,-9.81,-0.8047,0.7281,-0.3478,5.0087,-0.0696
1220,-9.81,-0.7664,0.958,-0.3478,5.1478,0.0
1225,-9.8866,-0.6514,0.8814,-0.487,5.1478,0.1391
1230,-9.81,-0.7281,0.843,-0.6261,5.287,0.1391
1235,-9.7334,-0.7281,0.8814,-0.7652,5.4261,0.2783
1240,-9.8483,-0.6898,0.8814,-0.7652,5.4261,0.2087
1245,-9.81,-0.6514,0.8814,-0.8348,5.5652,0.2783
1250,-9.81,-0.843,0.9197,-0.8348,5.4957,0.2783
1255,-9.8483,-0.843,0.9197,-0.9739,5.5652,0.2087
1260,-9.81,-0.843,0.8047,-0.9043,5.4261,0.2783
1265,-9.81,-0.8814,0.9197,-0.9739,5.2174,0.2087
1270,-9.81,-0.7664,0.8047,-1.113,5.0783,0.0696
1275,-9.81,-0.6898,1.0346,-1.113,5.0087,0.1391
1280,-9.8866,-0.7664,0.7281,-1.2522,5.0087,0.0
1285,-9.81,-0.7281,0.8814,-1.2522,4.8,-0.0696
1290,-9.8483,-0.8047,0.958,-1.2522,4.8696,-0.0696
1295,-9.7334,-0.8814,1.0346,-1.2522,4.7304,-0.2087
1300,-9.8483,-0.8047,0.843,-1.2522,4.9391,-0.2087
1305,-9.8483,-0.8047,0.9197,-1.113,4.9391,-0.3478
1310,-9.81,-0.843,0.843,-0.9739,4.9391,-0.3478
1315,-9.925,-0.8047,0.6898,-0.7652,5.0087,-0.2783
1320,-9.81,-0.843,0.8814,-0.6261,5.0783,-0.3478
1325,-9.81,-0.8047,0.843,-0.487,5.1478,-0.2087
1330,-9.81,-0.843,0.843,-0.4174,5.0087,-0.2087
1335,-9.8483,-0.843,0.7281,-0.487,5.0087,-0.2087
1340,-9.81,-0.7281,0.8047,-0.5565,4.8696,-0.2783
1345,-9.81,-0.7664,0.7281,-0.6261,4.7304,-0.2087
1350,-9.7717,-0.7281,0.843,-0.6957,4.7304,-0.1391
1355,-9.81,-0.7664,0.7664,-0.7652,4.7304,-0.0696
1360,-9.8483,-0.7664,0.8814,-0.8348,4.6609,0.0
1365,-9.5034,-0.8814,0.6514,-0.9043,4.6609,-0.0696
1370,-9.7717,-0.8814,0.8047,-1.113,4.6609,0.0
1375,-9.8483,-0.7664,0.843,-1.113,4.5913,-0.0696
1380,-9.8483,-0.7281,0.8047,-1.3217,4.5217,-0.0696
1385,-9.7717,-0.7664,0.6514,-1.5304,4.5913,0.0
1390,-9.81,-0.6898,0.7664,-1.7391,4.3826,0.0
1395,-9.8483,-0.7281,1.0346,-1.9478,4.2435,0.0
1400,-9.8483,-0.8047,0.9963,-2.0174,4.1043,0.0
1405,-9.7717,-0.843,0.9197,-2.2261,3.9652,0.0
1410,-9.7717,-0.7281,0.9197,-2.2261,3.7565,-0.1391
1415,-9.7334,-0.8047,0.8047,-2.2957,3.687,-0.2087
1420,-9.8483,-0.7664,0.8814,-2.3652,3.6174,-0.2783
1425,-9.8483,-0.7281,0.8814,-2.4348,3.4783,-0.3478
1430,-9.8483,-0.7281,0.9197,-2.4348,3.4783,-0.4174
1435,-9.81,-0.8047,0.8814,-2.5739,3.6174,-0.487
1440,-9.81,-0.8814,0.8814,-2.4348,3.6174,-0.5565
1445,-9.8483,-0.8047,0.8047,-2.4348,3.687,-0.487
1450,-9.8866,-0.7664,0.7281,-2.4348,3.7565,-0.487
1455,-9.8483,-0.8814,0.7664,-2.5043,3.8261,-0.5565
1460,-9.81,-0.8047,0.9197,-2.5043,4.1043,-0.487
1465,-9.81,-0.9197,0.843,-2.5739,4.2435,-0.4174
1470,-9.8866,-0.7281,0.843,-2.4348,4.4522,-0.3478
1475,-9.8866,-0.6514,0.843,-2.2957,4.7304,-0.2087
1480,-9.8866,-0.843,0.843,-2.2261,4.8696,-0.1391
1485,-9.8866,-0.8047,0.8047,-2.087,5.0783,-0.2087
1490,-9.81,-0.8814,0.7664,-1.8783,5.1478,-0.2087
1495,-9.8483,-0.8814,0.7664,-1.8783,5.3565,-0.1391
1500,-9.8866,-0.9197,0.843,-1.7391,5.3565,-0.0696
1505,-9.8483,-0.843,0.843,-1.8087,5.4957,-0.0696
1510,-9.81,-0.843,0.7281,-1.8087,5.4957,0.0696
1515,-9.8483,-0.843,0.8047,-1.7391,5.5652,0.1391
1520,-9.81,-0.7281,0.7281,-1.8087,5.6348,0.1391
1525,-9.81,-0.7281,0.7664,-1.7391,5.6348,0.2087
1530,-9.81,-0.843,0.9197,-1.8087,5.4261,0.1391
1535,-9.8866,-0.8814,0.8814,-1.8087,5.5652,0.0696
1540,-9.81,-0.7664,0.8814,-1.8087,5.3565,0.0696
1545,-9.695,-0.8814,0.843,-1.9478,5.3565,0.0696
1550,-9.81,-0.7664,1.0346,-2.0174,5.1478,0.0696
1555,-9.7334,-0.9197,0.8047,-2.087,5.0087,0.0
1560,-9.8483,-0.7281,0.843,-2.1565,5.0087,-0.1391
1565,-9.7334,-0.8047,0.8814,-2.1565,4.9391,-0.2087
1570,-9.695,-0.9197,0.7281,-2.087,4.9391,-0.3478
1575,-9.81,-0.8047,0.8047,-1.9478,4.9391,-0.4174
1580,-9.6567,-0.843,0.8814,-1.7391,4.8,-0.5565
1585,-9.7717,-0.843,0.7664,-1.5304,4.8,-0.487
1590,-9.81,-0.843,0.7281,-1.3913,4.8696,-0.5565
1595,-9.81,-0.8814,0.8047,-1.3217,4.8,-0.4174
1600,-9.81,-0.8047,0.8047,-1.1826,4.8696,-0.4174
1605,-9.81,-0.9197,0.958,-1.113,5.0087,-0.4174
1610,-9.81,-0.8047,0.9197,-1.0435,5.0087,-0.2783
1615,-9.7334,-0.843,0.8814,-0.9043,5.0087,-0.3478
1620,-9.7334,-0.8047,0.8814,-0.9043,5.0783,-0.1391
1625,-9.7334,-0.8047,0.8814,-0.9043,5.0087,-0.1391
1630,-9.7717,-0.8814,0.8814,-0.9043,5.2174,-0.2087
1635,-9.81,-0.8047,0.843,-0.9739,5.0783,-0.1391
1640,-9.8483,-0.8047,0.7664,-0.9739,5.0783,-0.2087
1645,-9.7717,-0.843,0.7281,-1.0435,5.0783,-0.2087
1650,-9.8483,-0.8047,0.958,-1.0435,5.0783,-0.2783
1655,-9.81,-0.8047,0.8814,-1.0435,5.1478,-0.2783
1660,-9.81,-0.8814,0.8047,-1.0435,5.2174,-0.2087
1665,-9.81,-0.8047,0.9197,-1.113,5.1478,-0.1391
1670,-9.8483,-0.6898,0.8814,-1.1826,5.2174,0.0
1675,-9.8866,-0.8047,0.9197,-1.0435,5.4261,0.1391
1680,-9.9633,-0.7664,0.7281,-1.0435,5.4957,0.2087
1685,-9.81,-0.8814,0.843,-0.9043,5.6348,0.2783
1690,-9.7334,-0.8047,0.8814,-0.9043,5.7043,0.4174
1695,-9.81,-0.7664,0.8047,-0.8348,5.8435,0.4174
1700,-9.8483,-0.7281,0.9197,-0.9043,5.913,0.5565
1705,-9.925,-0.7664,0.843,-0.9043,5.9826,0.5565
1710,-9.8483,-0.6898,0.8047,-0.9043,5.9826,0.487
1715,-9.81,-0.8047,0.8814,-1.0435,5.8435,0.2783
1720,-9.8483,-0.7281,0.9197,-1.0435,5.6348,0.2087
1725,-9.81,-0.7281,0.7281,-1.0435,5.5652,0.1391
1730,-9.81,-0.8047,0.7664,-0.9739,5.4957,0.0
1735,-9.81,-0.9197,0.843,-0.9043,5.4957,-0.1391
1740,-9.8483,-0.8047,0.8047,-0.6957,5.4261,-0.1391
1745,-9.81,-0.7664,0.843,-0.7652,5.4261,-0.1391
1750,-9.8866,-0.7281,0.843,-0.7652,5.3565,-0.0696
1755,-9.81,-0.843,0.7664,-0.7652,5.1478,-0.0696
1760,-9.81,-0.9197,0.843,-0.8348,5.2174,0.0
1765,-9.7717,-0.7664,0.6898,-0.9043,5.1478,0.0
1770,-9.7717,-0.8814,0.843,-0.9739,5.2174,0.0696
1775,-9.8483,-0.8814,0.843,-1.2522,5.0783,0.0696
1780,-9.7334,-0.8814,0.6514,-1.1826,5.0087,0.0696
1785,-9.81,-0.843,0.8047,-1.113,4.9391,0.0
1790,-9.81,-0.843,0.7664,-1.113,4.9391,0.0
1795,-9.7717,-0.9197,0.958,-0.9739,4.9391,0.0
1800,-9.8866,-0.8814,0.7664,-0.9043,4.8696,-0.0696
1805,-9.8483,-0.9197,0.7664,-0.9043,4.8696,0.0
1810,-9.7334,-0.8814,0.843,-0.8348,4.8,-0.0696
1815,-9.7717,-0.843,0.843,-0.8348,4.8,-0.1391
1820,-9.8483,-0.9197,0.8814,-0.6957,4.6609,-0.2087
1825,-9.8483,-0.7664,0.8814,-0.6261,4.6609,-0.2087
1830,-9.81,-0.843,0.7664,-0.5565,4.6609,-0.0696
1835,-9.7717,-0.7281,0.843,-0.487,4.5913,0.0
1840,-9.8483,-0.6898,0.8047,-0.3478,4.5913,0.0
1845,-9.81,-0.7281,0.6898,-0.4174,4.6609,0.0696
1850,-9.81,-0.843,0.8814,-0.4174,4.6609,0.0696
1855,-9.8483,-0.7281,0.8047,-0.4174,4.5913,0.1391
1860,-9.8483,-0.7664,0.8047,-0.5565,4.5913,0.0696
1865,-9.8866,-0.7281,0.958,-0.5565,4.5913,-0.0696
1870,-9.8483,-0.6514,0.9197,-0.5565,4.5913,-0.0696
1875,-9.81,-0.8047,0.8814,-0.5565,4.5913,-0.0696
1880,-9.8483,-0.7664,0.7664,-0.5565,4.6609,-0.2087
1885,-9.81,-0.7664,0.8814,-0.487,4.5913,-0.2783
1890,-9.81,-0.8047,0.7281,-0.5565,4.6609,-0.4174
1895,-9.8483,-0.7664,0.8047,-0.6261,4.5913,-0.4174
1900,-10.0782,-0.7664,0.9963,-0.6957,4.5217,-0.4174
1905,-9.81,-0.7664,0.8047,-0.6957,4.5217,-0.4174
1910,-9.8866,-0.7664,0.7664,-0.7652,4.5217,-0.4174
1915,-9.7717,-0.8047,0.8047,-0.7652,4.4522,-0.5565
1920,-9.81,-0.9197,0.8047,-0.6957,4.4522,-0.6261
1925,-9.7717,-0.843,0.8814,-0.6261,4.4522,-0.6261
1930,-9.81,-0.7281,0.843,-0.5565,4.313,-0.5565
1935,-9.8866,-0.843,0.7664,-0.5565,4.1739,-0.5565
1940,-9.81,-0.8047,0.7664,-0.487,4.1043,-0.5565
1945,-9.7717,-0.7664,0.7281,-0.487,3.8261,-0.6261
1950,-9.8483,-0.5748,0.958,-0.487,3.687,-0.6957
1955,-9.7717,-0.958,0.843,-0.5565,3.5478,-0.5565
1960,-9.7717,-0.8814,0.843,-0.4174,3.4783,-0.6261
1965,-9.7717,-0.843,0.9963,-0.5565,3.4783,-0.6957
1970,-9.81,-0.8047,0.843,-0.6261,3.4783,-0.6261
1975,-9.8866,-0.7664,0.8047,-0.6957,3.6174,-0.487
1980,-9.81,-0.8047,0.9197,-0.6957,3.7565,-0.5565
1985,-9.81,-0.843,0.843,-0.8348,3.7565,-0.487
1990,-9.81,-0.8814,0.7664,-0.9043,3.9652,-0.4174
1995,-9.8483,-0.7281,0.843,-0.9739,4.1739,-0.4174
2000,-9.8483,-0.843,0.8814,-1.113,4.2435,-0.487
2005,-9.5801,-0.6898,0.7281,-1.0435,4.3826,-0.487
2010,-9.925,-0.843,0.8047,-1.113,4.4522,-0.487
2015,-9.8483,-0.8814,0.6898,-0.9739,4.3826,-0.6261
2020,-9.8483,-0.7664,0.843,-0.9739,4.313,-0.6261
2025,-9.81,-0.843,0.8814,-0.7652,4.313,-0.6957
2030,-9.81,-0.843,0.9197,-0.6957,4.4522,-0.6261
2035,-9.81,-0.843,0.8814,-0.5565,4.5913,-0.487
2040,-9.8483,-0.7281,0.843,-0.4174,4.6609,-0.5565
2045,-9.81,-0.8814,0.8047,-0.487,4.7304,-0.5565
2050,-9.81,-0.958,0.8047,-0.487,4.5913,-0.487
2055,-9.8866,-0.8047,0.9197,-0.6957,4.4522,-0.4174
2060,-9.7334,-0.7664,0.843,-0.6957,4.4522,-0.4174
2065,-9.7717,-0.7664,0.9197,-0.6957,4.5217,-0.487
2070,-9.7717,-0.8814,1.0346,-0.8348,4.3826,-0.4174
2075,-9.81,-0.8047,0.843,-0.8348,4.313,-0.3478
2080,-9.7717,-0.843,0.8814,-0.7652,4.313,-0.2783
2085,-9.7334,-0.843,0.9197,-0.7652,4.0348,-0.2783
2090,-9.81,-0.9197,0.843,-0.6957,4.0348,-0.2783
2095,-9.8483,-0.8047,0.8047,-0.6957,4.1043,-0.4174
2100,-9.695,-0.843,0.8047,-0.7652,4.1739,-0.3478
2105,-9.8483,-0.9197,0.8814,-0.7652,4.1739,-0.4174
2110,-9.81,-0.7664,0.843,-0.7652,4.1043,-0.4174
2115,-9.8866,-0.843,0.9197,-0.8348,4.1739,-0.4174
2120,-9.81,-0.8814,0.8814,-0.9043,4.2435,-0.487
2125,-9.7717,-0.9197,0.7664,-1.113,4.313,-0.487
2130,-9.7334,-0.8814,0.7664,-1.113,4.3826,-0.487
2135,-9.7717,-0.7664,0.8047,-1.1826,4.3826,-0.487
2140,-9.81,-0.9197,0.843,-1.1826,4.5217,-0.487
2145,-9.925,-0.7281,1.0346,-1.1826,4.5217,-0.487
2150,-9.7717,-0.843,0.9197,-1.1826,4.5217,-0.2783
2155,-9.8483,-0.8047,0.9197,-1.113,4.6609,-0.2087
2160,-9.925,-0.7281,0.9197,-1.113,4.7304,-0.2087
2165,-9.81,-0.843,0.8814,-1.0435,4.8,-0.0696
2170,-9.81,-0.8047,0.7281,-1.0435,4.8696,-0.0696
2175,-9.8483,-0.8814,0.843,-0.9739,4.9391,-0.0696
2180,-9.81,-0.9197,0.8814,-0.9739,5.0783,0.0
2185,-9.8483,-0.7281,0.7281,-1.113,5.0783,0.0696
2190,-9.695,-0.843,0.9197,-1.1826,5.1478,0.0
2195,-9.8483,-0.8814,0.8814,-1.1826,5.0783,0.0
2200,-9.7717,-0.843,0.8047,-1.1826,5.0783,-0.1391
2205,-9.81,-0.8814,0.8047,-1.0435,5.0087,-0.1391
2210,-9.81,-0.8814,0.8047,-0.9739,4.9391,-0.2087
2215,-9.81,-0.843,0.5748,-0.9043,4.8,-0.2783
2220,-9.6567,-0.7664,0.6514,-0.7652,4.8,-0.3478
2225,-9.81,-0.843,0.7281,-0.5565,4.6609,-0.3478
2230,-9.8483,-0.8814,0.7664,-0.4174,4.6609,-0.2783
2235,-9.695,-0.8814,0.8814,-0.2087,4.5913,-0.1391
2240,-9.81,-0.8047,1.0346,-0.1391,4.6609,-0.2087
2245,-9.7717,-0.843,0.9963,-0.1391,4.5217,-0.1391
2250,-9.7717,-0.8047,0.8047,-0.2783,4.4522,-0.1391
2255,-9.81,-0.7664,0.9197,-0.4174,4.5217,-0.0696
2260,-9.7717,-0.6898,0.8814,-0.487,4.5217,0.0
2265,-9.8483,-0.7281,1.1496,-0.5565,4.6609,0.0
2270,-9.8483,-0.7664,0.8814,-0.6261,4.6609,0.0
2275,-9.8483,-0.7281,0.9197,-0.6261,4.7304,0.0696
2280,-9.7334,-0.843,0.9197,-0.8348,4.8,0.1391
2285,-9.8483,-0.8814,0.958,-0.9043,5.0087,0.0
2290,-9.81,-0.8047,0.843,-0.9043,5.1478,0.0
2295,-9.81,-0.843,0.958,-0.9043,5.2174,0.0696
2300,-9.7717,-0.8047,0.7664,-0.9739,5.4261,0.1391
2305,-9.81,-0.7281,0.8814,-1.0435,5.4957,0.1391
2310,-9.8483,-0.8814,0.7281,-1.1826,5.4957,0.2087
2315,-9.8483,-0.7281,0.9197,-1.1826,5.5652,0.2087
2320,-9.8866,-0.843,0.9197,-1.113,5.6348,0.2783
2325,-9.81,-0.843,0.843,-1.1826,5.7043,0.2087
2330,-9.8866,-0.843,0.5365,-1.1826,5.6348,0.2087
2335,-9.8866,-0.6131,0.7281,-1.1826,5.6348,0.1391
2340,-9.8483,-0.8814,0.7281,-1.1826,5.5652,0.1391
2345,-9.81,-0.7281,0.6898,-1.1826,5.4957,0.0
2350,-9.8483,-0.8047,0.843,-1.113,5.3565,-0.0696
2355,-9.7334,-0.7664,0.9197,-1.1826,5.0783,-0.2087
2360,-9.7334,-0.8047,0.843,-1.0435,4.9391,-0.2087
2365,-9.8483,-0.8047,0.7664,-1.0435,4.8,-0.3478
2370,-9.8866,-0.7664,0.9197,-1.0435,4.6609,-0.487
2375,-9.7717,-0.9963,0.8814,-0.9739,4.5913,-0.5565
2380,-9.7717,-0.7664,0.843,-0.9739,4.5217,-0.5565
2385,-9.81,-0.843,0.8047,-1.0435,4.4522,-0.5565
2390,-9.8483,-0.8814,0.7664,-0.9739,4.3826,-0.6261
2395,-9.8866,-0.843,0.843,-0.8348,4.313,-0.6261
2400,-9.81,-0.843,0.958,-0.9043,4.313,-0.5565
2405,-9.7334,-0.843,0.8814,-0.7652,4.2435,-0.487
2410,-9.8483,-0.843,0.843,-0.8348,4.2435,-0.487
2415,-9.81,-0.6898,0.843,-0.9043,4.1739,-0.5565
2420,-9.8483,-0.7664,0.7664,-0.9043,4.1043,-0.487
2425,-9.8483,-0.9197,0.7664,-0.8348,4.1043,-0.487
2430,-9.81,-0.843,0.8814,-0.8348,4.0348,-0.5565
2435,-9.9633,-0.7281,0.843,-0.8348,4.0348,-0.487
2440,-9.81,-0.9197,1.0346,-0.9043,4.0348,-0.4174
2445,-9.81,-0.8814,0.7281,-0.9043,4.1739,-0.3478
2450,-9.8866,-0.9197,0.843,-0.8348,4.313,-0.3478
2455,-9.8866,-0.8047,0.958,-0.9043,4.313,-0.4174
2460,-9.81,-0.7664,0.7664,-0.8348,4.313,-0.3478
2465,-9.81,-0.843,0.8814,-0.9043,4.4522,-0.3478
2470,-9.81,-0.7664,0.8047,-0.9043,4.5217,-0.2783
2475,-9.8483,-0.7281,0.8047,-0.9043,4.5913,-0.3478
2480,-9.81,-0.9197,0.7281,-0.9739,4.6609,-0.2783
2485,-9.8866,-0.9963,1.1496,-0.9043,4.7304,-0.4174
2490,-9.7717,-0.958,0.8814,-0.9043,4.8696,-0.4174
2495,-9.8483,-0.8047,0.843,-0.9043,4.9391,-0.4174
2500,-9.7717,-0.8047,0.958,-0.9739,4.9391,-0.3478
2505,-9.81,-0.8047,0.8047,-0.8348,4.8696,-0.4174
2510,-9.81,-0.7281,0.843,-0.8348,4.8696,-0.3478
2515,-9.81,-0.8047,0.8814,-0.6957,4.9391,-0.2087
2520,-9.81,-0.8047,0.7664,-0.6261,5.0087,-0.1391
2525,-9.7717,-0.8047,0.8047,-0.6261,4.9391,-0.1391
2530,-9.925,-0.6898,0.8814,-0.5565,5.0783,-0.0696
2535,-9.695,-0.8814,0.7664,-0.487,5.0783,-0.0696
2540,-9.81,-0.8047,0.8047,-0.487,5.0087,-0.0696
2545,-9.8483,-0.8814,0.7664,-0.3478,5.0087,-0.0696
2550,-9.7717,-0.8814,0.8814,-0.3478,5.0783,-0.1391
2555,-9.8483,-0.8814,0.8047,-0.3478,5.0087,-0.1391
2560,-9.81,-0.8814,0.958,-0.4174,4.9391,-0.1391
2565,-9.7717,-0.7281,0.958,-0.5565,4.9391,-0.1391
2570,-9.81,-0.843,0.7664,-0.5565,4.9391,-0.2087
2575,-9.8483,-0.7664,0.9197,-0.6261,5.0087,-0.2087
2580,-9.8483,-0.9197,0.7281,-0.6261,5.0783,-0.2783
2585,-9.8866,-0.843,0.9197,-0.6957,5.2174,-0.2087
2590,-9.81,-0.7664,0.7664,-0.6261,5.4957,-0.1391
2595,-9.7717,-0.6514,0.7664,-0.6261,5.4957,0.0
2600,-9.81,-0.9197,0.8047,-0.5565,5.7739,0.1391
2605,-9.81,-0.8814,0.7281,-0.4174,5.913,0.1391
2610,-9.81,-0.6514,0.6514,-0.2783,6.0522,0.2783
2615,-9.7717,-0.7664,0.8047,-0.0696,6.1217,0.3478
2620,-9.8483,-0.843,0.843,0.0,6.1217,0.3478
2625,-9.8866,-0.7664,0.9197,0.2087,6.0522,0.3478
2630,-9.8483,-0.8814,0.7664,0.3478,6.0522,0.3478
2635,-9.81,-0.8047,0.9197,0.3478,6.0522,0.3478
2640,-9.925,-0.843,0.843,0.2783,6.0522,0.3478
2645,-9.8483,-0.7664,0.843,0.1391,6.0522,0.4174
2650,-9.9633,-0.6514,0.8047,0.0696,6.1913,0.487
2655,-10.0399,-0.6514,0.8047,-0.2087,6.4696,0.6261
2660,-10.0782,-0.6514,0.8047,-0.2783,6.8174,0.8348
2665,-10.2698,-0.6514,0.6131,-0.3478,7.3043,0.9043
2670,-10.2315,-0.6131,0.6898,-0.4174,8.0696,1.0435
2675,-10.3465,-0.4982,0.6514,-0.6957,8.9739,1.113
2680,-10.3465,-0.3449,0.6131,-1.2522,9.7391,1.0435
2685,-10.3848,-0.4215,0.4982,-2.1565,10.6435,0.9043
2690,-10.4231,-0.4982,0.6514,-2.8522,11.4783,0.9043
2695,-10.2698,-0.5365,0.4598,-3.2696,12.1043,0.9043
2700,-10.2698,-0.4598,0.4215,-3.2696,12.3826,1.113
2705,-10.0782,-0.6131,0.4598,-2.6435,12.4522,1.3913
2710,-9.925,-0.6514,0.5748,-1.9478,12.1043,1.7391
2715,-9.925,-0.8814,0.6131,-1.113,11.6174,2.2957
2720,-9.8483,-0.8814,0.6131,0.0,10.8522,2.713
2725,-9.8866,-1.1113,0.6514,1.0435,10.0174,3.2
2730,-9.8483,-1.2263,0.8047,1.9478,9.2522,3.3391
2735,-9.8866,-1.073,0.843,2.7826,8.6261,3.4783
2740,-9.81,-1.1113,0.7281,3.2,8.0696,3.3391
2745,-9.8866,-0.9963,0.7281,2.9913,7.6522,2.9217
2750,-9.81,-0.8814,0.958,2.4348,7.3739,2.2261
2755,-9.8866,-1.0346,0.7664,1.5304,7.0957,1.3913
2760,-9.81,-0.6514,0.8047,0.4174,6.6783,0.6261
2765,-9.81,-0.6898,0.7281,-0.8348,6.2609,-0.2087
2770,-9.7717,-0.6131,0.8047,-1.9478,5.5652,-0.9739
2775,-9.81,-0.5748,0.6898,-2.9217,4.5913,-1.7391
2780,-9.695,-0.4982,0.6131,-3.5478,3.2696,-2.5043
2785,-9.6184,-0.5365,0.6514,-3.8261,1.6,-2.9217
2790,-9.6184,-0.6131,0.6514,-3.8261,-0.1391,-3.4087
2795,-9.6184,-0.6131,0.6898,-3.8261,-2.087,-3.6174
2800,-9.4651,-0.5365,0.9197,-3.8261,-3.6174,-3.5478
2805,-9.4268,-0.7281,0.958,-4.1043,-4.6609,-3.4087
2810,-9.4268,-0.6898,0.9963,-4.8,-5.1478,-2.9217
2815,-9.3502,-0.7281,1.1113,-5.6348,-4.8696,-2.4348
2820,-9.5034,-0.843,1.1113,-6.6783,-4.1043,-1.5304
2825,-9.4651,-0.8047,1.1496,-7.6522,-2.713,-0.7652
2830,-9.5801,-0.9197,1.2263,-8.487,-0.8348,0.2087
2835,-9.4651,-0.7281,1.2646,-8.9043,1.3913,1.113
2840,-9.4651,-0.8047,1.3029,-9.1826,3.7565,1.7391
2845,-9.5418,-0.6898,1.3029,-9.5304,5.8435,2.2261
2850,-9.5418,-0.6514,1.4562,-9.9478,7.3043,2.5739
2855,-9.5418,-0.5365,1.4562,-10.3652,8.5565,2.6435
2860,-9.6184,-0.6514,1.3412,-10.5739,9.6,2.8522
2865,-9.6184,-0.6514,1.3029,-10.7826,10.713,3.0609
2870,-9.6567,-0.843,1.2646,-10.9913,11.8957,3.2
2875,-9.6184,-0.9197,1.1496,-10.7826,13.0783,3.687
2880,-9.695,-1.1496,1.1496,-10.5043,14.3304,4.313
2885,-9.695,-1.1113,0.9197,-10.087,15.513,4.8696
2890,-9.7334,-1.1113,0.8814,-9.6,16.7652,5.5652
2895,-9.8483,-1.1113,0.8047,-9.0435,17.8783,6.4
2900,-9.8866,-1.1496,0.7281,-8.6957,18.9913,7.0957
2905,-10.0016,-1.1496,0.7281,-8.6261,19.8957,7.6522
2910,-9.81,-1.073,0.6514,-8.4174,20.6609,8.0
2915,-9.7717,-1.1879,0.6898,-8.0,21.0783,8.2087
2920,-9.7334,-1.1496,0.6514,-7.4435,21.913,8.4174
2925,-9.695,-1.073,0.7664,-6.8174,22.5391,8.6957
2930,-9.5418,-1.073,0.8814,-6.1913,23.0957,8.6261
2935,-9.4268,-1.0346,1.0346,-5.6348,23.6522,8.3478
2940,-9.3885,-0.8814,0.8814,-5.287,24.0,7.7217
2945,-9.2352,-0.9963,0.958,-5.287,24.1391,6.9565
2950,-9.2735,-0.843,1.2646,-5.4957,24.0696,5.8435
2955,-9.1202,-0.8814,1.3029,-6.0522,24.0696,4.5913
2960,-9.1202,-0.8814,1.1879,-6.5391,24.0,3.2696
2965,-9.2352,-0.843,1.2263,-7.0261,24.1391,2.0174
2970,-9.1586,-1.073,1.3412,-7.4435,24.3478,0.6957
2975,-9.1586,-0.8047,1.2263,-7.7913,24.5565,-0.1391
2980,-9.2735,-0.8814,1.073,-7.8609,24.8348,-0.6957
2985,-9.2352,-0.958,1.073,-7.5826,25.2522,-1.0435
2990,-9.1969,-0.8814,0.9963,-7.1652,25.9478,-1.1826
2995,-9.2735,-0.8814,0.9197,-6.7478,26.9913,-0.8348
