timestamp,accX,accY,accZ,gyroX,gyroY,gyroZ
0,-1.4945,-10.0399,-2.874,-13.6348,-99.3391,-34.7826
5,-1.5711,-10.1166,-3.1806,-12.7304,-96.6957,-34.5043
10,-1.5328,-10.1166,-3.4871,-12.313,-94.1217,-33.7391
15,-1.4945,-10.2698,-3.2572,-12.1043,-91.687,-33.2522
20,-1.4562,-10.3848,-3.4871,-11.9652,-89.6696,-32.4174
25,-1.4179,-10.4998,-3.3339,-11.687,-88.3478,-31.9304
30,-1.4945,-10.5764,-3.3722,-11.2,-87.513,-31.0957
35,-1.3795,-10.6147,-3.2955,-10.2957,-87.2348,-30.4
40,-1.4562,-10.7297,-3.2572,-8.7652,-87.3043,-29.4957
45,-1.3029,-10.7297,-3.0656,-6.5391,-87.513,-28.9391
50,-1.3412,-10.5764,-3.1423,-4.0348,-87.6522,-27.6174
55,-1.2263,-10.6147,-3.0273,-1.113,-87.6522,-26.5739
60,-1.2646,-10.4998,-2.9123,1.7391,-87.3739,-24.9043
65,-0.9963,-10.2698,-2.874,4.2435,-86.9565,-23.6522
70,-0.9963,-10.1549,-2.7591,5.9826,-86.3304,-22.2609
75,-0.8814,-10.0016,-2.8357,7.3043,-85.913,-21.3565
80,-0.6898,-9.6184,-3.0656,8.487,-85.6348,-20.4522
85,-0.7281,-9.695,-2.6824,9.5304,-85.4957,-20.1043
90,-0.6898,-9.5801,-2.6824,10.2261,-85.4957,-19.8261
95,-0.6131,-9.1586,-2.7207,10.9217,-85.6348,-19.8261
100,-0.6131,-9.0436,-2.7207,10.7826,-85.6348,-19.6174
105,-0.843,-8.852,-2.7591,10.087,-85.5652,-19.8957
110,-0.8047,-8.737,-2.6824,9.3217,-85.5652,-19.6174
115,-0.8814,-8.6604,-2.5291,8.4174,-85.287,-19.2696
120,-0.9963,-8.5454,-2.4525,7.7217,-84.6609,-18.6435
125,-1.0346,-8.4688,-2.5291,7.3739,-84.1043,-17.9478
130,-0.9963,-8.5454,-2.4908,7.0261,-83.687,-16.9739
135,-0.9963,-8.3921,-2.3759,6.6783,-83.3391,-16.1391
140,-1.1113,-8.4305,-2.2992,5.9826,-82.7826,-14.9565
145,-1.073,-8.3921,-2.2609,5.2174,-82.087,-13.8435
150,-1.0346,-8.5454,-2.6441,4.4522,-81.3217,-12.8696
155,-0.9963,-8.5454,-2.2992,3.8957,-80.2087,-12.2435
160,-1.0346,-8.5838,-2.2609,3.4087,-79.0261,-11.4087
165,-0.958,-8.737,-2.0693,2.9913,-77.4261,-11.2696
170,-0.958,-8.6987,-2.1843,2.6435,-75.4087,-11.0609
175,-1.0346,-9.2352,-2.0693,2.3652,-73.3217,-11.2696
180,-1.073,-8.9286,-2.1459,2.1565,-71.2348,-11.6174
185,-0.958,-8.9286,-2.1843,1.8087,-69.3565,-12.1043
190,-0.8814,-8.967,-2.1076,1.3913,-67.4087,-12.6609
195,-0.9197,-9.1202,-2.2226,0.7652,-65.6696,-13.1478
200,-0.8814,-9.1202,-2.2609,-0.0696,-63.3739,-13.8435
205,-0.843,-9.1969,-2.2609,-1.1826,-61.4957,-14.4696
210,-0.7664,-9.2352,-2.3759,-2.1565,-59.8261,-15.0261
215,-0.8047,-9.1202,-2.1843,-3.2696,-58.087,-15.5826
220,-0.7664,-9.0819,-2.3759,-4.2435,-56.487,-16.0696
225,-0.7664,-9.0819,-2.3375,-5.3565,-54.887,-16.2783
230,-0.8047,-9.4651,-2.7207,-6.1913,-53.287,-16.4174
235,-0.7664,-9.2352,-2.6058,-6.8174,-51.6174,-16.3478
240,-0.6898,-9.2352,-2.7591,-7.2348,-50.1565,-16.3478
245,-0.843,-8.852,-2.6441,-7.4435,-48.9043,-16.0
250,-0.6514,-9.1202,-2.874,-7.5826,-48.0,-15.7217
255,-1.073,-9.2352,-2.5291,-7.4435,-47.3739,-15.5826
260,-0.9197,-9.1969,-2.4525,-7.0957,-46.8174,-15.3739
265,-0.843,-9.2352,-2.4142,-6.9565,-45.9826,-15.4435
270,-0.7664,-9.2735,-2.6441,-6.887,-44.8696,-15.7217
275,-0.8047,-9.3118,-2.4908,-6.887,-43.5478,-16.0696
280,-0.7281,-9.2352,-2.5291,-6.887,-41.9478,-16.5565
285,-0.7281,-9.4268,-2.6824,-6.9565,-40.0696,-17.0435
290,-0.6514,-9.3885,-2.6441,-7.0261,-37.9826,-17.6696
295,-0.4598,-9.4268,-2.9123,-7.3739,-35.3391,-18.1565
300,-0.4598,-9.5034,-2.7591,-7.9304,-32.6261,-18.9217
305,-0.4598,-9.5801,-2.6441,-8.6261,-29.7739,-19.4783
310,-0.3449,-9.6567,-2.6058,-9.4609,-26.4348,-20.5217
315,-0.3449,-9.695,-2.7974,-10.0174,-24.0,-21.3565
320,-0.3449,-9.695,-2.6824,-10.0174,-21.9826,-22.4696
325,-0.3832,-9.7717,-2.9123,-9.9478,-20.5217,-23.3043
330,-0.4982,-9.81,-2.7207,-9.6696,-19.3391,-24.2087
335,-0.5365,-9.81,-2.7591,-9.2522,-18.5739,-24.9043
340,-0.6514,-9.9633,-2.874,-8.9739,-18.087,-25.1826
345,-0.843,-9.9633,-2.989,-8.7652,-17.7391,-24.7652
350,-0.9197,-10.0399,-3.4105,-8.8348,-17.6696,-24.3478
355,-0.843,-10.2698,-3.5255,-9.0435,-17.5304,-23.0261
360,-0.8814,-10.3082,-3.9087,-9.3913,-17.3913,-21.7043
365,-0.843,-10.4231,-3.9087,-10.0174,-17.113,-19.5478
370,-0.7664,-10.5381,-4.1386,-10.9217,-17.113,-18.0174
375,-0.6898,-10.8063,-4.1769,-11.2,-17.3217,-16.1391
380,-0.5365,-10.8446,-4.1003,-10.8522,-17.9478,-14.9565
385,-0.5365,-10.768,-4.0236,-9.6,-19.1304,-13.6348
390,-0.5748,-10.653,-3.832,-7.3043,-20.8696,-12.9391
395,-0.6898,-10.5381,-3.6404,-4.1739,-23.2348,-12.1043
400,-0.8814,-10.3082,-3.2955,-0.5565,-25.6696,-11.687
405,-1.0346,-9.8866,-3.2189,3.0609,-28.313,-10.9913
410,-1.0346,-9.5418,-3.0273,6.8174,-30.5391,-10.5739
415,-1.1879,-9.3118,-2.7974,10.1565,-32.487,-9.8087
420,-1.3029,-9.0436,-2.6058,13.0087,-34.2261,-9.2522
425,-1.3029,-8.6987,-2.4908,16.2783,-34.9217,-8.6261
430,-1.3412,-8.4305,-2.2992,17.8783,-34.5739,-8.2087
435,-1.2263,-8.2772,-2.1843,18.2957,-33.2522,-7.5826
440,-0.9963,-8.2005,-2.2609,18.0174,-31.3739,-7.5826
445,-0.7664,-8.2005,-2.3375,16.9739,-28.313,-7.513
450,-0.5748,-8.2389,-2.4142,15.3043,-24.9739,-8.2087
455,-0.4598,-8.2389,-2.6441,12.8,-20.9391,-9.2522
460,-0.2299,-8.2772,-3.0273,9.4609,-16.5565,-11.2696
465,-0.0383,-8.4305,-3.6021,4.9391,-11.4783,-13.3565
470,0.1533,-8.3921,-3.832,-0.0696,-5.913,-16.0696
475,0.1916,-8.4688,-4.3685,-5.3565,0.6261,-18.9913
480,0.6131,-8.5838,-4.5218,-11.7565,5.6348,-21.5652
485,0.8047,-8.5454,-4.79,-16.7652,10.5043,-23.5826
490,1.0346,-8.6221,-4.6751,-21.0087,14.9565,-25.5304
495,1.1113,-8.6221,-4.9816,-24.4174,19.2,-26.6435
500,1.3029,-8.7754,-4.6368,-26.5739,22.6783,-27.5478
505,1.3029,-8.6604,-4.5218,-27.6174,25.1826,-27.6174
510,1.2263,-8.6221,-4.062,-27.6174,26.087,-27.5478
515,1.2646,-8.737,-3.6787,-26.8522,25.1826,-26.6435
520,1.1113,-8.8137,-3.3722,-24.9043,22.6087,-25.2522
525,1.1113,-8.967,-2.9507,-21.913,18.7826,-22.8174
530,0.9197,-8.8903,-2.7207,-18.0174,12.8696,-20.6609
535,0.843,-9.0053,-2.4525,-15.0957,7.7913,-17.8783
540,0.8814,-9.0053,-2.5291,-12.7304,2.8522,-15.3739
545,0.7664,-9.1969,-2.3759,-10.9913,-1.5304,-12.8696
550,0.7664,-9.1969,-2.2609,-9.8087,-5.3565,-10.8522
555,0.5748,-9.3118,-2.2609,-9.113,-8.4174,-8.9739
560,0.4215,-9.5034,-2.1843,-8.9043,-11.3391,-7.5826
565,0.2299,-9.6184,-2.2609,-8.9043,-14.2609,-6.3304
570,0.1533,-9.7334,-2.2992,-9.113,-16.7652,-5.5652
575,0.115,-9.8866,-2.2609,-9.5304,-19.2,-5.2174
580,0.1533,-10.1166,-2.4525,-10.1565,-21.287,-5.2174
585,0.1533,-10.1166,-2.6058,-11.5478,-23.3043,-5.5652
590,0.0766,-10.0399,-2.7974,-13.3565,-24.2783,-6.4696
595,0.1916,-10.3082,-3.1423,-15.5826,-24.4174,-7.5826
600,0.4598,-10.4614,-3.7171,-18.3652,-23.4435,-9.0435
605,0.4215,-10.4614,-3.8704,-21.913,-21.4957,-10.6435
610,0.3832,-10.5764,-3.7937,-24.8348,-18.7826,-12.1739
615,0.4982,-10.6914,-3.6787,-26.3652,-15.7217,-13.4957
620,0.5365,-10.6914,-3.3722,-26.5043,-13.0087,-14.8174
625,0.7281,-10.6914,-2.989,-25.2522,-10.7826,-16.0
630,0.7281,-10.8063,-2.6058,-23.0957,-9.2522,-17.0435
635,0.7281,-10.8063,-2.4525,-20.0348,-8.7652,-18.1565
640,0.6131,-10.5381,-2.2226,-15.2348,-9.7391,-18.9913
645,0.6131,-10.3465,-2.1843,-11.1304,-11.687,-19.7565
650,0.3449,-10.1166,-2.0693,-7.5826,-14.6783,-20.5913
655,0.2299,-9.9633,-2.1076,-4.9391,-18.2261,-21.287
660,0.0383,-9.925,-2.2609,-3.2696,-22.0522,-21.7043
665,-0.2299,-9.81,-2.3759,-1.8087,-25.4609,-21.913
670,-0.4215,-9.6184,-2.4525,-0.5565,-28.313,-21.913
675,-0.3449,-9.5034,-2.3375,0.7652,-30.4696,-21.5652
680,-0.6131,-9.3885,-2.2992,1.9478,-31.8609,-20.8
685,-0.6131,-9.3502,-2.1459,3.2696,-32.6261,-20.0348
690,-0.6898,-9.2352,-2.031,5.0783,-32.8348,-18.9913
695,-0.6514,-9.1969,-1.8394,7.6522,-32.1391,-17.6696
700,-0.5748,-9.1586,-1.8394,10.9217,-31.2348,-16.5565
705,-0.3066,-9.1202,-1.6478,13.1478,-30.3304,-15.3043
710,-0.0766,-9.0053,-1.8011,14.6087,-29.6348,-14.1217
715,0.1533,-8.9286,-1.8394,15.3043,-29.0087,-13.1478
720,0.4215,-8.7754,-1.9543,15.7217,-27.9652,-11.8957
725,0.7664,-8.8903,-1.9543,15.6522,-26.7826,-10.9913
730,0.9197,-8.8903,-2.1076,15.3739,-25.113,-10.0174
735,1.073,-8.8137,-2.2609,14.6087,-23.7217,-9.3913
740,1.1496,-8.8903,-2.3375,13.287,-22.887,-8.7652
745,1.3795,-8.8903,-2.5291,11.5478,-22.6087,-8.487
750,1.5711,-8.852,-3.0656,9.1826,-23.1652,-8.0696
755,1.6861,-8.8903,-3.2572,5.4261,-24.1391,-8.2087
760,1.7627,-9.0436,-3.4105,1.7391,-25.6,-8.2783
765,1.8394,-9.2735,-3.7171,-2.087,-27.4783,-8.7652
770,1.8011,-9.5418,-3.7171,-5.7043,-29.7043,-9.0435
775,1.7627,-9.7717,-3.6787,-8.4174,-32.2783,-9.6
780,1.6478,-9.8866,-3.7937,-10.0174,-35.0609,-9.8783
785,1.3795,-10.0399,-3.5255,-10.6435,-37.913,-10.2261
790,1.073,-10.2698,-3.6404,-10.713,-41.0435,-10.0174
795,0.7664,-10.4614,-3.5638,-9.9478,-44.7304,-10.1565
800,0.4598,-10.6147,-3.7937,-8.6261,-49.0435,-10.087
805,0.1533,-10.6147,-4.2152,-7.2348,-54.4,-10.2261
810,-0.2299,-10.5381,-4.5984,-6.3304,-58.3652,-10.0174
815,-0.4982,-10.4614,-4.9433,-6.2609,-61.1478,-9.6
820,-0.6898,-10.3848,-5.4032,-6.1913,-62.6783,-8.487
825,-0.9963,-10.1549,-5.4415,-5.7043,-63.0957,-7.2348
830,-1.1496,-10.0016,-5.4032,-3.8261,-62.6087,-5.2174
835,-1.4945,-9.8483,-5.1349,-0.487,-61.7739,-3.3391
840,-1.7244,-9.5034,-4.9433,4.1043,-61.1478,-1.0435
845,-1.8777,-9.3885,-4.5218,9.8087,-61.1478,0.7652
850,-1.916,-9.0436,-4.1769,16.0696,-61.3565,2.713
855,-1.9927,-8.4688,-3.947,22.6783,-61.913,4.1043
860,-2.031,-7.9706,-3.7554,28.9391,-62.887,5.6348
865,-2.031,-7.6641,-3.6404,35.2696,-64.0,5.9826
870,-1.8777,-7.4341,-3.6404,38.9565,-65.3217,6.1913
875,-1.7244,-6.8977,-3.6787,40.9739,-66.5739,5.4957
880,-1.6095,-6.5911,-3.6021,41.0435,-67.8957,4.4522
885,-1.4179,-6.2079,-3.4871,39.2348,-69.4957,2.6435
890,-1.3029,-6.0929,-3.5255,35.8957,-71.1652,0.7652
895,-1.1113,-6.0163,-3.3722,31.3043,-72.6261,-1.2522
900,-0.843,-6.2079,-3.1806,25.9478,-73.9478,-3.0609
905,-0.7281,-6.2845,-2.9123,19.9652,-74.9913,-4.8
910,-0.6898,-6.5145,-2.7974,13.8435,-75.8261,-6.1913
915,-0.4598,-7.0126,-2.7207,7.7913,-76.7304,-7.6522
920,-0.4215,-7.3958,-2.6058,0.3478,-76.6609,-8.1391
925,-0.3066,-7.9706,-2.7207,-6.0522,-75.8261,-8.5565
930,-0.115,-8.6604,-2.874,-13.1478,-74.2261,-8.4174
935,-0.2299,-9.2735,-3.0273,-20.1739,-71.513,-8.7652
940,0.0383,-9.925,-2.9123,-26.9217,-67.9652,-8.9739
945,0.2299,-10.4614,-3.0273,-32.4174,-63.4435,-9.7391
950,0.5748,-11.1129,-2.6824,-35.8261,-58.3652,-10.3652
955,0.6514,-11.5727,-2.7207,-37.4261,-52.5217,-10.9913
960,0.6131,-11.9176,-2.6441,-37.3565,-46.4696,-11.4087
965,0.7281,-12.4158,-2.6441,-36.1739,-40.5565,-11.687
970,0.6514,-12.6074,-2.6058,-34.0174,-34.2261,-11.7565
975,0.7664,-12.8756,-2.6824,-30.6087,-29.6348,-11.9652
980,0.7664,-12.9139,-2.7207,-27.3391,-25.9478,-11.8957
985,0.6514,-12.8756,-2.7974,-23.7913,-22.8174,-11.7565
990,0.4982,-12.799,-2.6824,-19.9652,-20.6609,-11.2696
995,0.4598,-12.5307,-2.7591,-15.5826,-19.2696,-10.6435
1000,0.3066,-12.3775,-2.6824,-10.713,-18.713,-10.087
1005,0.115,-11.841,-2.874,-5.5652,-18.9217,-9.4609
1010,0.0383,-11.3811,-3.0273,-0.9043,-19.687,-8.9739
1015,-0.3066,-10.9979,-2.9123,2.0174,-20.9391,-8.7652
1020,-0.3449,-10.5381,-2.989,4.5217,-22.1217,-8.487
1025,-0.3832,-10.1166,-2.9123,6.7478,-23.3043,-8.0
1030,-0.4598,-9.8483,-2.7591,8.8348,-24.0,-7.2348
1035,-0.5365,-9.4268,-2.6441,9.7391,-24.3478,-6.6087
1040,-0.5748,-9.0436,-2.6441,10.0174,-24.0696,-5.8435
1045,-0.6131,-8.6987,-2.4908,10.2261,-23.7913,-5.0783
1050,-0.7281,-8.5071,-2.3375,10.2261,-23.3739,-4.2435
1055,-0.5748,-8.2772,-2.4908,10.087,-23.0957,-3.6174
1060,-0.6131,-7.9706,-2.3759,9.5304,-23.1652,-2.9913
1065,-0.4982,-8.0089,-2.3759,8.5565,-23.2348,-2.3652
1070,-0.6131,-7.8557,-2.2609,7.2348,-23.6522,-1.8783
1075,-0.6131,-7.779,-2.2992,5.913,-24.0,-1.3913
1080,-0.7281,-7.6257,-2.3759,4.6609,-24.6261,-0.9739
1085,-0.5748,-7.6641,-2.2226,3.687,-25.113,-0.7652
1090,-0.5365,-7.5874,-2.2226,3.2696,-25.2522,-0.487
1095,-0.5748,-7.6641,-2.1076,2.9913,-25.2522,-0.3478
1100,-0.6131,-7.5491,-2.0693,2.713,-24.7652,-0.3478
1105,-0.6514,-7.7024,-2.1843,2.2957,-24.0,-0.4174
1110,-0.6514,-7.8173,-2.0693,1.3913,-22.887,-0.8348
1115,-0.5365,-7.894,-1.8777,-0.0696,-21.4261,-1.113
1120,-0.6898,-8.0856,-2.0693,-1.8087,-19.9652,-1.6696
1125,-0.4982,-8.2772,-1.8011,-3.7565,-18.9217,-2.087
1130,-0.5748,-8.4688,-2.031,-5.9826,-17.8783,-2.5739
1135,-0.4982,-8.7754,-2.2226,-8.3478,-16.6261,-3.1304
1140,-0.5365,-8.967,-2.0693,-11.2,-15.7217,-3.687
1145,-0.5365,-9.2735,-1.9927,-13.1478,-15.0261,-4.2435
1150,-0.5748,-9.5801,-1.9927,-14.4696,-14.6087,-4.9391
1155,-0.6131,-9.81,-2.1843,-15.3043,-14.2609,-5.4957
1160,-0.4598,-9.925,-2.3375,-15.513,-13.9826,-6.3304
1165,-0.4598,-10.1932,-2.4525,-15.4435,-13.3565,-7.1652
1170,-0.4215,-10.2315,-2.5291,-15.3739,-12.313,-8.4174
1175,-0.3832,-10.4231,-2.874,-15.5826,-10.713,-9.5304
1180,-0.1916,-10.4998,-2.9507,-16.0,-8.3478,-11.1304
1185,-0.0766,-10.5381,-2.9507,-16.4174,-5.3565,-12.313
1190,-0.0766,-10.4998,-3.1039,-16.5565,-1.8087,-14.0522
1195,-0.0766,-10.5381,-2.8357,-15.6522,0.6957,-14.887
1200,-0.115,-10.4998,-2.6441,-13.4957,2.7826,-15.7217
1205,-0.0766,-10.4998,-2.6058,-10.5043,4.5217,-15.9304
1210,-0.1533,-10.3465,-2.4142,-6.8174,5.6348,-16.2087
1215,-0.0383,-10.1549,-2.4142,-3.1304,6.2609,-16.1391
1220,-0.1533,-10.0399,-2.4525,0.2783,6.8174,-16.2087
1225,-0.115,-9.8866,-2.3759,2.9217,6.9565,-15.7913
1230,-0.0766,-9.81,-2.6441,4.9391,6.8174,-15.8609
1235,-0.0383,-9.6567,-2.6058,6.5391,6.887,-15.5826
1240,0.0766,-9.5418,-2.5291,7.513,7.0957,-15.6522
1245,-0.0383,-9.2352,-2.3759,8.4174,7.5826,-15.4435
1250,-0.0766,-9.2352,-2.4142,9.0435,8.1391,-15.9304
1255,0.0383,-9.0819,-2.2992,9.3913,8.6261,-16.2087
1260,-0.0383,-8.967,-2.4142,9.1826,8.8348,-16.9043
1265,-0.0766,-8.967,-2.2992,8.5565,8.5565,-17.1826
1270,-0.3066,-8.7754,-2.4525,7.4435,7.5826,-17.6696
1275,-0.3832,-8.8137,-2.2609,6.0522,6.1913,-17.5304
1280,-0.4982,-8.7754,-2.2226,4.7304,5.0087,-17.3217
1285,-0.5365,-9.0053,-2.031,4.0348,3.8957,-16.6957
1290,-0.7281,-8.8903,-1.8394,4.0348,3.0609,-16.2087
1295,-0.8814,-9.0053,-2.031,4.5217,2.5043,-15.1652
1300,-0.843,-9.1202,-2.2609,4.9391,2.4348,-13.7739
1305,-0.843,-9.1969,-2.6824,4.1739,2.713,-12.1043
1310,-0.8814,-9.3885,-3.1039,2.0174,3.1304,-10.3652
1315,-0.843,-9.3885,-3.5638,-2.087,3.2,-8.1391
1320,-0.7281,-9.6567,-4.2919,-7.9304,2.5043,-6.1217
1325,-0.7281,-9.8483,-4.5601,-14.7478,1.3217,-4.1739
1330,-0.5748,-10.0782,-4.8284,-21.4957,-0.0696,-2.7826
1335,-0.6898,-10.1932,-4.9433,-26.9217,-1.2522,-1.2522
1340,-0.5365,-10.4998,-4.4835,-29.6348,-2.4348,-0.3478
1345,-0.4982,-10.6147,-4.1003,-29.2174,-3.8957,0.2783
1350,-0.5365,-10.5381,-3.6787,-25.5304,-5.7043,0.1391
1355,-0.4215,-10.5381,-3.1423,-19.2696,-8.1391,-0.5565
1360,-0.3832,-10.2698,-2.7974,-9.1826,-9.7391,-1.5304
1365,-0.3449,-9.9633,-2.5291,0.0,-10.713,-1.8087
1370,-0.2682,-9.5418,-2.4142,8.2783,-10.7826,-1.8783
1375,-0.1533,-9.1202,-2.3375,14.887,-10.1565,-1.4609
1380,-0.2299,-8.737,-2.1843,19.687,-9.1826,-1.113
1385,-0.2682,-8.3538,-2.2226,22.4696,-8.1391,-0.4174
1390,-0.0766,-8.0856,-2.3375,23.6522,-6.9565,0.1391
1395,0.0,-8.0089,-2.5291,23.3739,-5.8435,0.7652
1400,0.0383,-7.894,-2.8357,22.3304,-4.3826,1.4609
1405,0.0766,-7.9706,-2.989,20.2435,-2.8522,2.087
1410,0.0,-7.779,-3.2572,16.9043,-1.2522,2.3652
1415,-0.0766,-7.8557,-3.6021,11.4087,0.0,2.5043
1420,-0.1533,-7.8557,-4.062,5.4957,1.4609,2.3652
1425,-0.1533,-8.0089,-4.4452,-0.9043,3.6174,2.3652
1430,-0.1533,-8.2005,-4.7517,-7.2348,6.1913,2.0174
1435,-0.2299,-8.2005,-4.8284,-13.4261,8.9739,1.8783
1440,-0.3832,-8.5071,-4.6368,-18.9217,11.687,1.6696
1445,-0.4215,-8.6221,-4.4835,-23.7913,13.3565,1.4609
1450,-0.4598,-8.9286,-4.1003,-27.0609,14.3304,1.6
1455,-0.5748,-9.1202,-3.8704,-28.5217,14.4,1.6
1460,-0.4598,-9.3502,-3.7171,-28.4522,14.3304,1.7391
1465,-0.4982,-9.5801,-3.6787,-26.8522,14.4,1.9478
1470,-0.3449,-9.5418,-3.5638,-23.7217,14.8174,1.8783
1475,-0.2682,-9.5418,-3.4871,-20.5217,15.4435,1.8087
1480,-0.0766,-9.6567,-3.6021,-16.9043,16.1391,1.6
1485,0.1916,-9.5034,-3.6787,-13.7739,17.3913,1.1826
1490,0.2682,-9.3885,-3.7554,-10.9217,18.8522,0.9043
1495,0.3449,-9.3502,-3.7554,-8.2783,20.5217,0.2087
1500,0.6898,-9.1202,-3.7937,-6.0522,22.0522,-0.3478
1505,0.6514,-9.0053,-3.832,-4.3826,23.5826,-1.0435
1510,0.8047,-8.852,-4.1386,-3.3391,24.6261,-1.3913
1515,0.6898,-8.6987,-3.7171,-2.713,25.3217,-1.7391
1520,0.7664,-8.6221,-3.7171,-2.0174,26.0174,-1.5304
1525,0.6514,-8.4305,-3.4488,-1.113,26.4348,-1.0435
1530,0.6131,-8.3538,-3.3339,-0.2087,26.713,-0.1391
1535,0.7281,-8.3921,-3.0273,0.7652,26.5043,1.113
1540,0.5748,-8.2005,-2.7974,1.8783,25.9478,2.7826
1545,0.4982,-8.3155,-2.6824,3.4783,24.2783,4.2435
1550,0.4598,-8.4305,-2.4142,4.8,21.6348,5.7739
1555,0.4982,-8.6221,-2.3759,5.8435,17.8783,6.887
1560,0.3832,-8.6221,-2.3375,6.3304,13.7043,8.0
1565,0.2682,-8.8137,-2.5675,6.1217,9.113,8.6261
1570,0.2299,-8.9286,-2.6058,5.0783,4.1739,9.6696
1575,0.115,-9.1202,-2.4525,3.4087,-2.0174,10.5043
1580,0.1533,-9.3502,-2.6441,1.3217,-6.9565,11.3391
1585,0.115,-9.4651,-2.9123,-0.6261,-10.9913,12.1043
1590,-0.0766,-9.8866,-2.9507,-2.3652,-14.2609,12.9391
1595,-0.115,-9.9633,-3.0656,-3.4783,-16.4174,13.5652
1600,-0.2682,-10.2698,-3.0273,-4.1043,-17.7391,14.1913
1605,-0.2682,-10.5381,-3.0656,-3.8957,-18.5043,14.3304
1610,-0.1916,-10.9596,-3.1423,-2.7826,-18.7826,14.1913
1615,-0.1533,-11.1895,-3.2955,-1.1826,-18.4348,13.0783
1620,0.0383,-11.4195,-3.3339,0.6261,-17.4609,11.7565
1625,0.2299,-11.5344,-3.5255,2.6435,-15.7913,9.9478
1630,0.4215,-11.6877,-3.6404,3.9652,-12.9391,7.5826
1635,0.4215,-11.9176,-3.6404,4.6609,-10.2957,4.9391
1640,0.4982,-11.6877,-3.4871,5.7043,-7.7217,2.5043
1645,0.5365,-11.6111,-3.5255,6.9565,-5.4957,-0.2783
1650,0.6131,-11.3045,-3.2572,8.0696,-3.3391,-2.713
1655,0.5365,-11.0746,-3.1423,9.1826,-1.6,-5.0783
1660,0.5748,-10.7297,-2.989,10.5739,-0.2783,-6.6087
1665,0.5748,-10.6147,-2.9507,12.0348,0.9043,-8.487
1670,0.3449,-10.0782,-2.874,13.287,2.1565,-9.4609
1675,0.3449,-9.8866,-2.5675,14.1913,3.4087,-10.4348
1680,0.3449,-9.7717,-2.5291,14.5391,4.6609,-10.7826
1685,0.3832,-9.4268,-2.7591,14.2609,6.0522,-11.2
1690,0.4598,-9.3118,-2.7207,13.4957,7.4435,-11.2696
1695,0.3832,-9.0436,-2.6441,12.3826,8.9739,-11.5478
1700,0.4598,-8.8903,-2.5675,11.3391,10.5043,-11.4087
1705,0.4598,-8.6987,-2.4525,10.1565,11.687,-11.6174
1710,0.6131,-8.7754,-2.4525,9.2522,12.4522,-11.5478
1715,0.8047,-8.6221,-2.6441,8.4174,12.6609,-11.7565
1720,0.7281,-8.5838,-2.6441,7.4435,12.313,-11.8261
1725,0.9197,-8.737,-2.5675,6.6087,11.5478,-12.2435
1730,0.8814,-8.5454,-2.6441,5.7043,10.4348,-12.313
1735,0.8047,-8.4688,-2.7207,4.7304,9.0435,-13.0087
1740,0.8047,-8.5071,-2.6824,3.687,7.3043,-13.3565
1745,0.8814,-8.5071,-2.5675,2.8522,6.0522,-13.9826
1750,0.843,-8.5071,-2.4142,2.5739,4.5217,-14.1913
1755,0.8047,-8.6221,-2.2609,2.713,2.7826,-14.6087
1760,0.5748,-8.5838,-2.1459,3.2,0.8348,-14.6087
1765,0.5365,-8.8137,-2.0693,3.9652,-1.4609,-14.7478
1770,0.3449,-8.6987,-1.9927,4.8,-3.9652,-14.4
1775,0.1533,-8.8137,-1.916,5.4957,-6.6783,-13.913
1780,0.0766,-8.852,-1.7627,6.4,-9.3217,-13.0783
1785,0.115,-9.0819,-1.4562,7.3739,-11.8957,-12.4522
1790,-0.0766,-9.2352,-1.4562,8.6957,-14.4696,-11.6174
1795,-0.0383,-9.3885,-1.6095,10.2261,-17.5304,-10.8522
1800,-0.0766,-9.3885,-1.6095,11.9652,-19.8957,-10.087
1805,-0.1916,-9.2735,-1.916,12.9391,-22.1913,-9.2522
1810,-0.115,-9.4268,-2.1843,13.287,-24.1391,-8.3478
1815,-0.1533,-9.3502,-2.2609,12.6609,-26.087,-7.5826
1820,-0.2299,-9.3118,-2.5291,11.2,-27.4783,-6.8174
1825,-0.4215,-9.3885,-2.5291,9.6,-28.5913,-6.4696
1830,-0.3832,-9.3118,-2.1843,8.5565,-29.4261,-6.1913
1835,-0.4215,-9.3885,-2.2609,8.2783,-30.1217,-6.0522
1840,-0.3449,-9.3118,-2.031,8.9739,-30.7478,-6.1913
1845,-0.3066,-9.3118,-2.1076,10.2957,-31.0957,-6.4696
1850,-0.3066,-9.3502,-1.8777,12.0348,-31.2348,-6.7478
1855,-0.115,-9.1969,-1.7244,13.9826,-31.3739,-6.887
1860,-0.115,-9.1586,-1.7244,15.2348,-31.5826,-6.8174
1865,0.0383,-9.0053,-1.6861,16.0,-31.9304,-6.6783
1870,0.2299,-8.9286,-1.8394,16.3478,-32.487,-6.5391
1875,0.1916,-8.852,-1.916,16.2087,-32.6261,-6.2609
1880,0.2682,-8.8137,-1.916,15.7217,-32.9043,-6.0522
1885,0.5748,-8.6987,-2.1076,14.8174,-33.1826,-5.913
1890,0.6514,-8.4688,-2.1843,13.5652,-33.3913,-6.1217
1895,0.8047,-8.4305,-2.3375,12.2435,-33.9478,-6.5391
1900,0.7281,-8.1239,-2.5291,10.4348,-34.8522,-7.513
1905,0.7664,-7.9706,-2.4142,8.6957,-36.1739,-8.9043
1910,0.7664,-7.779,-2.3375,6.5391,-38.1913,-10.3652
1915,0.5748,-7.6641,-2.3375,4.9391,-40.2087,-12.1739
1920,0.3832,-7.4341,-2.2226,3.8957,-42.5043,-14.0522
1925,0.115,-7.3192,-2.2226,3.1304,-45.0087,-15.7913
1930,-0.2299,-7.0509,-1.8777,2.5739,-47.8609,-17.3913
1935,-0.3832,-6.9743,-1.6478,2.0174,-50.5739,-18.6435
1940,-0.8047,-6.7061,-1.5328,1.6696,-53.1478,-19.687
1945,-0.9963,-6.6677,-1.1879,1.6,-55.1652,-20.1043
1950,-1.2263,-6.5528,-0.9963,1.6,-56.9739,-20.3826
1955,-1.073,-6.4761,-1.073,1.5304,-58.5043,-20.0348
1960,-1.1496,-6.3995,-1.2646,0.9043,-59.9652,-19.6174
1965,-1.073,-6.3995,-1.3795,-0.9043,-61.913,-18.9217
1970,-1.0346,-6.2079,-1.6095,-3.0609,-63.7217,-18.5043
1975,-0.7664,-6.2079,-2.1076,-6.3304,-65.8783,-17.9478
1980,-0.4982,-6.1313,-2.4142,-10.3652,-68.0348,-17.6
1985,-0.4598,-5.978,-2.7207,-14.8174,-70.0522,-17.113
1990,-0.2682,-5.978,-3.3339,-19.5478,-72.1391,-17.1826
1995,-0.1533,-6.0163,-3.4871,-24.4174,-74.4348,-17.113
2000,-0.115,-5.8247,-3.4105,-29.0087,-77.2174,-17.3913
2005,0.115,-6.0929,-3.4488,-33.0435,-80.0696,-17.1826
2010,0.1916,-6.0929,-3.3722,-36.0348,-82.7826,-17.1826
2015,0.3066,-6.3612,-3.5255,-38.1217,-85.2174,-16.2087
2020,0.6514,-6.7061,-3.4105,-39.0957,-87.6522,-15.2348
2025,0.9197,-6.8977,-3.1806,-38.7478,-89.4609,-13.7739
2030,1.073,-7.2809,-2.874,-37.4957,-91.2696,-12.6609
2035,1.3795,-7.5874,-2.6824,-35.4783,-93.0087,-11.3391
2040,1.4562,-7.7024,-2.4908,-32.9043,-95.1652,-10.1565
2045,1.6478,-8.1239,-2.2992,-30.0522,-97.5304,-8.6957
2050,1.916,-8.2005,-2.4525,-27.6174,-99.687,-7.6522
2055,2.031,-8.3538,-2.6058,-26.2957,-101.4957,-6.7478
2060,1.916,-8.4305,-2.6441,-25.7391,-103.1652,-6.3304
2065,1.9543,-8.5071,-2.874,-25.9478,-105.0435,-5.7739
2070,1.916,-8.5071,-3.1039,-26.8522,-106.6435,-5.4957
2075,1.9543,-8.7754,-3.2189,-27.7565,-107.7565,-4.9391
2080,2.031,-8.8137,-3.4105,-27.7565,-107.7565,-4.9391
2085,2.031,-8.8903,-3.4871,-26.9217,-106.8522,-4.8696
2090,1.9927,-8.737,-3.5638,-25.113,-104.8348,-4.9391
2095,1.9927,-8.737,-3.6787,-22.9565,-102.1217,-4.6609
2100,2.0693,-8.6221,-3.6404,-21.0087,-98.7826,-4.7304
2105,1.9927,-8.4688,-3.7554,-19.4087,-95.3043,-4.3826
2110,2.0693,-8.2389,-3.7171,-17.7391,-91.8957,-4.2435
2115,2.2226,-8.0856,-3.7554,-15.7217,-88.6957,-3.8957
2120,2.2226,-7.779,-3.7554,-14.0522,-86.0522,-3.8261
2125,2.1076,-7.5108,-3.7171,-12.8696,-84.3826,-3.2696
2130,2.2226,-7.2425,-3.6787,-12.0348,-83.2696,-2.6435
2135,2.3759,-6.8977,-3.7554,-11.4087,-83.2,-1.3913
2140,2.3375,-6.5528,-3.6787,-11.5478,-83.4783,-0.4174
2145,2.3759,-6.3995,-3.6021,-12.5217,-84.3826,0.7652
2150,2.5291,-6.3612,-3.6787,-13.4261,-85.7043,1.7391
2155,2.4525,-6.3995,-3.6787,-14.4,-87.1652,3.3391
2160,2.0693,-6.3612,-3.6404,-15.3043,-88.5565,4.2435
2165,1.5711,-6.5145,-3.4488,-16.5565,-90.4348,5.0087
2170,0.958,-6.6677,-3.3722,-18.3652,-94.1913,5.2174
2175,0.3449,-6.7827,-3.2955,-20.7304,-99.8261,5.5652
2180,-0.1533,-7.1276,-3.4871,-23.2348,-107.2696,5.5652
2185,-0.3832,-7.3575,-3.8704,-26.2261,-116.7304,6.1913
2190,-0.4215,-7.7407,-4.5218,-32.1391,-122.4348,7.3043
2195,-0.2299,-8.1239,-5.1349,-37.9826,-125.1478,9.8087
2200,0.3832,-8.852,-6.1696,-43.8957,-124.2435,13.2174
2205,0.8047,-9.3885,-6.9743,-49.3913,-119.0957,17.3913
2210,1.3029,-10.0782,-7.4341,-53.913,-110.1217,21.8435
2215,1.8011,-11.1512,-7.8557,-56.8348,-97.2522,26.2957
2220,1.8011,-12.2625,-7.4725,-56.4174,-82.2957,29.7739
2225,1.6478,-12.9139,-6.7444,-51.7565,-67.5478,31.6522
2230,0.2682,-13.6804,-6.0929,-42.9217,-55.2348,31.513
2235,-2.4525,-14.4084,-5.02,-31.513,-49.2522,29.8435
2240,-5.5564,-15.5964,-4.2919,-17.7391,-55.2348,27.687
2245,-7.0893,-17.589,-4.1386,4.0348,-83.4087,28.313
2250,-6.3612,-18.662,-5.5948,26.9913,-113.3217,31.7913
2255,-3.947,-19.3518,-9.0436,50.7826,-121.3913,38.887
2260,-0.3066,-19.8499,-12.6457,65.6696,-88.8348,47.1652
2265,3.8704,-20.693,-14.83,64.2087,-22.2609,51.5478
2270,6.8593,-20.8846,-14.6,44.5217,56.0,46.6783
2275,6.2462,-21.2295,-12.4541,12.5217,123.9652,32.9043
2280,4.4068,-21.651,-9.1969,-19.4087,170.0174,16.7652
2285,3.0656,-22.3024,-6.6677,-39.513,194.2957,3.5478
2290,1.6861,-22.3791,-4.905,-44.6609,201.4609,-7.513
2295,-0.4215,-21.9959,-2.4525,-38.4696,195.9652,-17.9478
2300,-2.9123,-21.1528,0.2682,-22.6783,175.0261,-23.7913
2305,-4.79,-19.8116,2.3375,-3.1304,147.2696,-26.5043
2310,-6.4378,-18.0489,2.6441,22.2609,113.1826,-26.6435
2315,-7.0126,-16.1329,0.9197,50.713,78.9565,-24.3478
2320,-6.6677,-14.0252,-1.5711,77.0783,50.9217,-20.1043
2325,-5.748,-11.9559,-4.2536,97.6,33.5304,-14.6783
2330,-5.0966,-10.3082,-5.2882,109.913,28.313,-8.9043
2335,-3.9853,-8.5454,-6.1313,113.3913,33.2522,-3.1304
2340,-3.1423,-7.3958,-5.8247,107.6174,44.2435,1.8783
2345,-2.874,-6.6294,-4.6368,94.6783,57.3217,5.4261
2350,-3.1039,-6.0163,-3.1806,78.4,67.687,8.3478
2355,-3.6021,-5.6331,-1.8011,57.4609,70.6783,10.1565
2360,-4.1769,-5.3265,-0.8047,41.113,63.8609,11.8261
2365,-4.5218,-5.3265,-0.5748,27.0609,49.6,13.1478
2370,-4.79,-5.02,-0.9197,15.7913,32.6261,14.3304
2375,-5.0583,-4.9433,-1.7244,6.1913,17.0435,15.5826
2380,-5.1349,-4.8667,-2.2609,-2.9913,5.4261,17.7391
2385,-5.3648,-5.0583,-2.6824,-11.4087,-1.113,20.0348
2390,-5.4798,-5.2882,-2.9123,-17.6696,-2.1565,23.3043
2395,-5.5564,-5.6331,-2.6441,-20.8,1.4609,26.5043
2400,-5.4032,-6.1313,-2.2992,-20.6609,7.9304,30.1913
2405,-4.9816,-6.3229,-1.9927,-17.9478,15.4435,33.4609
2410,-4.6368,-6.5528,-1.7627,-12.8696,23.7913,35.2696
2415,-3.832,-6.7444,-1.8011,-9.1826,29.7043,35.4087
2420,-3.1423,-7.0126,-1.7244,-8.3478,34.5043,34.2957
2425,-2.5675,-7.2425,-1.4562,-10.2957,37.1478,31.5826
2430,-2.2609,-7.4725,-1.4179,-14.4,37.4957,28.3826
2435,-2.0693,-8.0473,-1.2263,-19.687,35.6174,24.2783
2440,-1.8394,-8.5071,-1.3029,-24.4174,31.7913,20.4522
2445,-1.7627,-9.0436,-1.7244,-27.8957,26.087,16.2783
2450,-1.7244,-9.5034,-1.8777,-29.7043,19.2696,12.313
2455,-1.5711,-9.8483,-2.3759,-30.6783,12.3826,8.4174
2460,-1.8394,-10.2315,-2.7591,-31.4435,6.1913,4.313
2465,-1.916,-10.6147,-3.2189,-32.0696,0.6261,1.3217
2470,-2.3375,-10.9596,-2.9507,-31.4435,-2.713,-0.6957
2475,-2.6441,-11.3045,-3.0656,-29.0783,-5.6348,-2.2261
2480,-2.874,-11.4961,-2.7207,-24.6957,-8.8348,-2.7826
2485,-2.989,-11.6877,-2.4908,-18.2957,-12.0348,-3.2
2490,-3.0273,-11.6111,-2.4525,-10.5043,-15.1652,-3.3391
2495,-3.1039,-11.3428,-2.4525,-2.5739,-17.6696,-3.7565
2500,-3.0656,-11.3811,-2.3375,4.9391,-18.9217,-3.5478
2505,-3.1806,-11.0746,-2.5675,11.2,-19.7565,-3.4783
2510,-3.1423,-10.883,-2.7974,16.2087,-20.3826,-3.0609
2515,-2.874,-10.5381,-2.7974,20.4522,-21.1478,-2.9217
2520,-2.6824,-10.2698,-2.8357,24.487,-21.6348,-2.4348
2525,-2.2609,-9.9633,-2.7591,26.713,-21.5652,-2.6435
2530,-1.6861,-9.6184,-2.7591,27.8261,-21.0783,-2.7826
2535,-1.2263,-9.3118,-2.7974,27.6174,-19.7565,-3.3391
2540,-0.9197,-8.852,-2.9123,25.9478,-17.6696,-3.4087
2545,-0.8047,-8.4688,-3.0273,22.6783,-15.513,-3.8261
2550,-0.5365,-8.3538,-3.0273,18.6435,-14.1913,-4.1739
2555,-0.3832,-8.1622,-3.0273,14.6087,-13.3565,-5.0783
2560,-0.2299,-8.1239,-3.2572,10.9913,-12.8696,-5.5652
2565,0.115,-8.2389,-3.2189,7.513,-11.7565,-6.2609
2570,0.1916,-8.4305,-2.9507,4.1043,-10.2261,-6.8174
2575,0.3449,-8.4688,-3.0273,0.1391,-8.1391,-7.7217
2580,0.2299,-8.737,-2.6441,-2.5043,-6.6087,-8.4174
2585,0.1916,-9.1202,-2.4525,-3.8261,-5.4261,-9.3913
2590,0.1533,-9.2352,-2.4142,-3.7565,-3.8957,-10.0174
2595,0.1533,-9.3885,-2.3375,-2.5739,-2.087,-10.713
2600,0.0766,-9.3118,-2.3375,-0.9043,-0.3478,-11.2
2605,-0.0383,-9.2735,-2.4142,0.6261,1.5304,-12.1043
2610,-0.3832,-9.2352,-2.2609,1.9478,3.0609,-12.7304
2615,-0.4598,-9.1202,-2.2992,3.4087,3.8957,-13.7739
2620,-0.7664,-8.8137,-2.4525,5.287,4.6609,-14.6087
2625,-0.958,-8.6221,-2.4142,6.887,5.287,-15.3043
2630,-1.2263,-8.3921,-2.6058,8.0,6.3304,-15.5826
2635,-1.6095,-8.2005,-2.5291,8.487,7.3739,-15.5826
2640,-1.8011,-8.1239,-2.6058,7.9304,8.3478,-14.9565
2645,-2.2992,-7.9706,-2.7207,6.9565,9.0435,-14.1913
2650,-2.4142,-7.894,-2.4908,5.3565,9.1826,-12.8696
2655,-2.4908,-8.0473,-2.2609,3.4783,8.4174,-11.3391
2660,-2.7591,-8.2389,-2.2609,1.6696,7.4435,-9.3217
2665,-2.6058,-8.5071,-2.1843,-0.4174,5.8435,-7.5826
2670,-2.5675,-8.8137,-2.2226,-2.4348,4.1739,-5.8435
2675,-2.4142,-9.0436,-2.3375,-4.313,2.7826,-4.4522
2680,-2.3375,-9.3885,-2.4908,-6.0522,2.1565,-3.2696
2685,-2.031,-9.7717,-2.6824,-7.6522,2.2261,-2.5739
2690,-1.9927,-9.8866,-3.0656,-9.3217,2.9913,-2.087
2695,-1.8011,-10.1166,-2.989,-10.5739,4.5217,-2.087
2700,-1.6861,-10.1166,-3.1423,-11.4783,6.6087,-2.2261
2705,-1.4179,-10.4231,-2.9507,-11.687,8.8348,-2.7826
2710,-1.1496,-10.4998,-2.874,-10.6435,11.2,-3.8261
2715,-1.3412,-10.4231,-2.9507,-8.3478,13.3565,-5.0783
2720,-1.3029,-10.4231,-2.6441,-4.8696,14.887,-6.2609
2725,-1.3412,-10.3848,-2.6441,-0.4174,15.7913,-7.2348
2730,-1.3795,-10.3465,-2.6058,4.8696,16.0696,-8.0
2735,-1.6478,-10.0782,-2.5291,10.6435,16.2087,-8.4174
2740,-1.5328,-9.9633,-2.7207,16.487,16.2087,-8.6261
2745,-1.7244,-9.695,-2.7207,22.3304,15.7913,-8.5565
2750,-1.8011,-9.5418,-2.7974,26.1565,15.7217,-8.2783
2755,-1.6861,-9.3118,-2.9123,28.6609,16.4174,-7.8609
2760,-1.8011,-9.0053,-3.0656,29.4957,17.6696,-7.3739
2765,-1.7244,-8.6604,-3.1806,28.8,19.5478,-6.8174
2770,-1.6861,-8.6987,-3.0656,26.7826,21.913,-6.4
2775,-1.4179,-8.6221,-2.989,23.9304,24.1391,-5.8435
2780,-1.4562,-8.6221,-2.7207,20.5913,25.9478,-5.6348
2785,-1.2646,-8.737,-2.6441,17.113,27.1304,-5.287
2790,-1.1879,-8.8137,-2.4525,13.913,27.7565,-5.2174
2795,-0.9963,-9.0053,-2.2609,11.4087,28.0348,-5.0783
2800,-0.958,-9.0436,-2.0693,9.5304,28.0348,-5.287
2805,-0.958,-9.1586,-2.0693,8.9739,27.6174,-5.4957
2810,-0.843,-9.2352,-2.1076,9.1826,26.8522,-6.0522
2815,-0.7664,-9.1586,-2.1843,10.1565,26.5739,-6.3304
2820,-0.8047,-9.2352,-2.2226,11.687,26.9217,-6.7478
2825,-0.6898,-9.0819,-2.4142,13.4261,28.1739,-6.6783
2830,-0.7281,-8.967,-2.4142,15.0261,29.9826,-6.887
2835,-0.4982,-8.967,-2.4142,16.0696,32.0696,-7.1652
2840,-0.5748,-8.9286,-2.3759,16.8348,34.2261,-7.6522
2845,-0.4982,-8.8903,-2.2992,17.113,36.1739,-8.0
2850,-0.4598,-8.967,-2.5675,16.7652,37.4957,-9.1826
2855,-0.4982,-8.967,-2.4908,15.1652,38.9565,-10.2261
2860,-0.5365,-9.0819,-2.3375,13.7043,40.0696,-11.4087
2865,-0.5365,-9.0819,-2.3759,12.4522,40.8348,-12.3826
2870,-0.7281,-9.1969,-2.1843,11.2,41.113,-13.7043
2875,-0.8047,-9.3118,-2.1459,9.8783,41.0435,-14.6087
2880,-0.958,-9.3885,-2.0693,8.9043,40.487,-15.3739
2885,-0.958,-9.6184,-1.9927,8.0,39.5826,-15.7217
2890,-1.2646,-9.4651,-2.1076,7.0957,38.4,-16.3478
2895,-1.4945,-9.5418,-2.031,6.5391,37.0087,-16.2783
2900,-1.6861,-9.4651,-2.2609,6.1913,35.6174,-16.487
2905,-1.7244,-9.7717,-2.1459,6.3304,34.4348,-16.1391
2910,-1.8394,-9.81,-2.3375,6.5391,33.6,-16.0
2915,-1.9927,-9.925,-2.3759,6.7478,33.5304,-15.513
2920,-1.8777,-9.8483,-2.2992,7.2348,33.9478,-15.3739
2925,-1.6861,-10.0016,-1.6861,7.9304,34.6435,-15.4435
2930,-1.8777,-9.8866,-2.4908,8.5565,35.2696,-16.0696
2935,-1.7244,-9.8866,-2.7207,9.4609,36.0348,-16.487
2940,-1.6095,-9.7717,-2.7591,10.4348,37.2174,-16.9043
2945,-1.6478,-9.695,-2.989,10.7826,38.3304,-16.8348
2950,-1.6478,-9.3885,-3.7171,10.0174,38.7478,-17.113
2955,-1.4179,-9.3502,-3.832,7.8609,39.0261,-16.9739
2960,-1.4945,-9.2735,-3.9087,5.4261,39.7217,-16.4174
2965,-1.3795,-9.3885,-3.9087,1.9478,40.5565,-15.1652
2970,-1.3412,-9.5034,-3.4871,-0.487,40.7652,-14.1217
2975,-1.1879,-9.6184,-3.1806,-1.4609,40.2087,-12.6609
2980,-1.073,-9.695,-2.989,-1.3217,38.5391,-11.3391
2985,-1.1496,-9.695,-2.4908,0.2783,35.8957,-9.7391
2990,-1.1113,-9.8866,-2.4142,3.2,32.6261,-8.2087
2995,-1.1113,-9.6567,-2.3375,7.0957,29.1478,-5.913
