timestamp,accX,accY,accZ,gyroX,gyroY,gyroZ
0,-1.8777,-10.5381,-2.1459,24.7652,34.7826,-8.7652
5,-2.4525,-10.5381,-2.2992,24.487,31.3043,-10.3652
10,-2.989,-10.4231,-2.2226,23.4435,26.2957,-11.9652
15,-3.2955,-10.4614,-1.916,21.1478,21.1478,-13.4261
20,-3.4488,-10.3848,-1.8394,19.4087,15.3043,-14.2609
25,-3.6021,-10.4614,-1.8394,17.3913,9.113,-14.9565
30,-3.4105,-10.4614,-1.5328,15.1652,3.0609,-15.3043
35,-3.1806,-10.5381,-1.5328,13.0087,-2.6435,-15.8609
40,-2.9507,-10.5764,-1.4179,10.5043,-7.513,-15.7913
45,-2.6441,-10.768,-1.6478,7.9304,-11.8261,-16.1391
50,-2.1459,-10.883,-1.6095,6.1913,-15.513,-16.2087
55,-1.8011,-11.0363,-1.6478,5.9826,-18.7826,-17.113
60,-1.6095,-11.0746,-1.6095,6.8174,-22.0522,-18.1565
65,-1.3412,-11.0363,-1.4562,8.5565,-24.6957,-19.5478
70,-1.1113,-10.883,-1.4945,9.7391,-26.9217,-20.8696
75,-0.7281,-10.8446,-1.6478,10.2261,-28.6609,-22.7478
80,-0.6514,-10.653,-1.5711,9.8783,-29.9826,-24.7652
85,-0.4982,-10.653,-1.5328,9.2522,-30.7478,-26.9913
90,-0.4598,-10.4998,-1.4179,8.5565,-31.2348,-28.8
95,-0.3066,-10.5381,-1.3412,8.2087,-31.6522,-30.4696
100,-0.0766,-10.2698,-1.4179,7.7913,-32.0,-31.7217
105,0.0,-9.8483,-1.4179,7.1652,-32.0,-32.9739
110,0.1533,-9.6567,-1.6095,6.1217,-30.9565,-33.6
115,0.1916,-9.4268,-1.5711,5.2174,-29.4957,-34.4348
120,0.115,-9.1202,-1.6861,4.4522,-27.7565,-35.0609
125,0.115,-9.0436,-1.4562,3.3391,-26.087,-35.7565
130,-0.115,-8.9286,-1.5328,1.8783,-24.6261,-36.1739
135,-0.1533,-8.737,-1.5328,-0.1391,-23.7217,-36.6609
140,0.0383,-8.7754,-1.5711,-2.3652,-23.1652,-36.8
145,0.1916,-8.8137,-1.3029,-4.5913,-22.7478,-36.8696
150,0.3449,-8.852,-1.1496,-6.4,-22.2609,-36.7304
155,0.3832,-8.9286,-1.1496,-7.7217,-21.8435,-36.8
160,0.4982,-8.967,-1.0346,-8.6957,-21.4957,-36.5217
165,0.7281,-9.2352,-1.1879,-9.2522,-21.0783,-36.2435
170,0.843,-9.1969,-1.1496,-10.2957,-20.4522,-35.8957
175,1.0346,-9.3885,-1.1496,-11.4087,-19.3391,-35.8957
180,1.1879,-9.3885,-1.1113,-12.5913,-17.8783,-35.7565
185,1.3795,-9.4268,-1.073,-13.287,-16.2783,-35.9652
190,1.4562,-9.3885,-0.9197,-13.287,-14.7478,-35.8957
195,1.6861,-9.5418,-0.843,-12.5913,-13.287,-35.8957
200,1.6478,-9.6184,-0.7664,-11.5478,-12.1043,-35.687
205,1.6095,-9.4651,-0.6131,-10.6435,-10.6435,-35.3391
210,1.2263,-9.3502,-0.5365,-10.8522,-9.7391,-34.7826
215,0.9963,-9.3885,-0.6131,-12.1043,-9.3217,-33.8783
220,0.6898,-9.3885,-0.5748,-13.2174,-9.3913,-32.3478
225,0.6514,-9.4268,-0.4982,-14.5391,-9.8087,-30.9565
230,0.3066,-9.3118,-0.3832,-15.3043,-9.6696,-29.4261
235,0.1916,-9.3118,-0.5365,-15.6522,-9.2522,-27.8261
240,0.1533,-9.2735,-0.6514,-16.0696,-8.3478,-26.0174
245,0.1533,-9.3118,-0.5748,-16.487,-7.0261,-24.6261
250,0.0766,-9.3118,-0.5748,-16.7652,-5.5652,-23.0261
255,0.0766,-9.3502,-0.6514,-16.2783,-3.8957,-22.0522
260,0.2299,-9.4268,-0.4215,-15.2348,-2.6435,-21.0087
265,0.3066,-9.5034,-0.4215,-13.9826,-1.6696,-20.1043
270,0.2682,-9.4651,-0.2299,-13.3565,-1.1826,-19.2
275,0.3449,-9.5034,-0.2299,-12.8,-1.1826,-18.5043
280,0.3832,-9.5801,0.0383,-12.7304,-1.113,-17.7391
285,0.5365,-9.6184,0.0,-12.7304,-1.2522,-17.2522
290,0.4982,-9.6184,0.0383,-12.9391,-1.3913,-16.6261
295,0.3449,-9.695,0.0383,-13.2174,-1.3913,-16.6261
300,0.3449,-9.6567,0.0766,-13.913,-1.2522,-15.7913
305,0.3832,-9.5418,0.0383,-14.6087,-1.3913,-15.4435
310,0.3832,-9.5034,0.0766,-15.1652,-1.3913,-15.3043
315,0.4215,-9.4268,0.0766,-15.3739,-1.3913,-14.9565
320,0.4598,-9.3502,0.115,-15.5826,-1.4609,-14.4696
325,0.5748,-9.3502,0.2682,-16.1391,-1.6696,-14.0522
330,0.5365,-9.2735,0.1533,-17.113,-1.8087,-13.4261
335,0.6131,-9.5418,0.115,-18.3652,-1.9478,-12.8696
340,0.6898,-9.695,0.3066,-19.2,-2.3652,-12.1043
345,0.6898,-9.8866,0.2682,-19.2696,-2.8522,-11.2696
350,0.7281,-9.9633,0.2682,-18.5043,-3.687,-10.6435
355,0.7281,-9.9633,0.2299,-17.6,-4.5217,-9.8783
360,0.7281,-10.0016,-0.0383,-16.6957,-5.4261,-9.2522
365,0.6898,-9.9633,0.0766,-16.0696,-5.8435,-8.6957
370,0.4982,-9.925,-0.0383,-15.7913,-6.0522,-8.3478
375,0.4982,-10.1932,0.115,-15.2348,-6.4696,-8.1391
380,0.2299,-10.1932,0.4215,-14.1913,-7.1652,-7.513
385,0.2682,-10.3465,0.4982,-12.5217,-7.7913,-6.9565
390,0.115,-10.4231,0.5748,-10.6435,-8.5565,-6.1913
395,0.0,-10.3848,0.4598,-9.7391,-9.6696,-5.4261
400,0.0,-10.4998,0.1533,-9.7391,-11.2696,-4.8696
405,0.0766,-10.5381,0.0766,-10.5739,-12.6609,-4.3826
410,0.1533,-10.5764,0.0,-11.6174,-13.9826,-4.0348
415,0.2682,-10.653,-0.1533,-12.7304,-15.0957,-3.9652
420,0.115,-10.768,-0.0766,-13.9826,-15.7913,-4.0348
425,0.3832,-11.0363,0.0,-14.887,-16.2783,-4.2435
430,0.4215,-11.1512,0.0383,-14.7478,-16.8348,-4.4522
435,0.5365,-11.2662,0.3832,-13.3565,-16.8348,-4.8
440,0.5748,-11.3428,0.2682,-11.3391,-16.2783,-5.1478
445,0.4982,-11.3428,0.1533,-9.6,-15.6522,-5.9826
450,0.4598,-11.1512,0.4215,-8.3478,-15.7217,-6.8174
455,0.5365,-11.0363,0.3832,-8.0696,-16.4174,-7.6522
460,0.843,-10.9979,0.5365,-8.3478,-17.4609,-8.6261
465,0.8814,-10.9596,0.5365,-8.7652,-18.3652,-9.6
470,0.9197,-10.9596,0.5748,-8.8348,-18.9217,-10.5043
475,0.843,-10.9213,0.5748,-8.3478,-19.4783,-11.4783
480,0.843,-10.9979,0.9963,-7.3739,-20.1739,-12.313
485,0.843,-11.0746,1.073,-5.913,-21.0087,-13.1478
490,0.5365,-11.0746,1.073,-4.5913,-21.6348,-14.0522
495,0.3066,-11.1895,1.2263,-3.687,-23.3043,-14.6087
500,0.115,-11.4195,1.1113,-4.1739,-26.3652,-15.1652
505,0.3832,-11.7643,1.1879,-5.4957,-30.9565,-15.3739
510,0.4982,-12.1092,0.843,-7.7913,-36.313,-15.9304
515,0.7281,-12.1475,0.0766,-11.0609,-40.487,-17.113
520,0.4982,-12.1475,-0.8047,-15.7217,-42.5043,-18.5043
525,0.4982,-12.7223,-1.3412,-19.5478,-41.8087,-20.1043
530,0.5365,-13.0289,-0.958,-19.4087,-38.8174,-21.7739
535,0.8047,-13.2205,-0.7664,-13.7043,-34.2957,-23.2348
540,1.073,-12.9906,-0.5365,-5.5652,-29.3565,-24.5565
545,1.1496,-12.6074,-0.5365,1.7391,-27.4087,-25.3913
550,1.4562,-12.1475,-0.7664,2.8522,-27.8957,-26.087
555,1.8777,-11.9943,-1.1496,0.5565,-29.5652,-26.4348
560,2.1843,-11.9559,-1.5328,-3.4783,-30.7478,-27.0609
565,2.5291,-11.8793,-1.9543,-7.0957,-30.6087,-28.0348
570,2.989,-12.1092,-2.1843,-8.9739,-29.0087,-29.3565
575,2.8357,-12.1092,-2.4525,-8.2783,-25.6,-30.5391
580,2.7974,-11.9943,-2.7207,-5.0783,-21.3565,-31.6522
585,2.6824,-11.841,-2.6441,-0.9739,-17.0435,-33.0435
590,2.5291,-11.4961,-2.7974,2.5739,-13.6348,-34.5043
595,2.4142,-11.3045,-2.8357,5.0087,-11.8957,-35.3391
600,2.1843,-11.1512,-2.6824,6.2609,-11.0609,-36.0348
605,2.031,-10.9213,-2.874,7.9304,-10.6435,-36.1739
610,1.7244,-10.6147,-3.0656,10.1565,-10.2957,-36.1043
615,1.5328,-10.4231,-3.2189,12.8696,-10.2261,-35.4783
620,1.073,-9.9633,-3.3339,15.7217,-10.5043,-34.6435
625,0.7281,-9.5418,-3.4105,18.1565,-10.9217,-33.4609
630,0.2299,-9.1202,-3.6787,20.1739,-11.5478,-31.9304
635,-0.1533,-8.852,-3.6021,22.0522,-12.4522,-29.3565
640,-0.3066,-8.737,-3.3339,24.2783,-13.8435,-26.6435
645,-0.4215,-8.5454,-3.0273,25.9478,-15.6522,-23.3739
650,-0.5365,-8.5454,-2.9507,26.7826,-18.087,-20.1043
655,-0.3832,-8.6221,-2.7207,26.5043,-20.3826,-16.7652
660,-0.7664,-8.6987,-2.7591,25.113,-22.6087,-13.9826
665,-0.9963,-8.737,-3.0656,22.3304,-24.9043,-11.2696
670,-0.958,-9.0053,-2.989,18.4348,-27.4783,-9.0435
675,-0.843,-9.1969,-2.989,13.7739,-29.9826,-6.7478
680,-0.4982,-9.6567,-2.7974,10.0174,-31.8609,-4.7304
685,-0.4598,-9.8866,-2.6824,7.7217,-32.8348,-2.5043
690,-0.1916,-10.2315,-2.3375,6.6087,-33.3217,-1.113
695,0.1916,-10.5381,-2.2609,6.6783,-33.5304,0.5565
700,0.5748,-10.768,-1.9927,7.6522,-33.4609,1.7391
705,0.8047,-10.8446,-1.6861,8.487,-33.0435,3.2696
710,1.0346,-10.9596,-1.6861,9.4609,-32.2783,4.6609
715,1.3029,-11.1129,-1.6861,10.8522,-31.3043,5.8435
720,1.3029,-10.9979,-1.7244,12.313,-29.9826,7.0261
725,1.3412,-10.9596,-1.6861,13.3565,-28.7304,8.4174
730,1.1879,-10.8063,-1.7244,13.7739,-27.8261,9.5304
735,1.1113,-10.8063,-1.7627,13.7043,-26.8522,11.1304
740,1.2646,-10.883,-1.7627,13.3565,-25.9478,12.6609
745,1.2263,-10.8063,-1.6478,12.8696,-24.6261,14.1913
750,1.1879,-10.8063,-1.5711,12.8696,-22.8174,15.7217
755,1.1113,-10.7297,-1.6095,13.2174,-20.6609,17.5304
760,1.1113,-10.4231,-1.7244,13.3565,-18.4348,18.7826
765,1.1496,-10.1932,-1.6478,12.3826,-16.6957,19.8957
770,1.1879,-10.1549,-1.7244,10.0174,-15.2348,20.7304
775,1.1879,-10.0782,-1.6095,6.8174,-13.5652,21.4957
780,1.3795,-10.1549,-1.8011,3.4783,-11.4087,22.4
785,1.3412,-10.3465,-1.6478,-0.2087,-8.7652,23.4435
790,1.5328,-10.3082,-1.5711,-1.8783,-6.3304,24.3478
795,1.6095,-10.3082,-1.5328,-2.4348,-3.8261,25.3217
800,1.6095,-10.3082,-1.4945,-2.5043,-1.5304,26.3652
805,1.7244,-10.2315,-1.4562,-2.0174,1.1826,27.3391
810,1.7627,-10.3082,-1.2646,-1.6,3.8261,28.0348
815,1.5711,-10.1549,-1.1496,-0.9043,6.6087,28.7304
820,1.4945,-10.0016,-1.1496,-0.2783,8.7652,29.2174
825,1.4945,-9.925,-1.3029,0.2087,10.2261,29.7739
830,1.3412,-9.7717,-1.1879,0.9043,11.1304,30.6087
835,1.2263,-9.7334,-1.2646,2.1565,12.1739,31.7217
840,1.1113,-9.6567,-0.9963,3.6174,13.287,32.3478
845,0.8814,-9.5034,-0.7281,5.0087,14.5391,33.0435
850,0.7281,-9.4268,-0.6514,6.3304,15.513,33.6
855,0.5748,-9.3118,-0.7664,7.0261,15.9304,34.2261
860,0.4215,-9.1969,-0.7664,7.2348,16.0696,34.7826
865,0.1533,-9.1586,-0.6514,7.1652,16.2783,35.1304
870,0.0383,-9.1969,-0.3832,6.9565,16.487,34.9913
875,-0.1916,-9.0436,-0.4982,6.7478,16.6957,35.1304
880,-0.4598,-9.0053,-0.5748,6.2609,16.9739,34.5043
885,-0.7281,-8.8137,-0.5365,4.7304,17.0435,34.087
890,-0.8814,-8.9286,-0.1916,2.8522,16.6261,33.3217
895,-0.958,-8.852,-0.1916,0.5565,15.8609,32.7652
900,-1.1113,-8.852,-0.0383,-2.087,14.9565,31.7913
905,-0.9963,-8.967,-0.0383,-4.7304,13.7043,31.1652
910,-0.8047,-9.0053,0.0383,-7.1652,12.3826,30.1217
915,-0.8814,-8.8903,0.0383,-9.4609,10.9217,29.3565
920,-0.7664,-9.0436,0.0,-11.4087,9.3913,28.5217
925,-0.5365,-9.6567,-0.1916,-13.5652,7.8609,27.5478
930,-0.4598,-9.2735,0.115,-15.7217,5.9826,26.7826
935,-0.4982,-9.5801,0.0383,-16.9739,4.1739,26.4348
940,-0.4598,-9.5418,0.0,-17.6696,2.5043,25.8087
945,-0.4598,-9.7334,0.0,-17.9478,0.6261,25.2522
950,-0.3832,-9.7717,-0.2682,-17.7391,-0.8348,24.2783
955,-0.2299,-10.0016,-0.2299,-17.8783,-1.6,23.3739
960,-0.0383,-10.0399,-0.3066,-17.9478,-1.4609,22.1913
965,0.0,-10.2315,-0.4598,-17.7391,-0.6957,21.1478
970,0.0383,-10.2315,-0.3832,-17.113,0.4174,19.9652
975,0.0766,-10.4231,-0.6131,-16.2087,1.6,19.0609
980,0.1533,-10.2698,-0.4598,-14.4696,2.9913,18.2957
985,0.2682,-10.1549,-0.4215,-13.1478,4.1043,17.7391
990,0.2299,-10.0016,-0.4215,-12.2435,5.0087,17.1826
995,0.1916,-10.0782,-0.1916,-11.687,5.4261,16.9043
1000,0.1916,-9.8866,-0.1533,-11.7565,5.4957,16.487
1005,0.115,-9.81,-0.115,-12.6609,4.5913,16.7652
1010,-0.0766,-9.81,-0.1533,-14.1217,2.9913,17.1826
1015,0.0383,-9.6567,-0.4598,-15.7913,1.3217,18.087
1020,0.0,-9.81,-0.5365,-17.6696,-0.5565,18.9913
1025,0.0383,-9.8483,-0.6514,-18.5739,-2.087,20.2435
1030,0.115,-10.0399,-0.5748,-18.4348,-2.1565,20.9391
1035,0.0,-10.0782,-0.7664,-17.113,-1.113,21.8435
1040,-0.1533,-9.9633,-0.7281,-15.3739,0.4174,22.4696
1045,-0.1533,-9.9633,-0.7281,-14.2609,2.087,23.0957
1050,-0.115,-9.81,-0.6131,-13.7739,3.6174,23.3739
1055,-0.1916,-9.7717,-0.4982,-14.3304,5.287,23.7913
1060,-0.2299,-9.695,-0.2682,-15.513,6.8174,23.8609
1065,-0.2682,-9.7717,-0.3832,-17.1826,8.6261,24.0
1070,-0.3449,-9.81,-0.0383,-18.7826,10.0174,23.7913
1075,-0.3066,-10.0399,-0.0383,-20.7304,10.9217,23.7217
1080,-0.3449,-9.9633,0.0,-22.4,11.0609,23.3739
1085,-0.4215,-10.0782,0.0,-24.2087,11.2,23.2348
1090,-0.4215,-10.3082,0.0766,-25.9478,11.6174,22.6087
1095,-0.4598,-10.3465,0.0383,-27.5478,12.0348,22.2609
1100,-0.4598,-10.5764,0.0383,-29.287,12.1739,21.3565
1105,-0.4982,-10.6147,0.0383,-30.6087,12.1739,20.8696
1110,-0.4598,-10.8446,0.0,-31.0957,12.1043,20.1739
1115,-0.5365,-10.9596,-0.115,-30.5391,12.1739,19.8957
1120,-0.6514,-11.1129,-0.2299,-28.8696,12.7304,19.4783
1125,-0.6898,-10.9596,-0.115,-26.3652,13.4957,19.1304
1130,-0.6898,-10.9596,0.0,-24.2087,14.2609,18.7826
1135,-0.6898,-10.9213,0.0,-22.7478,14.6783,18.7826
1140,-0.9197,-10.7297,0.0,-21.9826,14.6087,18.5739
1145,-0.9197,-10.653,-0.115,-21.7043,14.0522,18.8522
1150,-0.8047,-10.768,0.0383,-21.1478,13.287,18.9217
1155,-0.9197,-10.7297,0.0766,-19.9652,12.5913,19.687
1160,-0.8814,-10.6914,-0.0383,-18.5043,12.1043,20.1739
1165,-0.8814,-10.883,0.0,-17.3913,11.6174,20.9391
1170,-0.7281,-10.8446,0.0,-16.6957,10.8522,21.4957
1175,-0.6898,-10.768,0.0766,-16.4174,10.5043,22.6783
1180,-0.6131,-10.883,0.0383,-16.5565,10.8522,23.5826
1185,-0.4598,-10.8063,0.2299,-16.6957,11.9652,24.3478
1190,-0.4598,-10.8446,0.2682,-16.7652,13.287,24.4174
1195,-0.4215,-10.8446,0.2682,-16.7652,14.3304,24.9739
1200,-0.4215,-10.9213,0.4215,-16.8348,14.9565,25.2522
1205,-0.3066,-10.9979,0.3449,-16.9739,15.513,25.8783
1210,-0.2682,-10.9213,0.4215,-16.9739,16.7652,25.8783
1215,-0.2682,-10.9596,0.4982,-16.7652,18.7826,26.087
1220,-0.2299,-10.9979,0.8047,-16.6261,20.4522,25.8087
1225,-0.4215,-11.0746,1.0346,-16.4174,21.5652,26.0174
1230,-0.4598,-10.9596,1.1879,-16.4174,21.7739,25.9478
1235,-0.4598,-10.9213,1.3029,-16.487,21.5652,26.4348
1240,-0.7664,-10.8063,1.1879,-16.9043,21.5652,26.5739
1245,-0.4598,-10.653,1.3412,-17.5304,21.7043,27.0609
1250,-0.5748,-10.5764,1.2646,-18.1565,21.913,26.9913
1255,-0.4598,-10.3465,0.843,-19.2696,22.4,26.713
1260,-0.4215,-10.1549,0.7281,-20.6609,23.1652,26.5739
1265,-0.115,-10.0782,0.6131,-22.3304,24.6957,26.713
1270,0.0766,-10.0782,0.4982,-23.8609,26.5043,26.5043
1275,-0.115,-10.0782,0.7281,-24.4174,28.5217,26.7826
1280,-0.1916,-10.1166,1.0346,-23.5826,30.0522,26.9217
1285,-0.3832,-10.1932,0.958,-21.7043,30.9565,27.6174
1290,-0.5365,-10.0782,0.9963,-19.8261,31.3043,28.0348
1295,-0.4598,-9.8866,0.9197,-17.9478,31.6522,28.6609
1300,-0.6898,-9.5418,0.9197,-16.2783,32.5565,28.9391
1305,-0.6131,-9.2735,0.6131,-14.6783,34.087,29.3565
1310,-0.5365,-8.967,0.6131,-13.3565,35.6174,29.4261
1315,-0.4982,-8.5838,0.4982,-12.1739,37.4957,29.4261
1320,-0.4215,-8.3155,0.5748,-11.687,39.2348,28.9391
1325,-0.4215,-8.0856,0.5365,-11.1304,40.8348,28.5913
1330,-0.3066,-7.9323,0.5748,-10.5739,42.2957,27.7565
1335,-0.4215,-7.779,0.7281,-9.6696,43.5478,27.3391
1340,-0.5748,-7.4725,0.4982,-8.7652,45.2174,26.6435
1345,-0.958,-7.1659,0.4215,-7.8609,47.2348,26.4348
1350,-1.6478,-6.8977,0.2299,-6.9565,48.8348,25.8087
1355,-2.1459,-6.5528,-0.3832,-6.8174,49.113,25.5304
1360,-2.7974,-6.6294,-0.958,-8.7652,46.8174,24.8348
1365,-3.2189,-6.5911,-1.3412,-14.4696,41.8087,24.6957
1370,-3.3339,-6.9743,-1.916,-21.6348,34.4348,23.4435
1375,-3.0656,-7.2042,-2.2226,-29.1478,26.2261,21.8435
1380,-2.7974,-7.6641,-2.3375,-34.7826,19.2,19.0609
1385,-2.4142,-8.0856,-1.8011,-37.3565,14.4696,16.0696
1390,-2.5675,-8.2772,-1.4562,-34.8522,11.8957,12.4522
1395,-2.7207,-8.3538,-1.5328,-27.2696,12.1043,11.9652
1400,-2.6058,-8.5454,-1.2263,-17.6,14.4696,16.9043
1405,-2.4908,-8.852,-1.3795,-9.5304,16.0696,25.3217
1410,-2.3759,-9.2352,-1.9927,-3.4783,13.913,28.7304
1415,-2.4142,-9.1969,-2.8357,-1.5304,8.9739,27.687
1420,-2.4908,-9.0053,-3.7554,-1.113,3.0609,24.2783
1425,-2.6058,-8.8903,-4.7134,-2.087,-2.1565,21.6348
1430,-2.7974,-8.967,-4.905,-4.5913,-4.6609,19.7565
1435,-2.9507,-9.4651,-5.1349,-8.7652,-4.313,18.5739
1440,-3.3339,-9.7334,-5.6331,-15.0261,-2.713,15.513
1445,-3.3722,-9.925,-6.2079,-23.9304,-0.1391,12.313
1450,-2.9507,-10.3848,-6.7827,-35.9652,3.4087,9.0435
1455,-2.4525,-10.8446,-7.4341,-49.1826,9.4609,4.8696
1460,-1.9927,-11.726,-8.2005,-63.7217,20.4522,0.6957
1465,-1.3795,-12.8373,-8.3921,-71.5826,30.0522,-2.3652
1470,-0.9963,-13.4888,-8.6604,-74.2957,38.2609,-5.0087
1475,-0.3449,-14.4851,-8.4305,-73.7391,45.4261,-7.5826
1480,-0.3066,-15.0216,-8.0856,-70.887,51.8261,-11.7565
1485,-0.2299,-15.558,-7.4725,-66.087,57.6,-17.0435
1490,-0.2682,-15.9796,-6.7444,-61.0087,60.313,-22.6087
1495,-0.2682,-16.3628,-6.5145,-58.713,58.713,-27.2696
1500,-0.4215,-16.631,-6.3229,-60.4522,53.8435,-31.6522
1505,-0.3449,-17.0525,-6.4378,-64.2087,48.3478,-36.3826
1510,0.2299,-17.2825,-6.3229,-69.0783,45.2174,-41.4609
1515,0.9963,-17.5507,-6.0546,-72.0696,44.3826,-47.2348
1520,1.1496,-17.8956,-5.6714,-74.5043,45.0783,-53.0783
1525,1.1496,-18.4321,-5.4032,-75.8261,45.287,-57.6696
1530,1.1113,-18.777,-4.7517,-76.0348,43.2696,-62.1217
1535,0.7281,-19.4284,-4.905,-75.0609,39.2348,-66.2957
1540,0.5365,-20.0032,-5.0583,-74.8522,35.4087,-70.887
1545,0.1916,-20.3864,-4.9816,-74.8522,32.8348,-75.8957
1550,-0.1916,-21.0379,-5.02,-74.2261,32.6957,-81.8783
1555,-0.8047,-21.651,-4.5601,-71.3043,33.6,-89.0435
1560,-1.4562,-22.1108,-3.5638,-67.2696,33.6,-95.4435
1565,-1.9543,-22.0725,-2.8357,-60.2435,31.7913,-102.5391
1570,-2.2226,-21.4594,-2.5291,-53.0783,28.8696,-109.9826
1575,-2.5291,-20.9229,-2.3759,-48.3478,24.9739,-116.4522
1580,-2.7591,-20.5014,-2.2226,-46.8174,20.4522,-122.6435
1585,-2.989,-20.2331,-1.916,-45.913,14.9565,-128.1391
1590,-3.2189,-19.4667,-1.2263,-43.2696,8.4174,-132.5913
1595,-3.2189,-18.7003,-0.8047,-39.1652,0.5565,-135.1652
1600,-3.0273,-17.3208,-0.7664,-33.8783,-8.2087,-137.5304
1605,-2.6824,-15.9029,-0.6131,-26.5043,-18.0174,-138.9913
1610,-2.2609,-14.2552,-0.6898,-20.0348,-24.6957,-140.313
1615,-1.6478,-12.7607,-0.6131,-13.2174,-30.0522,-140.1043
1620,-1.1496,-11.726,-0.2682,-6.1217,-34.5043,-139.0609
1625,-0.3449,-10.0782,-0.4982,0.3478,-38.7478,-136.8348
1630,0.3449,-8.4305,-0.6514,6.1913,-41.1826,-134.4696
1635,1.0346,-7.2425,-1.1113,9.7391,-41.1826,-130.9913
1640,1.6095,-6.1313,-1.4562,9.8783,-39.1652,-125.7043
1645,1.9543,-5.3648,-1.5711,6.9565,-36.3826,-118.4696
1650,2.2226,-4.79,-1.3412,2.5739,-32.0696,-107.8261
1655,2.4142,-4.1003,-0.8814,-1.4609,-27.1304,-97.0435
1660,2.3375,-3.5638,-0.4598,-1.8783,-20.3826,-85.7739
1665,1.9543,-3.1423,-0.2299,0.5565,-11.7565,-73.4609
1670,1.1496,-2.2992,-0.1916,5.0783,-2.4348,-61.5652
1675,0.6131,-1.6478,0.1533,11.0609,4.5913,-49.8087
1680,0.3066,-0.9963,0.6898,17.1826,6.7478,-40.2087
1685,-0.1533,-0.4215,0.958,19.2696,4.313,-32.8348
1690,-0.4215,0.0,1.8011,15.8609,-0.2783,-26.5043
1695,-0.3066,0.0,1.7244,13.2174,-3.3391,-19.4087
1700,-0.4215,0.3066,2.5675,6.9565,-3.7565,-12.0348
1705,-0.0383,0.3066,2.989,6.3304,-2.5043,-6.6087
1710,0.5365,0.0,2.6824,6.7478,-2.5043,-2.6435
1715,1.1496,-0.3066,2.4142,7.9304,-4.8,0.4174
1720,1.916,-0.5365,2.2992,12.4522,-8.3478,1.4609
1725,2.3759,-0.7281,1.3029,19.8261,-9.6696,1.0435
1730,2.6441,-0.6131,0.8047,28.9391,-6.4,0.0
1735,2.6441,-0.4982,0.3832,42.1565,0.6957,-0.1391
1740,2.4525,-0.4982,0.0766,56.5565,9.113,-0.5565
1745,2.3759,-0.5365,-0.1916,67.1304,16.7652,-2.2957
1750,2.4142,-0.6131,-0.0766,70.6087,23.3043,-6.0522
1755,2.4142,-0.8814,0.2682,67.7565,27.1304,-11.0609
1760,2.1459,-1.3795,0.5748,63.6522,30.6783,-15.513
1765,1.5328,-1.916,1.1113,62.2609,34.9913,-18.2957
1770,0.8047,-2.3375,1.2263,66.1565,39.1652,-20.8
1775,-0.4215,-2.6441,1.4179,74.9913,41.3913,-23.0957
1780,-1.3412,-2.4142,1.8011,87.3043,40.0696,-25.0435
1785,-2.2226,-1.9543,1.4179,100.0348,35.1304,-26.6435
1790,-2.8357,-1.4179,1.1113,109.7043,27.6174,-28.5217
1795,-3.5255,-0.958,0.7664,114.6435,18.3652,-30.1217
1800,-4.2919,-0.6514,-0.0383,115.4087,5.9826,-29.4261
1805,-4.5601,-0.5365,-1.3795,112.9739,-5.3565,-25.0435
1810,-4.3685,-0.6898,-3.0273,106.3652,-17.6696,-17.8087
1815,-2.6441,-1.3795,-4.5601,94.5391,-29.2174,-8.2087
1820,1.4945,-3.2189,-6.4378,74.7826,-40.6261,-0.0696
1825,7.9706,-5.3648,-8.0089,42.2261,-52.7304,1.3913
1830,10.3848,-7.0893,-12.8756,-1.1826,-61.287,-5.913
1835,7.5108,-8.3921,-23.5287,-51.8957,-49.5304,-17.6696
1840,0.958,-11.1512,-34.4116,-106.9913,-17.5304,-24.2087
1845,-3.4105,-15.1365,-34.2584,-167.0957,18.713,-13.287
1850,-4.3685,-19.8116,-17.9722,-246.0522,15.513,-3.4087
1855,-3.2572,-31.8059,26.5943,-232.9043,-45.6348,-7.7217
1860,-1.8011,-36.8258,21.9192,-70.9565,-111.5826,-21.2174
1865,1.8011,-35.5613,13.6037,35.687,-123.2,-22.6087
1870,1.1879,-28.2421,2.5675,56.3478,-103.513,-17.6696
1875,0.3832,-22.5323,-10.6147,55.4435,-85.0087,-17.8783
1880,0.115,-19.9649,-19.4667,46.9565,-80.8348,-21.7043
1885,1.4562,-18.4704,-24.1801,30.887,-80.0,-22.2609
1890,1.6478,-18.2405,-20.0798,9.8783,-72.487,-20.313
1895,-0.5748,-19.3134,-12.4158,2.4348,-55.0261,-16.487
1900,-3.3339,-20.4247,-9.0053,29.9826,-51.5478,-9.0435
1905,-2.6441,-20.1565,-9.3885,70.7478,-65.0435,1.6696
1910,-0.3832,-18.5854,-9.8483,99.8261,-82.7826,9.6696
1915,1.9927,-17.3591,-8.8137,109.7739,-87.9304,14.1913
1920,3.5638,-16.7077,-8.0856,104.2087,-80.6957,17.3217
1925,4.905,-16.1712,-7.0126,86.887,-71.0261,18.8522
1930,6.3229,-16.0562,-6.0546,63.7217,-65.4609,19.8261
1935,7.5108,-16.3628,-5.748,40.9739,-63.8609,23.4435
1940,8.5454,-16.7843,-6.1313,23.5826,-59.7565,31.3739
1945,8.6604,-17.4357,-6.2845,11.9652,-50.3652,38.2609
1950,7.5874,-17.7806,-5.9013,9.8783,-39.513,42.9913
1955,6.7827,-17.8189,-5.4032,13.8435,-30.7478,46.4696
1960,5.7097,-17.7806,-4.4452,21.8435,-22.3304,50.087
1965,4.5984,-17.5124,-3.5638,31.7913,-12.6609,55.3739
1970,3.5255,-16.8993,-2.6058,42.4348,-3.8957,61.287
1975,2.4525,-16.4011,-2.2992,51.8261,2.2957,66.4348
1980,1.6095,-15.5964,-2.1459,58.0174,5.4957,70.0522
1985,1.2263,-15.0599,-1.6095,61.0087,5.8435,73.7391
1990,0.9963,-14.2935,-1.3412,62.8174,3.8957,78.1217
1995,0.9963,-13.642,-1.0346,65.7391,1.8783,81.113
2000,1.073,-12.9906,-0.6898,68.3826,0.9043,83.2696
2005,0.9963,-12.0709,-0.5748,69.913,2.0174,85.1478
2010,0.5365,-11.1512,-0.4215,70.5391,4.5217,86.7478
2015,0.0,-10.1932,-0.4598,70.7478,7.6522,88.487
2020,-0.3832,-9.2352,-0.4982,70.6087,9.7391,90.2261
2025,-0.5748,-8.3921,-0.5365,70.3304,9.7391,92.7304
2030,-0.6898,-7.894,-0.6131,69.3565,8.6261,94.7478
2035,-0.843,-7.0126,-0.5365,67.9652,7.1652,96.2087
2040,-0.9963,-6.1696,-0.6131,65.4609,5.7739,96.2783
2045,-1.0346,-5.3648,-0.3449,63.513,5.1478,95.513
2050,-0.8047,-4.6368,-0.4215,61.0783,5.287,93.7739
2055,-0.843,-3.7171,-0.4598,56.7652,5.913,91.6174
2060,-0.5748,-3.1806,-0.3449,50.5043,7.1652,89.8087
2065,-0.4598,-2.6058,0.0,43.1304,8.7652,88.3478
2070,-0.2682,-2.2992,0.2682,35.6174,10.3652,86.6087
2075,-0.115,-1.7244,0.6898,29.4261,12.3826,84.9391
2080,0.3832,-1.4945,0.9963,24.4174,15.4435,82.9217
2085,0.8814,-1.3412,1.4562,20.1739,20.313,80.0696
2090,1.3029,-1.3412,1.916,14.887,25.5304,77.0783
2095,1.916,-1.5711,2.2992,9.5304,30.7478,72.9043
2100,2.4525,-2.031,2.5675,5.0087,35.5478,67.4783
2105,2.7207,-2.4525,2.989,2.8522,39.5826,61.287
2110,2.8357,-3.0273,3.5255,4.1739,42.2261,54.0522
2115,2.874,-3.5638,3.7554,9.8087,43.4783,46.1217
2120,2.6058,-3.9087,3.947,19.0609,43.9652,37.6348
2125,2.031,-4.062,3.6787,31.0261,44.5913,29.7043
2130,1.3412,-4.3685,3.4105,44.313,46.0522,22.9565
2135,0.115,-4.4452,3.4105,57.3217,49.4609,16.487
2140,-0.6898,-4.3685,3.3339,72.0,51.7565,12.2435
2145,-1.3795,-4.2919,3.1423,84.0348,52.8,8.5565
2150,-1.6478,-3.6787,2.7591,96.6957,51.3391,5.0783
2155,-0.8047,-3.2572,1.6095,108.4522,48.0696,1.6696
2160,0.4982,-2.6441,0.2682,116.8696,45.5652,-3.4087
2165,1.3795,-2.1843,-1.3029,120.7652,46.9565,-11.1304
2170,1.3795,-1.8011,-2.3759,120.487,53.7043,-20.5913
2175,0.4982,-1.4562,-2.7591,118.1913,64.5565,-29.7739
2180,-0.4215,-0.958,-2.989,116.313,76.313,-36.7304
2185,-1.7627,-1.0346,-3.4105,115.8261,87.3739,-36.0348
2190,-2.2992,-1.2646,-3.947,112.6261,92.0348,-30.1217
2195,-2.4908,-1.6095,-4.5984,104.2783,93.2174,-20.7304
2200,-2.8357,-2.7591,-4.905,89.8783,94.1913,-10.9217
2205,-3.8704,-4.4068,-4.0236,67.5478,95.9304,-2.2261
2210,-5.863,-6.5528,-3.1039,40.0,96.487,5.5652
2215,-7.9323,-8.2389,-2.874,10.5739,94.6087,14.3304
2220,-10.7297,-10.4998,-3.6787,-20.4522,85.5652,25.7391
2225,-14.5617,-12.6074,-5.9396,-54.8174,63.0957,41.1826
2230,-16.4777,-14.8683,-11.3045,-95.9304,25.2522,69.2174
2235,-9.2735,-17.2058,-18.9686,-167.9304,-41.4609,110.6087
2240,-0.3832,-19.6583,-23.567,-245.5652,-105.3217,170.2957
2245,8.2389,-22.0342,-19.9649,-315.0609,-117.0087,225.9478
2250,15.0216,-29.43,20.2331,-292.1043,-65.0435,243.8957
2255,13.4504,-34.4883,5.8247,-59.2,17.3913,213.3565
2260,13.8336,-35.9061,-5.7097,120.6957,111.7913,159.3043
2265,9.3502,-30.2347,-4.5984,169.1826,149.4957,87.7913
2270,4.5984,-24.2568,-7.9323,160.0696,128.6261,24.6261
2275,4.8284,-19.6583,-9.4651,133.4957,106.6435,-4.1043
2280,6.7061,-17.2441,-9.6184,112.6957,107.4783,-17.3217
2285,6.5911,-15.9029,-9.3118,106.2261,114.2957,-28.9391
2290,4.7517,-15.4431,-8.737,103.7913,122.2957,-36.8696
2295,1.8394,-14.83,-7.4341,99.5478,135.3739,-40.3478
2300,-1.073,-14.1785,-6.7444,97.7391,148.7304,-43.687
2305,-3.5255,-13.5271,-6.5528,96.3478,155.5478,-47.513
2310,-6.5145,-12.9523,-6.5528,90.8522,156.5913,-50.2957
2315,-6.0929,-12.1859,-5.2499,79.0957,154.2261,-51.9652
2320,-7.9323,-12.1475,-4.79,59.7565,142.7478,-48.9043
2325,-13.9103,-14.3701,-4.2536,29.9826,134.2609,-39.7217
2330,-14.3318,-15.2898,-1.7627,-11.1304,124.7304,-29.913
2335,-12.6074,-17.2058,1.0346,-33.1826,94.8174,-22.6087
2340,-9.8866,-20.1948,3.4871,-35.9652,57.5304,-14.1217
2345,-6.7061,-21.1528,1.073,-21.7739,35.5478,-11.4087
2350,-6.3612,-20.578,-0.6514,-3.0609,25.113,-15.2348
2355,-4.9816,-19.5817,-0.958,15.3043,19.687,-17.3217
2360,-3.1423,-17.2441,-1.4945,33.6696,8.9043,-21.4957
2365,-1.8011,-15.1365,-1.6861,46.8174,-6.1217,-27.8957
2370,-0.115,-12.8373,-1.073,53.4261,-14.887,-33.0435
2375,0.8047,-10.653,-0.6898,58.713,-15.8609,-42.9217
2380,1.0346,-8.5838,-0.5365,64.6957,-13.4261,-53.2174
2385,0.958,-7.3192,-0.5365,65.1826,-12.4522,-63.3043
2390,0.843,-6.0163,-0.7281,60.0348,-14.9565,-72.6261
2395,0.3832,-5.3648,-1.3795,49.1826,-20.1739,-81.2522
2400,0.115,-5.0966,-1.9927,32.3478,-25.7391,-87.7913
2405,0.0,-5.2116,-2.3375,11.5478,-30.2609,-92.2435
2410,-0.0383,-5.6714,-2.7974,-11.5478,-33.113,-94.4
2415,0.115,-6.4378,-2.6441,-33.9478,-34.5739,-95.0957
2420,0.6131,-7.4725,-2.1843,-50.6435,-34.2261,-95.3739
2425,0.7664,-8.0856,-1.6478,-58.2261,-31.3043,-95.3043
2430,0.8814,-8.3155,-1.0346,-55.5826,-26.9217,-93.8435
2435,0.8047,-8.5454,-0.6514,-45.287,-22.0522,-90.7826
2440,0.5748,-8.3538,-0.4598,-31.5826,-16.8348,-86.0522
2445,-0.0766,-8.0473,-0.3449,-18.6435,-12.1739,-80.5565
2450,-0.9963,-7.6641,-0.115,-9.5304,-9.2522,-74.5043
2455,-2.1076,-7.3575,0.0,-4.9391,-9.8087,-68.1739
2460,-2.9123,-7.1659,0.3832,-3.7565,-14.6783,-61.0783
2465,-3.0273,-6.9743,1.0346,-4.313,-23.2348,-53.7043
2470,-2.8357,-6.9743,1.5711,-4.5913,-33.8087,-46.1217
2475,-2.3759,-6.936,2.0693,-2.9217,-46.3304,-36.7304
2480,-1.8777,-6.7444,2.1076,0.9739,-55.2348,-29.287
2485,-1.1879,-6.4378,2.2226,6.5391,-61.7043,-23.0261
2490,-0.843,-5.9396,2.0693,12.1043,-65.0435,-17.6696
2495,-0.4982,-5.3648,1.7627,16.0,-66.3652,-13.7043
2500,-0.4598,-4.8667,1.4562,17.6,-66.9217,-10.7826
2505,-0.4982,-4.4452,1.4945,17.1826,-68.1739,-8.6957
2510,-0.3832,-4.2152,1.4945,15.2348,-70.1217,-6.6783
2515,-0.0383,-4.1769,1.4562,12.7304,-72.5565,-5.7739
2520,0.4598,-3.9853,1.7627,10.1565,-74.4348,-6.1913
2525,0.8047,-4.0236,1.8011,7.6522,-74.8522,-8.0
2530,0.9963,-4.1386,1.8394,6.6087,-73.4609,-10.3652
2535,1.1496,-4.1386,1.916,6.6087,-71.0957,-13.4957
2540,0.9197,-4.2152,1.916,7.1652,-68.2435,-16.9043
2545,0.6514,-4.4835,1.6478,8.1391,-65.7391,-20.5217
2550,0.1533,-4.6368,1.5328,8.5565,-63.9304,-23.7913
2555,-0.0766,-4.8667,1.6478,7.7913,-63.3739,-26.2261
2560,-0.5365,-5.2499,1.5328,5.913,-63.8609,-27.4087
2565,-0.958,-5.6714,1.4562,3.1304,-65.4609,-27.2
2570,-1.1113,-6.2462,1.6095,0.2783,-67.8261,-25.1826
2575,-0.958,-6.8593,1.6861,-1.6696,-69.2174,-22.6087
2580,-0.5748,-7.3958,1.6478,-0.9739,-70.1913,-19.6174
2585,-0.115,-7.6641,1.4562,1.2522,-70.3304,-17.7391
2590,0.4598,-7.6641,1.1113,5.4957,-69.0087,-16.2087
2595,1.1496,-7.8173,0.8047,10.4348,-66.0174,-15.2348
2600,1.9543,-7.9706,0.1533,14.1913,-62.2609,-14.2609
2605,2.2226,-8.2005,-0.6514,15.5826,-58.3652,-14.2609
2610,2.3375,-8.4305,-1.3412,13.4261,-55.513,-14.7478
2615,2.4908,-8.7754,-1.8777,7.8609,-55.3739,-15.6522
2620,2.6824,-9.3885,-2.3375,-0.2783,-58.7826,-16.6957
2625,3.1806,-10.3465,-2.7207,-10.6435,-62.3304,-17.6696
2630,3.947,-11.1512,-2.5291,-17.9478,-64.8348,-18.8522
2635,5.6714,-12.9906,-2.5675,-23.4435,-67.3391,-21.1478
2640,9.0819,-14.715,-2.1076,-29.2174,-72.9739,-24.8348
2645,10.8446,-15.4814,-3.6404,-34.2957,-82.2957,-32.487
2650,9.4651,-15.0216,-8.852,-44.8696,-84.313,-43.5478
2655,6.7827,-15.4048,-14.7533,-65.6696,-70.9565,-56.7652
2660,3.7171,-15.9796,-14.8683,-92.9391,-46.6087,-68.9391
2665,0.958,-17.0909,-10.1549,-107.8261,-20.1043,-83.2696
2670,-2.5675,-20.1182,-0.115,-66.087,-1.113,-92.4522
2675,-4.062,-20.0415,1.8394,2.0174,0.1391,-91.6174
2680,-4.5601,-18.547,1.3412,55.5826,-6.9565,-82.8522
2685,-4.8667,-17.0525,0.0766,82.9913,-16.2783,-76.1739
2690,-5.3648,-15.8646,-1.1496,85.287,-25.5304,-71.8609
2695,-5.02,-14.9449,-3.4488,71.7913,-35.3391,-67.4087
2700,-4.8284,-14.4084,-4.7134,52.8,-46.4,-61.3565
2705,-4.1769,-13.9103,-5.8247,38.9565,-56.4174,-52.8
2710,-2.7591,-13.9869,-6.1696,33.9478,-60.6609,-42.2261
2715,-1.9927,-14.3701,-5.5564,36.1043,-57.3913,-31.5826
2720,-1.2646,-15.0599,-4.1386,42.713,-51.0609,-25.5304
2725,-0.5365,-15.0216,-2.8357,49.4609,-51.687,-20.8
2730,0.9963,-15.2515,-2.1843,55.2348,-58.1565,-14.887
2735,2.3375,-15.2132,-2.2226,57.8087,-65.6,-8.1391
2740,3.4488,-14.9066,-2.5675,56.8348,-69.0783,-1.6
2745,4.4452,-14.7533,-2.7591,53.913,-66.713,3.3391
2750,4.9816,-14.2168,-2.6058,52.4522,-59.7565,8.2087
2755,5.3265,-13.4888,-2.3759,53.4261,-50.0174,13.7043
2760,5.7097,-12.8373,-2.1459,55.8609,-39.1652,19.7565
2765,5.9396,-11.8793,-2.1076,57.6696,-24.5565,26.087
2770,5.863,-11.0746,-2.1459,56.4174,-10.2957,30.887
2775,5.4798,-10.6147,-2.031,51.7565,5.3565,34.3652
2780,4.5218,-9.9633,-1.8394,43.2696,20.1739,37.2174
2785,3.5638,-9.1586,-1.4945,33.3913,31.1652,40.0
2790,2.874,-8.5454,-1.4179,23.9304,37.0783,44.0348
2795,2.6441,-8.1622,-1.4179,15.6522,40.0696,48.6957
2800,2.4908,-7.8557,-1.7244,7.513,42.1565,53.3565
2805,2.2992,-7.9706,-2.1843,-0.6261,44.8696,56.5565
2810,2.031,-8.0856,-2.2226,-9.2522,48.1391,59.2696
2815,1.7627,-8.2005,-2.3375,-16.5565,52.4522,61.4261
2820,1.4945,-8.5071,-2.2609,-23.2348,55.4435,62.6783
2825,1.1496,-8.9286,-1.9543,-27.2696,57.6696,62.887
2830,1.0346,-9.3885,-1.9543,-29.3565,59.7565,62.6087
2835,1.0346,-9.7334,-1.5711,-29.1478,62.1217,61.287
2840,1.1496,-10.0016,-1.1113,-26.5739,65.113,59.4783
2845,1.1496,-10.0782,-1.2646,-19.5478,69.1478,56.8348
2850,1.1496,-10.0399,-1.3029,-12.7304,73.4609,53.7739
2855,0.9963,-9.7717,-1.4179,-7.0957,77.5652,50.2261
2860,1.2263,-9.3118,-1.1879,-2.9913,80.9043,47.0261
2865,1.1113,-9.2352,-0.9197,-0.3478,84.1043,43.1304
2870,0.9963,-9.2735,-0.6514,0.6261,86.1913,40.5565
2875,0.7281,-9.2735,-0.2682,1.113,87.6522,37.6348
2880,0.3832,-9.2735,0.2299,2.0174,88.487,35.4783
2885,0.115,-9.0819,0.4598,2.9217,88.3478,33.3913
2890,-0.3449,-9.0053,0.5748,3.8957,87.2348,32.0
2895,-0.4598,-8.7754,0.6898,4.3826,85.2174,30.4696
2900,-0.8047,-8.2005,0.5365,3.9652,82.9217,29.3565
2905,-1.0346,-7.8557,0.6514,2.5043,80.6957,28.0348
2910,-1.3795,-7.3575,0.1916,-0.3478,78.887,26.713
2915,-1.8011,-7.0509,0.1533,-4.9391,77.0783,25.3913
2920,-2.1459,-6.821,0.1916,-9.3217,75.4783,24.2087
2925,-2.4142,-6.7827,0.2299,-13.7043,73.8087,23.0261
2930,-2.4908,-6.8977,0.0383,-17.7391,71.7217,22.3304
2935,-2.6058,-6.936,0.0383,-21.4261,70.1913,21.7043
2940,-2.2992,-7.0893,0.0766,-24.9739,69.0087,21.1478
2945,-2.2992,-7.3192,0.1533,-28.8696,68.1739,20.0348
2950,-2.0693,-7.4725,0.1533,-32.8348,66.713,19.2
2955,-1.8777,-7.779,0.115,-37.1478,64.4174,18.3652
2960,-1.8777,-8.1239,0.2682,-41.1826,61.1478,17.9478
2965,-1.6095,-8.5454,0.3449,-44.5913,56.4174,17.6696
2970,-1.4562,-9.0819,0.5365,-44.7304,52.3826,18.087
2975,-1.1113,-9.5418,0.6898,-42.0174,48.9739,17.7391
2980,-0.7664,-9.8866,0.8047,-36.7304,46.6087,17.2522
2985,-0.6131,-9.81,0.843,-29.8435,45.4261,16.0696
2990,-0.6898,-9.7334,0.6898,-23.0957,45.0087,15.0261
2995,-0.4598,-9.3885,0.843,-17.5304,44.2435,13.7739
