timestamp,accX,accY,accZ,gyroX,gyroY,gyroZ
0,0.9197,-7.5491,-3.6787,101.4261,-3.6174,4.313
5,0.7281,-6.9743,-3.4871,104.0,-2.7826,5.0087
10,0.6131,-6.5145,-3.3339,106.2261,-1.6696,5.8435
15,0.6898,-5.978,-3.2189,108.1043,-0.6261,6.5391
20,0.7281,-5.3648,-3.1806,109.913,0.3478,7.1652
25,0.7281,-4.79,-3.2572,111.0957,1.5304,7.3043
30,0.6514,-4.1003,-3.4105,111.3043,2.8522,6.9565
35,0.6514,-3.6404,-3.3722,110.7478,4.313,6.3304
40,0.6898,-3.2189,-3.5638,108.8,5.7043,5.5652
45,0.6131,-2.5675,-3.4871,105.8087,7.0957,4.8
50,0.6131,-2.0693,-3.4488,102.3304,8.2783,4.0348
55,0.7664,-2.031,-3.7171,97.9478,9.4609,3.3391
60,0.4598,-1.4945,-3.5638,92.6609,10.5739,2.713
65,0.4982,-1.1496,-3.6021,87.0261,11.6174,2.1565
70,0.4982,-0.8814,-3.7937,81.1826,12.6609,1.6
75,0.5748,-0.7281,-3.7937,74.6435,13.5652,1.1826
80,0.4598,-0.6131,-3.8704,67.8957,14.5391,0.6261
85,0.5365,-0.7281,-4.0236,61.1478,15.3043,-0.0696
90,0.4598,-0.6514,-4.1003,54.887,16.0696,-0.487
95,0.5365,-0.9197,-4.062,48.6957,16.487,-0.6957
100,0.4982,-0.9963,-4.062,42.0174,16.6261,-1.0435
105,0.5748,-1.3795,-4.0236,35.3391,16.6261,-1.4609
110,0.6514,-1.6095,-3.9853,28.6609,16.4174,-0.9739
115,0.3832,-1.9927,-3.8704,22.1217,15.7217,-0.2087
120,0.5748,-2.3759,-3.7937,15.8609,14.887,0.7652
125,0.3449,-2.7591,-3.7171,10.2261,13.9826,1.8783
130,0.3449,-3.2572,-3.4871,5.3565,13.0087,3.3391
135,0.4982,-3.5255,-3.4105,1.3217,12.4522,4.3826
140,0.2299,-3.9087,-3.3722,-1.6696,12.0348,5.5652
145,0.2682,-4.1003,-3.5255,-4.1739,11.687,6.3304
150,0.2682,-4.3685,-3.3722,-6.4,11.4087,7.0261
155,0.0,-4.5218,-3.2572,-8.5565,10.9913,7.7217
160,0.0,-4.6368,-3.2189,-10.7826,10.5739,8.0696
165,0.0766,-4.8284,-3.4488,-13.2174,9.9478,8.4174
170,0.0,-4.905,-3.3339,-16.0696,9.113,8.487
175,0.0383,-4.9433,-3.4871,-19.1304,8.487,8.2783
180,0.0766,-5.1732,-3.4871,-22.1913,7.8609,8.2087
185,0.0,-5.3648,-3.4488,-24.8348,7.4435,8.0
190,-0.1916,-5.3648,-3.4488,-26.6435,7.0261,7.7217
195,-0.0766,-5.5564,-3.2955,-27.0609,6.6087,7.2348
200,-0.3066,-5.7864,-3.2955,-25.9478,5.913,6.7478
205,-0.3066,-5.748,-3.0273,-23.1652,5.0087,6.1217
210,-0.1916,-5.7864,-3.0273,-18.9913,3.8957,5.4261
215,-0.3449,-5.7864,-2.7974,-13.6348,2.713,4.9391
220,-0.3832,-5.6714,-2.7591,-7.8609,1.3913,4.5217
225,-0.1916,-5.6331,-2.9507,-2.0174,0.0696,4.0348
230,-0.1916,-5.6714,-2.9507,3.3391,-1.2522,3.7565
235,-0.115,-5.5181,-3.1806,7.7913,-2.7826,3.7565
240,0.0383,-5.3648,-3.4105,10.9217,-4.313,3.687
245,0.0,-5.2116,-3.4871,13.0087,-6.1913,3.8261
250,0.0,-5.1349,-3.7554,14.1217,-7.9304,3.9652
255,0.115,-5.0966,-3.7171,14.4696,-9.7391,4.3826
260,0.0383,-5.02,-3.6404,14.3304,-11.4087,4.4522
265,0.0,-5.0583,-3.8704,13.4957,-13.2174,4.5913
270,0.0,-5.0966,-3.832,11.9652,-15.1652,4.7304
275,-0.115,-5.0583,-4.062,10.087,-17.113,5.0087
280,-0.0383,-5.2116,-4.1003,7.6522,-19.1304,5.287
285,-0.1916,-5.4415,-4.2152,4.7304,-20.9391,5.7043
290,-0.2682,-5.6714,-4.2536,1.5304,-22.4,5.9826
295,-0.3066,-6.1696,-4.2919,-1.7391,-23.3739,6.6087
300,-0.3449,-6.5528,-4.2152,-4.4522,-24.0696,6.9565
305,-0.2682,-6.8593,-4.2152,-6.4696,-24.7652,7.3739
310,-0.4215,-7.3575,-3.9087,-7.5826,-25.5304,7.7913
315,-0.3832,-7.7407,-3.947,-7.8609,-26.2957,8.3478
320,-0.5748,-8.1622,-3.9853,-6.887,-26.7826,8.9739
325,-0.5365,-8.6604,-3.4488,-4.8,-26.5739,9.6696
330,-0.6898,-8.967,-3.2572,-1.6,-25.8087,10.2957
335,-0.8047,-9.4651,-2.989,2.4348,-24.1391,10.8522
340,-0.6898,-9.8866,-2.6058,8.487,-21.913,11.4783
345,-0.5748,-10.3848,-2.2992,14.1913,-19.0609,11.7565
350,-0.4215,-10.6147,-2.1843,20.1043,-15.7217,11.5478
355,-0.1533,-10.8446,-1.9543,25.6,-12.4522,11.1304
360,0.0383,-11.0746,-1.8011,30.5391,-9.3217,10.5043
365,0.4982,-11.5727,-1.916,34.9217,-6.4696,9.7391
370,0.8814,-11.6111,-1.9543,39.2348,-4.313,8.4174
375,0.8814,-11.6877,-2.2226,43.4087,-3.2696,7.0261
380,1.073,-11.726,-2.3375,47.7913,-2.9913,6.1217
385,1.1496,-11.4961,-2.5675,51.8261,-3.4783,5.5652
390,0.9963,-11.4961,-2.7207,55.5826,-4.7304,5.4261
395,0.9963,-11.1129,-2.874,58.8522,-6.4696,6.4696
400,0.8814,-10.8446,-2.5291,61.8435,-7.6522,8.1391
405,0.6898,-10.7297,-2.3759,64.4174,-8.6261,10.2261
410,0.3066,-10.653,-1.2646,67.4087,-10.087,12.7304
415,0.0,-10.653,-0.0766,71.6522,-11.8957,16.0
420,-0.4982,-11.0746,1.6478,79.6522,-14.6783,20.5217
425,-1.4945,-11.8793,3.832,92.313,-19.4087,24.6957
430,-2.031,-12.9906,4.8667,111.9304,-26.2957,28.3826
435,-1.916,-15.0216,5.5948,139.5478,-34.3652,31.4435
440,-1.916,-17.1675,4.9433,172.8,-41.2522,30.1217
445,-2.4525,-19.8882,4.5601,204.0348,-45.0783,23.3739
450,-2.6058,-23.5287,4.9816,231.3043,-43.0609,13.7739
455,-1.9543,-26.9009,5.4415,253.1478,-32.487,7.3739
460,-3.3722,-29.2384,4.5601,264.0,-13.8435,1.8783
465,-0.9963,-28.7786,3.2955,260.5913,-3.4087,-0.7652
470,-3.6404,-26.0961,0.3832,248.2783,4.313,-7.7217
475,-3.2572,-23.3754,-1.3795,226.6435,6.1913,-15.2348
480,-2.4908,-21.1911,-1.6095,188.3826,6.0522,-12.7304
485,-1.1496,-18.2405,0.0,137.2522,8.1391,-5.4957
490,-0.7281,-15.8263,1.4179,87.8609,11.2696,-0.4174
495,-0.6131,-14.7916,2.2226,50.9217,13.7739,0.9043
500,-0.6514,-14.2935,2.6058,28.2435,14.7478,2.1565
505,-0.3832,-13.4888,2.6824,15.9304,14.1913,3.2696
510,-0.5365,-12.6074,2.9507,11.8261,13.7739,4.2435
515,-0.8814,-11.4578,3.1423,13.7739,13.1478,3.0609
520,-1.2646,-10.1166,3.6021,18.8522,12.1739,0.0
525,-1.3029,-8.5838,4.2919,25.3913,11.5478,-4.3826
530,-0.9963,-7.5491,4.6368,32.2783,11.7565,-8.487
535,-0.4982,-6.3229,5.0583,38.6783,12.7304,-12.4522
540,-0.2682,-5.02,5.1349,43.4783,14.1217,-16.2087
545,-0.0766,-4.4835,5.0583,45.9826,15.3739,-19.2696
550,-0.0766,-3.832,4.4835,46.2609,16.8348,-21.4957
555,0.0,-3.6021,3.9087,44.5913,18.2957,-22.6087
560,0.115,-3.6787,3.1039,42.5043,19.5478,-22.5391
565,0.0383,-3.8704,2.4908,41.4609,20.2435,-21.4261
570,0.0766,-4.3302,2.031,42.3652,19.9652,-19.4087
575,0.1533,-4.79,1.7627,45.6348,18.9217,-17.0435
580,0.115,-5.0966,1.6861,51.0609,17.3913,-14.887
585,0.0,-5.6714,1.9927,58.2261,15.9304,-13.0783
590,0.0766,-6.1313,2.2609,65.8783,14.4,-11.687
595,0.0,-6.2845,2.4142,73.1826,12.5913,-10.8522
600,0.0,-6.1696,2.6824,78.6087,10.713,-10.6435
605,-0.1916,-6.6294,2.874,81.7391,8.9043,-10.713
610,-0.3449,-6.3229,3.1039,82.087,7.0261,-10.9913
615,-0.4598,-6.3229,2.989,79.3739,5.7043,-10.9913
620,-0.4215,-6.5145,3.1423,74.4348,4.8696,-11.1304
625,-0.4598,-6.5145,3.1423,67.4087,4.7304,-11.0609
630,-0.3832,-6.821,2.9123,59.3391,4.8696,-10.7826
635,-0.3832,-6.936,3.0273,50.9217,4.5217,-10.0174
640,-0.4215,-7.0126,2.9507,42.9217,4.1739,-8.8348
645,-0.3832,-7.3192,2.9507,35.8261,3.7565,-7.5826
650,-0.2682,-7.5491,2.5675,30.4,3.4783,-6.3304
655,-0.3832,-7.9706,2.9507,26.6435,3.0609,-4.9391
660,-0.3066,-8.5071,2.9123,24.6957,2.5739,-3.6174
665,-0.2682,-9.0436,2.7207,24.3478,2.713,-2.5043
670,-0.115,-9.5418,2.874,25.113,3.4087,-1.6
675,0.0383,-10.1549,2.6824,26.6435,4.7304,-0.8348
680,0.0,-10.5381,2.6441,28.8696,6.3304,-0.2783
685,0.1533,-11.3045,2.6058,31.0261,8.1391,-0.2087
690,0.0,-11.6111,2.6824,32.6261,9.7391,-0.5565
695,0.1533,-12.3391,2.5291,33.7391,10.2261,-1.5304
700,0.3066,-12.5307,2.4525,33.8783,10.1565,-3.2696
705,0.2299,-12.6457,2.4908,33.3217,11.2696,-4.5217
710,0.1533,-12.8373,2.3759,32.7652,11.5478,-5.9826
715,0.1533,-12.7607,2.4142,32.7652,10.9913,-7.3739
720,0.1916,-12.6074,2.3759,33.7391,9.4609,-8.2783
725,0.115,-12.3008,2.4142,35.687,7.7217,-8.8348
730,0.0,-11.9176,2.6058,38.1913,5.7739,-9.0435
735,0.0383,-11.4961,2.5675,40.8348,3.4087,-9.3217
740,-0.0383,-10.883,2.7207,43.0609,1.4609,-9.7391
745,0.0,-10.1166,2.8357,44.6609,0.0,-10.2957
750,-0.115,-9.4651,3.0273,44.8696,-0.0696,-10.4348
755,-0.115,-8.8903,3.0656,43.9652,0.2087,-10.5739
760,-0.1916,-8.2772,2.9123,42.1565,0.7652,-10.7826
765,-0.1916,-7.5874,3.0656,39.4435,1.5304,-11.0609
770,-0.2299,-7.1659,2.9507,36.2435,2.5739,-11.5478
775,-0.0766,-6.8977,2.9507,32.6261,3.3391,-11.8261
780,-0.115,-6.5911,2.9507,28.8696,4.1043,-11.687
785,-0.2682,-6.1696,2.9123,25.0435,4.3826,-11.4783
790,-0.115,-6.1696,2.5675,21.4261,4.1739,-10.7826
795,-0.0383,-6.1696,2.5675,17.7391,3.687,-10.087
800,0.0383,-6.2462,2.3759,13.913,2.9217,-9.113
805,0.0,-6.2845,2.3759,10.087,1.8783,-8.2087
810,0.115,-6.5911,2.2992,6.4696,0.5565,-7.0957
815,0.115,-6.936,2.4142,3.0609,-0.9043,-6.0522
820,0.2682,-7.4725,2.5291,0.4174,-2.2261,-5.0087
825,0.2299,-7.7024,2.4908,-1.6696,-3.2696,-4.313
830,0.2299,-8.2389,2.6441,-2.7826,-4.0348,-3.4783
835,0.2682,-8.6604,2.6824,-3.2,-4.5217,-2.713
840,0.1916,-8.852,2.6058,-3.0609,-4.7304,-2.2261
845,0.2682,-9.3502,2.7974,-2.5739,-4.9391,-1.9478
850,0.0383,-9.3502,2.9507,-1.7391,-5.1478,-1.5304
855,0.0383,-9.6184,2.7974,-0.6261,-5.1478,-1.0435
860,0.0,-9.5801,2.9123,0.6957,-5.1478,-0.6957
865,-0.0383,-9.6567,2.7591,1.9478,-5.1478,-0.4174
870,-0.0766,-9.6567,2.7591,3.2696,-5.1478,-0.2087
875,0.0,-9.5418,2.7207,4.5913,-5.0783,0.1391
880,0.0,-9.5034,2.6441,5.913,-5.0783,0.3478
885,-0.1916,-9.1586,2.7591,6.887,-5.0087,0.4174
890,-0.0383,-9.1969,2.6824,7.5826,-5.0783,0.7652
895,-0.0383,-9.0053,2.5675,8.0,-5.2174,1.0435
900,0.0383,-9.0436,2.6824,7.9304,-5.4261,1.1826
905,-0.0383,-8.852,2.6058,7.6522,-5.7739,1.1826
910,-0.0766,-8.8137,2.7207,7.0261,-5.8435,1.3913
915,0.0,-8.8137,2.5291,6.1217,-5.913,1.3913
920,0.115,-8.2005,2.6058,5.1478,-6.0522,1.3913
925,0.0,-8.8903,2.6441,3.8957,-6.1217,1.2522
930,0.0766,-9.0436,2.7974,2.8522,-6.1913,0.9739
935,0.0383,-8.967,2.7207,2.087,-6.1913,0.7652
940,0.115,-9.0819,2.7591,1.1826,-6.1217,0.4174
945,0.0766,-9.1202,2.7974,0.5565,-5.913,0.0696
950,0.1916,-9.2352,2.874,-0.0696,-5.7739,-0.0696
955,0.115,-9.1586,2.6824,-0.6957,-5.4261,-0.2087
960,0.1533,-9.2352,2.9507,-1.3913,-5.0783,-0.3478
965,0.0383,-9.0819,2.874,-2.2261,-4.6609,-0.5565
970,0.2299,-9.1969,2.874,-2.9913,-4.1043,-0.6261
975,0.1533,-9.1586,2.7974,-3.7565,-3.687,-0.6261
980,0.0766,-9.0053,2.7591,-4.6609,-3.2,-0.487
985,0.0766,-8.9286,2.7974,-5.7739,-2.713,-0.487
990,0.0383,-8.8903,2.7974,-6.887,-2.5043,-0.2783
995,0.0,-8.9286,2.7591,-8.3478,-2.0174,-0.0696
1000,0.0766,-9.0053,2.6824,-9.5304,-1.5304,0.0696
1005,0.0,-8.967,2.5675,-10.6435,-1.113,0.2783
1010,0.0383,-8.967,2.5291,-11.5478,-0.6957,0.3478
1015,0.0383,-8.8903,2.4525,-12.1043,-0.2087,0.6957
1020,0.0,-8.8137,2.5675,-12.5217,0.2783,0.9043
1025,0.0766,-9.0436,2.4525,-12.7304,0.7652,1.1826
1030,0.0766,-8.9286,2.2992,-12.6609,1.3217,1.5304
1035,0.0383,-9.0053,2.4142,-12.7304,1.6696,1.7391
1040,0.115,-8.9286,2.3759,-12.5217,2.087,1.8783
1045,0.0383,-9.0053,2.4525,-12.1739,2.2957,2.1565
1050,0.0,-9.0819,2.4142,-11.8261,2.713,2.3652
1055,0.0766,-9.0053,2.4525,-11.4087,2.7826,2.6435
1060,-0.0383,-9.0819,2.3375,-11.2,2.8522,2.8522
1065,-0.115,-8.8903,2.4142,-10.9913,2.8522,3.1304
1070,-0.2682,-9.0053,2.2992,-10.9217,2.8522,3.2
1075,-0.3449,-9.1202,2.3375,-10.9913,2.7826,3.4087
1080,-0.3449,-9.1969,2.3759,-10.9913,2.5043,3.5478
1085,-0.3449,-9.0436,2.3375,-10.9913,2.1565,3.7565
1090,-0.3066,-9.1586,2.4142,-10.8522,1.8087,4.1739
1095,-0.3449,-9.1586,2.5675,-10.5043,1.4609,4.313
1100,-0.2682,-9.1202,2.5291,-10.087,1.2522,4.2435
1105,-0.2682,-9.3118,2.5291,-9.6,1.1826,4.2435
1110,-0.0383,-9.2735,2.4142,-9.1826,1.3217,4.3826
1115,-0.1916,-9.3118,2.3759,-8.7652,1.6,4.1739
1120,-0.0383,-9.3885,2.2226,-8.2087,1.8087,4.1739
1125,-0.0766,-9.3118,2.3375,-7.7217,2.1565,3.9652
1130,-0.0766,-9.3885,2.2992,-7.3043,2.6435,3.6174
1135,-0.0383,-9.5418,2.1843,-6.7478,2.9913,3.2
1140,0.0383,-9.5418,2.2226,-6.4696,3.4783,2.713
1145,-0.0383,-9.5418,2.031,-6.1913,3.7565,2.2957
1150,0.0,-9.5034,2.031,-6.2609,3.9652,1.7391
1155,-0.0383,-9.695,1.8011,-6.3304,4.1043,1.1826
1160,-0.1533,-9.5418,1.9927,-6.4696,4.1739,0.8348
1165,-0.0766,-9.695,1.9543,-6.8174,3.9652,0.2783
1170,-0.1533,-9.695,1.7627,-7.0957,3.8261,-0.0696
1175,-0.2299,-9.6567,1.9543,-7.5826,3.4087,-0.3478
1180,-0.4215,-9.5034,1.916,-7.8609,2.8522,-0.6957
1185,-0.3449,-9.5418,1.8011,-8.1391,2.5043,-0.9043
1190,-0.2682,-9.5034,1.7627,-8.0,2.0174,-0.9739
1195,-0.4215,-9.4651,1.9543,-7.8609,1.6696,-1.113
1200,-0.3066,-9.5418,1.9927,-7.7217,1.3913,-1.1826
1205,-0.3449,-9.3885,2.0693,-7.513,1.1826,-1.2522
1210,-0.3449,-9.4268,1.9927,-7.2348,0.9739,-1.0435
1215,-0.2299,-9.4268,1.916,-7.1652,0.7652,-1.0435
1220,-0.2682,-9.2352,2.0693,-7.0261,0.6957,-0.9043
1225,-0.3449,-9.3118,2.0693,-6.8174,0.6957,-0.7652
1230,-0.4215,-9.2735,2.1076,-6.6087,0.9043,-0.6261
1235,-0.2682,-9.2352,2.031,-6.4696,1.113,-0.487
1240,-0.3449,-9.0436,1.9927,-6.4,1.3913,-0.2087
1245,-0.0383,-9.3118,2.1843,-6.5391,1.7391,-0.2087
1250,-0.0766,-9.1202,2.0693,-6.6087,1.7391,-0.0696
1255,-0.0383,-9.2352,2.0693,-6.6783,1.7391,-0.1391
1260,-0.0383,-9.3118,2.1076,-6.887,1.6696,-0.2783
1265,0.0,-9.2735,2.031,-7.1652,1.5304,-0.3478
1270,-0.0766,-9.1202,2.031,-7.513,1.5304,-0.487
1275,-0.0383,-9.2352,2.031,-7.8609,1.2522,-0.4174
1280,0.0,-9.1969,2.0693,-8.2087,0.9043,-0.487
1285,0.0,-9.1969,1.9543,-8.4174,0.5565,-0.487
1290,0.0383,-9.2735,2.1076,-8.6261,0.4174,-0.6957
1295,-0.0383,-9.1202,1.9927,-8.8348,0.3478,-0.7652
1300,0.0383,-9.1969,2.2226,-8.7652,0.487,-0.7652
1305,0.0,-9.2735,2.1076,-8.7652,0.6261,-0.9043
1310,0.0,-9.2352,2.1459,-8.8348,0.7652,-0.9739
1315,0.0766,-9.2735,2.0693,-8.9739,1.0435,-1.113
1320,0.0,-9.3502,2.1076,-8.7652,1.3217,-1.1826
1325,0.0383,-9.2735,2.2992,-8.5565,1.6,-1.3217
1330,0.0383,-9.3502,2.1076,-8.3478,1.8087,-1.4609
1335,0.0,-9.3885,2.1843,-8.0,2.0174,-1.6
1340,0.0,-9.3502,2.2609,-7.4435,2.3652,-1.7391
1345,0.0,-9.3885,2.1076,-6.7478,2.5739,-1.9478
1350,0.0,-9.3118,2.2226,-5.7739,2.8522,-2.087
1355,0.0,-9.3502,2.1459,-4.6609,2.9913,-2.1565
1360,-0.0383,-9.4651,2.2226,-3.7565,3.2,-2.087
1365,0.0383,-9.4651,2.2226,-3.0609,3.2,-2.2957
1370,0.0,-9.4651,2.1459,-2.5739,3.3391,-2.3652
1375,-0.0383,-9.3885,1.8777,-2.1565,3.2696,-2.5043
1380,0.0,-9.5034,1.8777,-1.9478,3.2,-2.3652
1385,-0.0766,-9.3885,1.7627,-1.8087,3.2,-2.4348
1390,0.3066,-9.8483,1.8394,-2.0174,3.0609,-2.5739
1395,-0.0766,-9.3885,1.4562,-2.4348,2.8522,-2.5739
1400,0.0383,-9.4268,1.7244,-2.9913,2.6435,-2.5043
1405,-0.1916,-9.3502,1.4945,-3.4087,2.5043,-2.713
1410,0.0,-9.2352,1.5328,-3.9652,2.2261,-2.713
1415,-0.0766,-9.4268,1.6095,-4.3826,1.8783,-2.713
1420,0.0,-9.3885,1.6095,-4.8696,1.6,-2.8522
1425,-0.0766,-9.2735,1.4562,-5.287,1.4609,-2.713
1430,0.0,-9.3118,1.5328,-5.7739,1.3217,-2.9913
1435,0.0,-9.2735,1.4179,-6.2609,1.3217,-3.2696
1440,-0.0766,-9.1202,1.4945,-6.8174,1.3913,-3.2696
1445,-0.1533,-9.2735,1.4562,-7.3043,1.6696,-3.3391
1450,-0.0766,-9.1202,1.3795,-7.9304,1.8783,-3.4783
1455,0.0383,-9.1969,1.4562,-8.6957,2.1565,-3.4783
1460,-0.0383,-9.1969,1.4179,-9.2522,2.5739,-3.4783
1465,0.0,-9.3118,1.3795,-9.8783,2.713,-3.4783
1470,0.0,-9.4268,1.4562,-10.4348,2.9913,-3.2696
1475,-0.0766,-9.3502,1.3795,-10.713,3.2,-3.2
1480,-0.115,-9.3502,1.4945,-10.9913,3.3391,-3.0609
1485,-0.0766,-9.4268,1.6095,-11.0609,3.3391,-2.8522
1490,-0.1916,-9.4268,1.4562,-10.9217,3.2,-2.5739
1495,-0.0766,-9.4651,1.3795,-10.713,3.0609,-2.3652
1500,0.0,-9.4268,1.5328,-10.3652,3.0609,-2.087
1505,0.0,-9.4651,1.5328,-9.8783,2.9217,-1.6
1510,-0.2299,-9.5418,1.7244,-9.4609,2.8522,-1.3217
1515,-0.115,-9.4651,1.9543,-9.0435,2.8522,-1.0435
1520,0.0,-9.5418,1.6478,-8.6261,2.8522,-0.9043
1525,-0.2299,-9.5034,1.6095,-8.4174,2.6435,-0.487
1530,-0.1533,-9.4268,1.5328,-8.0696,2.4348,-0.2087
1535,-0.2299,-9.3885,1.4562,-7.7217,2.087,0.0696
1540,-0.3832,-9.3885,1.7627,-7.4435,1.8087,0.3478
1545,-0.2299,-9.3885,1.5711,-7.1652,1.6,0.5565
1550,-0.1916,-9.4268,1.6478,-6.9565,1.4609,0.5565
1555,-0.1916,-9.4268,1.6478,-6.8174,1.2522,0.5565
1560,-0.3066,-9.3885,1.4562,-6.8174,0.9739,0.5565
1565,-0.1533,-9.2352,1.6478,-6.7478,0.8348,0.487
1570,-0.1533,-9.4651,1.4562,-6.887,0.7652,0.4174
1575,-0.2299,-9.3502,1.4562,-7.0261,0.6261,0.2783
1580,-0.2299,-9.1969,1.2646,-7.2348,0.5565,0.0696
1585,-0.2299,-9.3118,1.4945,-7.513,0.6261,-0.0696
1590,-0.2682,-9.3118,1.4945,-7.513,0.487,-0.2783
1595,-0.3066,-9.0819,1.5328,-7.5826,0.3478,-0.487
1600,0.0,-9.4651,1.4562,-7.513,0.1391,-0.7652
1605,-0.0766,-9.3502,1.4945,-7.4435,0.1391,-0.9043
1610,-0.1533,-9.4651,1.5328,-7.1652,0.1391,-1.0435
1615,-0.1916,-9.3885,1.5328,-6.8174,0.1391,-1.1826
1620,-0.0383,-9.5418,1.4562,-6.4696,0.3478,-1.1826
1625,0.0,-9.3885,1.4179,-6.3304,0.6261,-1.3913
1630,0.1533,-9.5034,1.4945,-6.3304,0.9739,-1.5304
1635,0.0,-9.4651,1.3412,-6.2609,1.1826,-1.7391
1640,0.0,-9.4651,1.3795,-6.0522,1.3217,-1.8783
1645,0.0383,-9.3502,1.3029,-5.8435,1.3217,-1.9478
1650,0.0,-9.4268,1.1879,-5.6348,1.4609,-2.2261
1655,-0.0766,-9.3885,1.2646,-5.4261,1.6,-2.2261
1660,0.0383,-9.2352,1.3029,-5.0087,1.5304,-2.2957
1665,0.0,-9.3885,1.1113,-4.6609,1.6696,-2.2957
1670,0.0383,-9.4268,1.1879,-4.3826,1.6696,-2.5043
1675,0.0383,-9.4651,1.1113,-4.1043,1.6696,-2.5043
1680,0.0766,-9.3885,1.2263,-4.1739,1.6,-2.6435
1685,0.0,-9.3502,1.1496,-4.2435,1.4609,-2.5043
1690,0.0383,-9.4651,1.1879,-4.2435,1.1826,-2.5739
1695,0.0766,-9.4268,1.3412,-4.313,0.9739,-2.5739
1700,0.0,-9.3502,1.1879,-4.5913,0.7652,-2.6435
1705,0.0,-9.3885,1.1496,-4.9391,0.487,-2.5739
1710,0.0,-9.4651,1.073,-5.3565,0.2087,-2.5043
1715,0.0,-9.5801,1.1496,-5.7043,0.0,-2.2957
1720,-0.0766,-9.3885,1.073,-5.9826,-0.1391,-2.1565
1725,0.0,-9.5801,1.073,-6.5391,-0.1391,-2.2261
1730,-0.0383,-9.4268,1.1113,-6.6783,-0.1391,-2.087
1735,-0.1533,-9.3885,0.9963,-6.8174,-0.1391,-2.087
1740,-0.115,-9.4651,0.958,-7.0261,0.0,-2.0174
1745,-0.2299,-9.4268,1.1496,-7.0261,0.0,-2.087
1750,-0.0766,-9.4651,1.0346,-7.2348,0.1391,-2.087
1755,-0.0766,-9.5418,0.9197,-7.4435,0.2783,-2.1565
1760,-0.1533,-9.4268,0.8814,-7.5826,0.5565,-2.2261
1765,-0.1916,-9.3502,0.9963,-7.6522,0.8348,-2.2957
1770,-0.0383,-9.4651,0.9197,-8.0,1.0435,-2.4348
1775,-0.0766,-9.4651,0.9197,-8.1391,1.113,-2.4348
1780,-0.0766,-9.4651,0.8814,-8.2783,1.113,-2.6435
1785,-0.0383,-9.2352,0.8814,-8.4174,0.9739,-2.6435
1790,-0.0766,-9.5034,0.9963,-8.4174,0.9739,-2.5739
1795,-0.0383,-9.3502,0.9197,-8.5565,0.9739,-2.4348
1800,-0.0383,-9.4268,1.0346,-8.5565,0.9043,-2.5739
1805,0.0,-9.5801,0.958,-8.6957,0.8348,-2.6435
1810,0.0,-9.5801,0.8814,-8.6957,0.6957,-2.5043
1815,-0.0383,-9.3118,0.8047,-8.6261,0.487,-2.5739
1820,-0.0383,-9.4651,0.958,-8.5565,0.2783,-2.3652
1825,0.0,-9.4268,0.9963,-8.3478,0.1391,-2.3652
1830,0.0383,-9.4651,1.1113,-8.2783,0.1391,-2.2261
1835,0.0383,-9.4651,0.9197,-8.0696,0.0696,-1.9478
1840,0.0,-9.4268,0.9197,-8.0,0.0,-1.8783
1845,-0.0766,-9.3885,0.9963,-7.9304,-0.0696,-1.6
1850,0.0766,-9.5418,1.0346,-7.7913,-0.2087,-1.4609
1855,0.0383,-9.4651,0.8814,-7.7913,-0.3478,-1.3217
1860,-0.115,-9.3502,1.1113,-7.8609,-0.5565,-1.2522
1865,0.0,-9.4651,0.9963,-8.0,-0.487,-1.3217
1870,0.0,-9.4268,1.073,-7.8609,-0.5565,-1.3217
1875,-0.0766,-9.3885,1.073,-7.5826,-0.6261,-1.113
1880,-0.0383,-9.4651,0.843,-7.2348,-0.6261,-1.0435
1885,-0.0383,-9.4651,0.958,-7.0261,-0.6957,-1.0435
1890,0.0,-9.3885,0.958,-6.887,-0.6957,-0.9739
1895,-0.0766,-9.4651,0.8047,-6.7478,-0.6261,-1.113
1900,0.0,-9.4268,0.9197,-6.8174,-0.6957,-1.2522
1905,-0.115,-9.4268,0.8047,-6.9565,-0.5565,-1.3913
1910,-0.0383,-9.6184,0.843,-7.3043,-0.8348,-1.3913
1915,-0.0383,-9.4651,0.8047,-7.1652,-0.9043,-1.5304
1920,0.0766,-9.6184,0.7281,-7.0957,-1.113,-1.6
1925,0.0,-9.4651,0.8047,-6.9565,-1.113,-1.6696
1930,-0.115,-9.6184,0.6898,-6.887,-1.3217,-1.6696
1935,0.0,-9.5418,0.6131,-6.887,-1.2522,-1.8087
1940,0.0383,-9.3885,0.8814,-6.8174,-1.113,-1.8087
1945,0.0383,-9.5801,0.5748,-6.7478,-0.7652,-1.8087
1950,0.0383,-9.5801,0.7281,-6.8174,-0.487,-1.7391
1955,0.0766,-9.5034,0.5365,-6.887,0.2783,-1.6
1960,0.0,-9.5418,0.6514,-7.3739,0.7652,-1.6
1965,0.0383,-9.5034,0.6898,-7.3739,0.6957,-1.6696
1970,0.0766,-9.6184,0.5748,-7.3043,0.5565,-1.6696
1975,0.0383,-9.5801,0.5748,-7.3043,0.5565,-1.5304
1980,0.0383,-9.5801,0.6514,-7.0957,0.7652,-1.4609
1985,0.0383,-9.6184,0.6131,-6.9565,0.9043,-1.3217
1990,0.0383,-9.6184,0.4982,-6.5391,1.113,-1.1826
1995,0.0383,-9.5801,0.5748,-5.9826,1.113,-1.113
2000,0.0383,-9.5801,0.4982,-5.5652,1.113,-1.0435
2005,0.0766,-9.4268,0.5748,-5.287,1.113,-0.9043
2010,0.0383,-9.6184,0.5365,-4.8696,1.2522,-0.6261
2015,0.0383,-9.5418,0.5365,-4.6609,1.1826,-0.4174
2020,0.0383,-9.5034,0.5748,-4.313,1.0435,-0.2783
2025,0.1533,-9.4651,0.4982,-4.2435,0.9043,-0.0696
2030,0.115,-9.5418,0.4215,-4.2435,0.9739,0.2087
2035,0.0383,-9.4651,0.3832,-4.4522,1.0435,0.2783
2040,0.0383,-9.4268,0.4215,-4.7304,1.113,0.6261
2045,0.0,-9.5418,0.3066,-5.0087,1.2522,0.8348
2050,0.0,-9.4651,0.4215,-5.1478,1.3913,1.0435
2055,-0.0766,-9.4651,0.4215,-5.4957,1.5304,1.113
2060,-0.0766,-9.4268,0.4215,-5.7043,1.6696,1.1826
2065,0.0,-9.3885,0.4982,-5.913,1.6,1.3217
2070,-0.0766,-9.4651,0.3832,-6.1217,1.6696,1.2522
2075,0.0,-9.3502,0.3832,-6.3304,1.6696,1.4609
2080,-0.0383,-9.5801,0.4982,-6.6783,1.7391,1.3913
2085,0.0383,-9.5418,0.7281,-6.887,1.7391,1.3217
2090,-0.0383,-9.4651,0.3832,-7.2348,1.8087,1.3217
2095,0.0,-9.5034,0.4982,-7.4435,1.8087,1.3217
2100,0.0,-9.4268,0.4982,-7.6522,1.8087,1.1826
2105,-0.0383,-9.4268,0.3449,-7.7217,1.8087,1.0435
2110,0.0383,-9.6184,0.4215,-7.7217,1.7391,0.9043
2115,0.0,-9.6567,0.4598,-7.513,1.7391,0.8348
2120,0.0383,-9.6184,0.2682,-7.4435,1.7391,0.5565
2125,0.0383,-9.7334,0.2682,-7.0261,1.8087,0.6261
2130,0.0,-9.695,0.2299,-6.5391,1.8087,0.3478
2135,0.0383,-9.7334,0.1533,-6.1913,1.7391,0.1391
2140,0.0383,-9.695,0.1916,-5.913,1.6,0.0
2145,0.0,-9.7334,0.3066,-5.5652,1.3913,-0.1391
2150,-0.0766,-9.7334,0.115,-5.0087,1.1826,-0.1391
2155,0.0383,-9.7334,0.115,-4.3826,0.9043,0.0
2160,0.0,-9.7717,0.1533,-3.6174,0.6957,-0.2783
2165,0.0,-9.7717,0.2682,-2.8522,0.6957,-0.4174
2170,0.0,-9.6567,0.115,-2.087,0.9043,-0.6261
2175,-0.0383,-9.7334,0.2682,-1.3217,0.9739,-0.9043
2180,-0.0383,-9.695,0.1533,-0.6957,1.0435,-0.9043
2185,0.0383,-9.5801,0.1916,-0.0696,1.113,-1.2522
2190,-0.0766,-9.6184,0.3066,0.487,1.1826,-1.4609
2195,-0.0766,-9.5418,0.2299,0.6957,1.2522,-1.5304
2200,-0.0766,-9.5034,0.2299,0.9043,1.3913,-1.6696
2205,-0.115,-9.4651,0.1533,0.9739,1.3913,-1.7391
2210,0.0,-9.4268,0.1916,1.113,1.6,-1.8783
2215,-0.0766,-9.5034,0.3066,1.0435,1.4609,-1.7391
2220,-0.115,-9.4268,0.2299,0.9739,1.4609,-1.6696
2225,-0.115,-9.4268,0.1916,0.8348,1.2522,-1.8783
2230,-0.0766,-9.5418,0.1916,0.7652,1.1826,-1.8087
2235,0.0,-9.4268,0.2682,0.6957,1.113,-1.7391
2240,-0.1533,-9.4651,0.2682,0.487,1.113,-1.7391
2245,-0.0383,-9.5801,0.2682,0.3478,0.9739,-1.8087
2250,-0.115,-9.4651,0.2682,0.3478,0.9043,-1.8783
2255,-0.0766,-9.5034,0.2299,0.3478,0.7652,-1.9478
2260,-0.1533,-9.5418,0.3066,0.2087,0.6957,-1.9478
2265,-0.0766,-9.3885,0.1533,-0.0696,0.7652,-1.8783
2270,0.0,-9.6184,0.3449,-0.3478,0.8348,-1.9478
2275,0.0,-9.5801,0.3832,-0.6261,0.9739,-1.9478
2280,-0.0766,-9.5418,0.2299,-0.8348,1.2522,-1.8783
2285,0.0,-9.6567,0.2299,-1.113,1.4609,-1.8087
2290,-0.0383,-9.5801,0.3449,-1.4609,1.6696,-1.8087
2295,-0.0766,-9.4268,0.1916,-1.5304,1.8087,-1.6
2300,-0.0766,-9.5801,0.2682,-1.5304,2.0174,-1.6696
2305,0.0,-9.6567,0.2682,-1.3913,2.1565,-1.6
2310,0.0,-9.5418,0.3449,-1.1826,2.2957,-1.5304
2315,-0.5748,-9.5034,0.2299,-0.8348,2.2957,-1.3913
2320,-0.0383,-9.5801,0.1533,-0.4174,2.2261,-1.2522
2325,-0.1533,-9.5418,0.3066,0.0,2.3652,-1.2522
2330,0.0,-9.4651,0.3066,0.4174,2.2957,-1.1826
2335,0.0,-9.5418,0.3066,0.6261,2.4348,-1.0435
2340,0.0,-9.5801,0.3066,0.9043,2.2957,-1.0435
2345,0.0766,-9.5418,0.3066,1.113,2.1565,-1.0435
2350,0.0,-9.5801,0.3449,1.3217,2.2261,-1.0435
2355,0.0,-9.5034,0.3066,1.5304,2.2261,-1.0435
2360,0.0,-9.5034,0.1916,1.6,2.2261,-1.0435
2365,0.115,-9.6184,0.1916,1.6696,2.2261,-1.1826
2370,0.0,-9.5418,0.2299,1.7391,2.2957,-1.1826
2375,0.0,-9.5801,0.3066,1.8087,2.087,-1.3217
2380,0.115,-9.5801,0.1916,1.8783,2.087,-1.3913
2385,0.0383,-9.5418,0.2682,1.8783,2.0174,-1.5304
2390,0.0,-9.5801,0.2299,2.087,1.8087,-1.6696
2395,0.0,-9.4651,0.115,2.2261,1.8087,-1.5304
2400,-0.0383,-9.5801,0.1533,2.2957,1.6696,-1.5304
2405,0.0383,-9.5034,0.2682,2.2957,1.6,-1.7391
2410,0.0766,-9.5418,0.2299,2.2957,1.5304,-1.7391
2415,-0.0383,-9.5034,0.0766,2.1565,1.3913,-1.7391
2420,-0.0383,-9.4268,0.115,2.087,1.3913,-1.7391
2425,0.0,-9.5034,0.2682,2.0174,1.3217,-1.7391
2430,0.0383,-9.5034,0.1916,1.9478,1.2522,-2.0174
2435,-0.0766,-9.4651,0.1533,1.8783,1.1826,-2.087
2440,0.0,-9.5418,0.1533,1.9478,1.113,-2.1565
2445,-0.115,-9.5034,0.0383,1.8783,1.0435,-2.1565
2450,0.0,-9.6184,0.2682,1.9478,0.9043,-2.2261
2455,-0.0383,-9.6184,0.115,1.9478,0.9043,-2.2957
2460,-0.0383,-9.6184,0.0766,1.9478,0.8348,-2.3652
2465,-0.1916,-9.5418,0.1533,2.1565,0.8348,-2.2957
2470,-0.0766,-9.6567,0.2299,2.0174,0.6261,-2.5043
2475,-0.115,-9.5034,0.115,2.1565,0.5565,-2.4348
2480,-0.2682,-9.5418,0.115,2.2957,0.3478,-2.5043
2485,-0.2299,-9.6184,0.1916,2.5043,0.1391,-2.5043
2490,-0.0766,-9.6184,0.1916,2.5739,0.0,-2.6435
2495,-0.115,-9.5418,0.1916,2.7826,-0.0696,-2.5739
2500,-0.1533,-9.6184,0.1533,2.9913,-0.1391,-2.6435
2505,-0.0383,-9.6567,0.1916,3.3391,-0.1391,-2.6435
2510,0.0,-9.5801,0.1533,3.687,-0.1391,-2.4348
2515,-0.0766,-9.5418,0.3066,3.8957,-0.1391,-2.4348
2520,-0.0383,-9.6567,0.1916,3.9652,0.0,-2.5043
2525,0.0,-9.5418,0.1533,4.1043,0.0696,-2.5043
2530,0.0766,-9.4651,0.115,3.9652,0.1391,-2.5043
2535,0.0,-9.5034,0.0383,3.687,0.2087,-2.5739
2540,0.0,-9.3885,0.1533,3.2,0.1391,-2.5739
2545,-0.0383,-9.4268,0.3066,2.5043,0.0696,-2.5739
2550,0.0766,-9.5418,0.3066,1.8783,-0.0696,-2.3652
2555,-0.0766,-9.3502,0.2682,1.113,0.0,-2.5739
2560,0.0383,-9.5034,0.0383,0.4174,-0.0696,-2.6435
2565,0.0383,-9.4651,0.2299,-0.2783,-0.0696,-2.713
2570,0.0,-9.5034,0.1533,-0.9043,-0.1391,-2.7826
2575,0.0,-9.5034,0.1916,-1.3217,-0.1391,-2.7826
2580,0.115,-9.5801,0.2682,-1.5304,-0.1391,-2.7826
2585,0.0766,-9.6567,0.2299,-1.3217,-0.0696,-2.9913
2590,0.0766,-9.6184,0.1916,-0.9739,-0.1391,-2.9217
2595,0.0,-9.6184,0.1533,-0.0696,-0.2087,-2.7826
2600,0.0766,-9.7334,0.0766,0.9739,-0.3478,-2.7826
2605,0.115,-9.7334,0.0766,2.1565,-0.487,-2.8522
2610,0.115,-9.7334,0.115,3.4087,-0.5565,-2.9217
2615,0.0383,-9.6567,0.2682,4.8696,-0.7652,-2.7826
2620,0.1533,-9.7717,0.2299,6.1913,-0.8348,-2.6435
2625,0.0766,-9.695,0.115,7.3043,-0.8348,-2.713
2630,0.0766,-9.6567,0.115,8.2783,-0.8348,-2.5739
2635,0.0766,-9.0053,0.1916,8.8348,-0.7652,-2.5739
2640,0.115,-9.7334,0.2682,9.1826,-0.6957,-2.5739
2645,0.0766,-9.5418,0.0383,9.3217,-0.6957,-2.5043
2650,0.1916,-9.5034,0.115,9.3217,-0.6957,-2.3652
2655,0.0383,-9.5801,0.115,9.2522,-0.5565,-2.3652
2660,0.0766,-9.5418,0.0383,8.8348,-0.4174,-2.3652
2665,0.115,-9.3502,0.1533,8.487,-0.3478,-2.1565
2670,0.0766,-9.3502,0.1533,8.0,-0.1391,-2.2261
2675,0.0,-9.3502,0.115,7.5826,0.0,-2.087
2680,0.0383,-9.4268,0.1533,7.0261,0.0696,-2.087
2685,0.1916,-9.1202,0.2299,6.6783,0.0696,-1.9478
2690,0.0766,-9.5034,0.2299,6.3304,0.1391,-1.8087
2695,0.0383,-9.3885,0.1533,6.1217,0.2783,-1.8783
2700,0.0,-9.5801,0.1533,6.0522,0.4174,-1.8783
2705,0.0766,-9.4651,0.2299,6.0522,0.3478,-1.8087
2710,0.0383,-9.5034,0.1533,6.1217,0.4174,-1.7391
2715,0.115,-9.5034,0.3066,6.3304,0.487,-1.7391
2720,0.0383,-9.5034,0.2682,6.4696,0.6261,-1.7391
2725,0.0766,-9.4268,0.3066,6.6087,0.7652,-1.6
2730,0.1533,-9.695,0.3449,6.5391,0.9043,-1.6696
2735,0.115,-9.4651,0.3066,6.5391,1.0435,-1.6
2740,0.0383,-9.5418,0.2299,6.3304,1.2522,-1.4609
2745,0.0,-9.4651,0.2299,6.2609,1.4609,-1.3913
2750,0.0383,-9.5034,0.2299,5.9826,1.6,-1.3913
2755,0.115,-9.5034,0.2299,5.7043,1.7391,-1.2522
2760,0.0766,-9.5034,0.3066,5.4957,1.8783,-1.2522
2765,0.0383,-9.4651,0.3449,5.287,1.9478,-1.1826
2770,0.0766,-9.4651,0.3066,5.1478,1.9478,-1.113
2775,0.1533,-9.3885,0.2299,5.0087,1.9478,-1.1826
2780,0.0,-9.4651,0.3066,4.8,1.8783,-1.1826
2785,0.115,-9.5801,0.3449,4.5913,1.8783,-1.1826
2790,0.0,-9.5034,0.2682,4.5913,1.9478,-1.113
2795,0.0766,-9.5418,0.4598,4.5913,1.9478,-1.1826
2800,0.0,-9.5418,0.4598,4.5217,1.8087,-1.2522
2805,0.0383,-9.5801,0.3832,4.5217,1.7391,-1.3217
2810,0.0383,-9.5034,0.3449,4.5913,1.6696,-1.3217
2815,0.0,-9.4651,0.4215,4.7304,1.6,-1.3217
2820,0.0383,-9.6567,0.3449,4.8,1.6,-1.3217
2825,0.0,-9.4651,0.4598,4.8,1.4609,-1.3217
2830,0.0,-9.5034,0.4215,4.9391,1.4609,-1.3217
2835,0.0,-9.5418,0.4982,4.9391,1.3913,-1.4609
2840,0.0,-9.5801,0.3449,4.8,1.2522,-1.3217
2845,0.0383,-9.5034,0.3066,4.8,1.113,-1.3913
2850,0.0,-9.5034,0.1916,4.7304,1.113,-1.3913
2855,0.0,-9.6184,0.3066,4.5217,1.0435,-1.3217
2860,-0.115,-9.3885,0.4598,4.3826,1.0435,-1.3913
2865,0.0383,-9.4268,0.1916,4.313,0.9739,-1.3217
2870,0.0766,-9.6184,0.2682,4.2435,0.8348,-1.4609
2875,0.0,-9.4651,0.3066,4.0348,0.8348,-1.3217
2880,0.0,-9.5034,0.2299,3.8957,0.7652,-1.3217
2885,0.0383,-9.4651,0.1916,3.8261,0.8348,-1.2522
2890,0.0383,-9.5418,0.4215,3.8261,0.6957,-1.3913
2895,0.0383,-9.5418,0.3066,3.8261,0.6957,-1.2522
2900,0.115,-9.5034,0.3832,3.9652,0.6957,-1.2522
2905,-0.0383,-9.4651,0.1916,4.0348,0.7652,-1.3913
2910,0.115,-9.5034,0.1916,4.0348,0.6957,-1.3217
2915,0.0383,-9.4651,0.2682,3.9652,0.6261,-1.3913
2920,0.0383,-9.5034,0.3832,3.9652,0.6261,-1.3217
2925,0.0766,-9.4268,0.2682,3.8957,0.6261,-1.3913
2930,0.0,-9.4651,0.2682,3.7565,0.6957,-1.3913
2935,0.0766,-9.5034,0.3066,3.4783,0.6261,-1.3913
2940,0.0,-9.5034,0.2299,3.2,0.6261,-1.2522
2945,0.0,-9.4651,0.2682,2.9217,0.5565,-1.3217
2950,0.0,-9.5418,0.3832,2.5043,0.5565,-1.3913
2955,0.0383,-9.4268,0.3066,2.2261,0.5565,-1.3217
2960,0.0,-9.5801,0.3832,1.8783,0.3478,-1.2522
2965,0.0,-9.5034,0.3832,1.6696,0.2783,-1.3217
2970,0.0383,-9.5418,0.3449,1.5304,0.2087,-1.3217
2975,0.0,-9.5034,0.3832,1.6,0.1391,-1.3217
2980,0.0,-9.4268,0.3449,1.5304,0.0696,-1.3217
2985,0.115,-9.5801,0.1916,1.4609,0.0696,-1.2522
2990,0.0383,-9.6567,0.2682,1.3913,0.1391,-1.2522
2995,0.0383,-9.5801,0.3066,1.5304,-0.1391,-1.1826
