timestamp,accX,accY,accZ,gyroX,gyroY,gyroZ
0,9.695,-0.6898,1.1879,-4.0348,5.8435,-0.1391
5,9.8483,-0.6898,1.073,-6.6783,5.2174,0.0
10,9.925,-0.8814,1.1113,-9.0435,4.8,0.0
15,9.8483,-0.9963,0.9963,-10.713,4.4522,-0.0696
20,9.8866,-1.073,1.1113,-11.9652,4.3826,-0.0696
25,9.8483,-1.1113,1.1113,-12.8,4.0348,-0.1391
30,9.8866,-1.1879,1.2263,-13.1478,3.5478,-0.2087
35,9.8483,-1.2263,1.3029,-13.0783,3.0609,-0.4174
40,9.81,-1.3795,1.1496,-12.8,2.4348,-0.5565
45,9.7334,-1.4562,1.4562,-12.4522,2.0174,-0.5565
50,9.6184,-1.4562,1.1113,-11.8957,1.5304,-0.5565
55,9.6184,-1.6095,1.2263,-10.9913,0.9043,-0.5565
60,9.6567,-1.5711,1.1879,-9.8087,0.487,-0.5565
65,9.5801,-1.6478,1.3412,-8.487,0.2783,-0.5565
70,9.6184,-1.6095,1.1879,-7.3043,-0.0696,-0.5565
75,9.4651,-1.4945,1.073,-6.3304,-0.1391,-0.6957
80,9.4268,-1.4179,1.1879,-5.5652,0.1391,-0.7652
85,9.4651,-1.1879,1.2646,-5.0087,0.2783,-0.8348
90,9.4268,-1.3412,1.3029,-4.8,0.2087,-1.113
95,9.5034,-1.2263,1.2646,-5.0783,0.2783,-1.113
100,9.4651,-1.1496,1.4179,-5.7739,0.3478,-1.1826
105,9.5418,-0.9963,1.1496,-6.4696,0.3478,-1.2522
110,9.5034,-0.843,1.2646,-7.3739,0.6261,-1.3217
115,9.5418,-0.958,1.2646,-8.4174,0.9739,-1.4609
120,9.7717,-1.073,1.1879,-9.3913,1.2522,-1.5304
125,9.5801,-1.073,1.3029,-10.4348,1.3913,-1.4609
130,9.7717,-1.1496,1.3412,-11.2696,1.3217,-1.4609
135,9.81,-1.1496,1.3029,-12.1043,0.9043,-1.3217
140,9.695,-1.1496,1.3029,-12.5913,0.2783,-1.3217
145,9.81,-1.2263,1.3029,-12.5913,-0.6957,-1.113
150,9.5034,-1.2646,1.1496,-12.3826,-1.8087,-0.9043
155,9.81,-1.3795,1.3795,-11.8957,-3.0609,-0.6957
160,9.8483,-1.3412,1.1113,-11.4783,-4.0348,-0.6261
165,9.81,-1.3412,1.1879,-10.9217,-5.1478,-0.487
170,9.81,-1.3795,1.1496,-10.5043,-5.9826,-0.5565
175,9.695,-1.3029,0.9963,-10.2261,-6.5391,-0.487
180,9.7334,-1.3795,1.1496,-10.087,-6.6087,-0.4174
185,9.6567,-1.3029,0.9963,-10.0174,-6.6783,-0.487
190,9.6184,-1.2263,1.1496,-10.087,-6.6783,-0.6957
195,9.5801,-1.3412,0.958,-10.0174,-6.6783,-0.7652
200,9.6184,-1.4179,1.0346,-9.7391,-6.8174,-0.8348
205,9.5801,-1.3412,0.9963,-9.2522,-7.3043,-0.9043
210,9.5418,-1.3412,0.9197,-8.5565,-7.9304,-1.0435
215,9.6184,-1.4179,1.2263,-7.9304,-8.5565,-1.1826
220,9.6184,-1.4179,1.073,-7.4435,-9.113,-1.2522
225,9.7334,-1.3029,1.1113,-6.9565,-9.5304,-1.3217
230,9.7717,-1.4562,0.958,-6.7478,-9.8783,-1.3217
235,9.7334,-1.3029,0.9963,-6.6783,-10.087,-1.3913
240,9.695,-1.2263,0.958,-6.6087,-10.087,-1.5304
245,9.8866,-1.3029,1.0346,-6.9565,-10.0174,-1.4609
250,9.8866,-1.2263,0.9963,-7.3043,-9.8087,-1.5304
255,9.7717,-1.073,0.9197,-7.8609,-9.5304,-1.5304
260,10.2315,-0.958,0.9963,-8.487,-9.4609,-1.5304
265,9.9633,-1.2263,0.8047,-8.9043,-9.2522,-1.6
270,10.0016,-1.2646,0.7281,-9.3217,-9.1826,-1.6696
275,9.8866,-1.1879,0.7664,-9.5304,-9.113,-1.5304
280,10.1932,-1.2263,0.6898,-9.3913,-9.0435,-1.5304
285,10.1549,-1.3029,0.843,-9.0435,-8.9043,-1.4609
290,10.1166,-1.4179,0.7664,-8.487,-8.7652,-1.3217
295,10.1549,-1.4179,0.6514,-7.7913,-8.6957,-1.113
300,10.0782,-1.2646,0.6898,-7.0957,-8.7652,-0.9739
305,10.0016,-1.3795,0.6898,-6.4,-8.6957,-0.7652
310,10.0782,-1.2646,0.4982,-5.8435,-8.9043,-0.5565
315,10.0782,-1.1496,0.6514,-5.3565,-9.0435,-0.2087
320,10.0016,-1.2646,0.6131,-5.0783,-9.4609,0.0
325,9.9633,-1.1496,0.4598,-4.9391,-9.7391,0.2087
330,10.0399,-1.073,0.6514,-4.8,-9.9478,0.4174
335,10.0399,-1.1496,0.6131,-4.7304,-9.8783,0.5565
340,9.9633,-1.1113,0.5748,-4.7304,-9.8087,0.5565
345,9.9633,-1.073,0.5365,-4.9391,-9.5304,0.6261
350,10.0016,-0.9963,0.5365,-4.8696,-9.113,0.7652
355,9.8866,-1.1113,0.4982,-4.8696,-8.487,0.7652
360,10.1166,-1.073,0.6131,-4.8696,-7.7217,0.7652
365,10.1549,-1.073,0.5748,-4.8,-6.9565,0.5565
370,10.0782,-1.4179,0.7664,-4.8696,-6.4696,0.4174
375,10.0399,-1.1496,0.6131,-4.9391,-6.1217,0.2087
380,10.0016,-1.1113,0.6131,-5.1478,-5.8435,0.0
385,10.0016,-1.0346,0.5748,-5.4261,-5.913,-0.1391
390,9.925,-1.0346,0.4982,-5.913,-6.0522,-0.2087
395,9.9633,-1.1113,0.6898,-6.4,-6.4,-0.2783
400,9.925,-1.1496,0.5365,-6.8174,-6.8174,-0.2087
405,9.925,-1.1113,0.4982,-7.1652,-7.2348,-0.2783
410,9.925,-1.1496,0.4982,-7.513,-7.6522,-0.2783
415,9.9633,-1.1879,0.5748,-7.7913,-7.8609,-0.3478
420,9.9633,-1.073,0.4598,-8.0696,-7.7913,-0.3478
425,9.8483,-0.9963,0.5365,-8.2087,-7.6522,-0.4174
430,9.925,-1.073,0.5365,-8.3478,-7.4435,-0.487
435,10.0016,-1.1113,0.5365,-8.487,-7.0957,-0.6261
440,9.8866,-0.9963,0.4982,-8.6261,-6.6087,-0.6261
445,9.9633,-1.1113,0.3832,-8.6957,-6.1217,-0.6957
450,9.8866,-0.9963,0.4982,-8.8348,-5.7739,-0.6261
455,9.9633,-1.073,0.4215,-8.7652,-5.4261,-0.6261
460,10.0016,-1.0346,0.6131,-8.9043,-5.0783,-0.5565
465,10.0399,-1.1113,0.4215,-9.113,-5.0087,-0.4174
470,10.0399,-1.2263,0.3066,-8.9739,-4.9391,-0.2783
475,9.925,-1.2646,0.4598,-8.9043,-4.8,-0.0696
480,10.0016,-1.1113,0.6131,-8.6957,-4.8,0.0696
485,10.0016,-1.2263,0.4215,-8.4174,-4.9391,0.3478
490,10.0399,-1.3029,0.4982,-8.1391,-5.0087,0.487
495,10.1166,-1.3029,0.4982,-7.7217,-5.0783,0.6261
500,10.0399,-1.3795,0.4982,-7.3739,-5.2174,0.8348
505,10.0399,-1.3029,0.5365,-6.887,-5.3565,1.0435
510,10.1549,-1.3795,0.4982,-6.4,-5.5652,1.113
515,10.1166,-1.3795,0.3449,-6.0522,-5.7043,1.3913
520,10.0782,-1.4562,0.3832,-5.7043,-5.913,1.6
525,10.0016,-1.2646,0.3832,-5.2174,-6.1217,1.8087
530,9.925,-1.3412,0.4598,-4.9391,-6.2609,2.1565
535,9.925,-1.3795,0.3832,-4.5913,-6.4,2.3652
540,9.9633,-1.3795,0.3832,-4.2435,-6.4,2.4348
545,9.8866,-1.2646,0.3832,-3.9652,-6.4,2.5739
550,9.925,-1.3029,0.3832,-3.9652,-6.2609,2.5739
555,9.925,-1.3412,0.2682,-4.0348,-6.1217,2.713
560,9.8866,-1.2646,0.3832,-3.9652,-5.913,2.713
565,9.925,-1.2263,0.3449,-3.8261,-5.8435,2.5739
570,9.9633,-1.2646,0.3449,-3.6174,-5.8435,2.5043
575,9.925,-1.3029,0.3449,-3.6174,-5.913,2.4348
580,9.8866,-1.3029,0.4598,-3.4087,-5.7739,2.2261
585,10.0399,-1.2646,0.3832,-3.1304,-5.7739,2.087
590,10.0399,-1.1496,0.6131,-2.9913,-5.5652,1.8783
595,9.925,-1.2646,0.3832,-2.8522,-5.2174,1.6696
600,9.925,-1.1879,0.4215,-2.8522,-4.7304,1.3217
605,9.8866,-1.2263,0.3832,-3.2,-4.4522,1.1826
610,9.925,-1.1879,0.3832,-3.6174,-4.313,0.8348
615,9.8483,-1.1879,0.3066,-4.3826,-4.2435,0.6957
620,9.8866,-1.1496,0.3066,-5.0087,-4.1739,0.5565
625,9.7334,-1.1496,0.3066,-5.8435,-4.4522,0.487
630,9.8866,-1.1879,0.3449,-6.4,-4.6609,0.5565
635,9.9633,-1.1879,0.3449,-7.1652,-5.0087,0.5565
640,9.925,-1.1496,0.3449,-7.7217,-5.1478,0.6261
645,9.9633,-1.2646,0.4982,-8.1391,-5.2174,0.6957
650,9.9633,-1.2263,0.3832,-8.3478,-5.2174,0.7652
655,9.8866,-1.2263,0.4215,-8.487,-5.1478,0.9739
660,9.8866,-1.3029,0.5365,-8.5565,-5.287,0.9043
665,9.9633,-1.3412,0.3832,-8.1391,-5.4957,0.8348
670,9.8866,-1.3029,0.3449,-7.513,-5.7739,1.0435
675,10.0399,-1.4945,0.2682,-6.8174,-6.0522,1.0435
680,9.8866,-1.3029,0.2682,-5.9826,-6.0522,1.113
685,9.925,-1.3412,0.3449,-5.2174,-6.1913,1.113
690,10.0399,-1.4562,0.4982,-4.7304,-5.9826,1.2522
695,10.1166,-1.4179,0.115,-4.1043,-5.9826,1.0435
700,10.0399,-1.3029,0.3066,-3.9652,-5.8435,1.0435
705,10.1549,-1.2263,0.3832,-3.8957,-5.9826,1.0435
710,10.0782,-1.2263,0.2682,-4.0348,-5.913,1.113
715,10.0399,-1.3029,0.3449,-4.5217,-5.9826,1.3217
720,10.0016,-1.1879,0.1916,-4.8,-5.913,1.6
725,10.0782,-1.2263,0.3449,-5.0087,-5.5652,1.8783
730,10.0782,-1.3029,0.2299,-4.8696,-5.3565,2.2261
735,10.0016,-1.1879,0.1916,-4.8696,-5.0087,2.7826
740,10.0782,-1.1496,0.1533,-4.8,-4.8,3.3391
745,10.1549,-1.2263,0.0383,-4.8,-4.6609,3.8957
750,10.1932,-1.3029,-0.2682,-4.9391,-4.313,4.313
755,10.2315,-1.1496,-0.2299,-5.3565,-3.4783,4.8696
760,10.1932,-0.958,-0.1533,-6.2609,-2.5739,5.1478
765,10.1932,-0.9197,-0.1916,-7.3739,-1.3913,5.287
770,10.1932,-0.9197,-0.3066,-8.6957,-0.3478,5.2174
775,10.2698,-0.8814,-0.1533,-10.0174,0.8348,5.1478
780,10.4231,-0.8814,-0.2299,-11.2696,1.9478,4.8696
785,10.3465,-0.9197,-0.2299,-12.2435,2.9217,4.4522
790,10.2315,-0.8814,-0.1533,-12.7304,3.4783,4.0348
795,10.2698,-1.0346,-0.1533,-12.7304,3.687,3.7565
800,10.1932,-1.0346,0.115,-12.3826,3.3391,3.687
805,10.3082,-1.2263,0.2299,-11.687,2.7826,3.7565
810,10.0399,-1.2263,0.3066,-10.713,2.1565,4.1043
815,10.1549,-1.5328,0.115,-10.0174,1.9478,4.4522
820,9.925,-1.4945,-0.1533,-9.113,1.8783,4.8
825,10.0399,-1.6095,0.1533,-8.6957,1.8783,5.1478
830,9.8483,-1.6478,0.115,-8.2783,1.8087,5.4957
835,9.8483,-1.6478,-0.0766,-8.0,1.6,5.7043
840,9.7334,-1.7627,0.0,-7.9304,1.2522,5.8435
845,9.7717,-1.6478,-0.0766,-8.0696,0.9739,5.6348
850,9.81,-1.7627,0.1916,-8.4174,0.8348,5.287
855,9.7334,-1.4562,0.0383,-9.2522,0.8348,4.7304
860,9.695,-1.3412,-0.0766,-10.1565,0.8348,3.687
865,9.8866,-1.3795,0.115,-11.3391,0.9739,2.713
870,9.7334,-1.3412,0.2299,-12.2435,1.2522,1.7391
875,9.925,-1.4562,0.2299,-12.9391,1.7391,0.7652
880,9.81,-1.3029,0.3449,-13.4261,2.4348,-0.2087
885,9.8483,-1.4945,0.4215,-13.4261,3.2696,-1.1826
890,9.81,-1.4562,0.4215,-13.2174,3.8957,-2.0174
895,9.7334,-1.4945,0.3832,-12.313,4.313,-2.5739
900,9.695,-1.5328,0.4982,-11.0609,4.3826,-2.9217
905,9.7334,-1.6478,0.6514,-9.3913,4.313,-3.2696
910,9.925,-1.5711,0.7281,-7.6522,3.9652,-3.3391
915,9.7717,-1.6861,0.5365,-5.7739,3.4783,-3.2
920,9.695,-1.7244,0.4982,-4.0348,2.9217,-3.1304
925,9.81,-1.8011,0.4598,-2.713,2.2261,-2.9217
930,9.7334,-1.6861,0.3449,-1.6,1.7391,-2.7826
935,9.6184,-1.5711,0.3832,-0.9043,1.0435,-2.5739
940,9.6567,-1.4562,0.4215,-0.6957,0.5565,-2.5043
945,9.695,-1.3412,0.4215,-0.9043,0.2087,-2.4348
950,9.7717,-1.3029,0.3066,-1.4609,0.0,-2.2957
955,9.695,-1.1113,0.4215,-2.3652,0.1391,-2.3652
960,9.6184,-1.073,0.3832,-3.2696,0.5565,-2.2957
965,9.695,-1.4179,0.6131,-4.313,1.0435,-2.2261
970,9.81,-1.2263,0.5365,-5.2174,1.5304,-2.087
975,9.7334,-1.3029,0.5365,-6.1217,1.7391,-2.0174
980,9.81,-1.3029,0.5365,-6.8174,1.7391,-1.8087
985,9.81,-1.2646,0.8047,-7.2348,1.5304,-1.6
990,9.81,-1.4179,0.6514,-7.3043,1.2522,-1.2522
995,9.7717,-1.3029,0.6514,-6.9565,0.5565,-0.9043
1000,9.7717,-1.4179,0.6514,-6.6087,-0.3478,-0.4174
1005,9.81,-1.4562,0.7664,-5.9826,-1.113,-0.0696
1010,9.81,-1.4562,0.5748,-5.3565,-2.2957,0.2087
1015,9.8483,-1.5711,0.4982,-4.7304,-3.2696,0.5565
1020,9.9633,-1.6478,0.4982,-4.1043,-4.2435,0.7652
1025,9.8483,-1.5711,0.3449,-3.4783,-4.9391,0.8348
1030,9.8866,-1.3795,0.3449,-2.9217,-5.6348,0.8348
1035,10.0399,-1.3795,0.3066,-2.4348,-5.7043,1.0435
1040,9.9633,-1.3412,0.3066,-2.1565,-5.3565,0.9739
1045,10.0399,-1.3412,0.1916,-1.8783,-4.4522,0.9043
1050,10.0399,-1.1879,0.2682,-1.7391,-3.1304,0.9043
1055,10.0782,-1.2263,0.2299,-1.7391,-1.7391,0.8348
1060,10.1932,-1.2646,0.1533,-1.7391,-0.3478,0.8348
1065,10.1166,-1.1879,0.0766,-2.0174,0.487,0.9043
1070,10.1932,-1.1879,0.2682,-2.5739,0.9739,0.9043
1075,10.2315,-1.2263,0.1533,-3.3391,0.6957,1.0435
1080,10.1166,-1.2263,0.1533,-4.2435,0.1391,1.1826
1085,10.0782,-1.3029,0.2299,-4.8696,-0.6957,1.4609
1090,10.0399,-1.3795,0.3066,-5.3565,-1.8783,1.7391
1095,10.0016,-1.3795,0.1533,-5.6348,-2.7826,2.0174
1100,10.0399,-1.4562,0.3066,-5.6348,-3.8261,2.2261
1105,10.0016,-1.4945,0.2682,-5.6348,-4.5913,2.3652
1110,9.8483,-1.5328,0.115,-5.1478,-5.4261,2.4348
1115,9.8483,-1.5328,0.0766,-5.0087,-5.7739,2.4348
1120,9.7717,-1.6095,-0.0383,-4.8696,-6.1217,2.3652
1125,9.8483,-1.4562,-0.3066,-4.4522,-6.1913,2.0174
1130,9.7334,-1.6861,-0.1533,-4.5913,-5.9826,1.6696
1135,9.8866,-1.4945,-0.1533,-4.5913,-5.0783,1.113
1140,9.8483,-1.4179,-0.2299,-4.8696,-3.8957,0.5565
1145,9.9633,-1.4945,-0.3066,-4.8696,-2.5043,0.0
1150,9.925,-1.4945,-0.0383,-5.0087,-1.0435,-0.487
1155,9.8866,-1.4562,-0.2299,-5.0087,0.2087,-1.1826
1160,9.925,-1.4562,-0.0766,-4.8,0.9739,-1.6696
1165,9.925,-1.4562,-0.1533,-4.3826,1.3913,-2.087
1170,10.0399,-1.4562,-0.0766,-4.1739,1.6696,-2.5739
1175,9.9633,-1.4179,0.0,-3.9652,1.8783,-2.9217
1180,10.0782,-1.6095,0.0383,-3.687,2.1565,-3.2696
1185,10.0399,-1.4562,0.0766,-3.7565,2.1565,-3.4783
1190,10.1166,-1.6095,0.1916,-3.7565,2.0174,-3.687
1195,10.0782,-1.6095,0.0383,-3.6174,1.6,-3.7565
1200,10.0782,-1.6095,0.1533,-3.2696,0.9739,-3.8261
1205,10.1166,-1.4945,0.0383,-2.9913,0.487,-3.8957
1210,10.0016,-1.7244,-0.115,-2.713,0.0696,-3.8261
1215,10.0399,-1.7244,-0.115,-2.4348,0.0,-3.7565
1220,10.0399,-1.6861,-0.1533,-2.2261,0.1391,-3.6174
1225,9.925,-1.5328,0.0,-2.5739,0.2087,-3.4087
1230,10.0399,-1.5711,-0.0766,-3.2,0.3478,-3.1304
1235,10.1166,-1.5328,0.0,-3.9652,0.6957,-2.8522
1240,9.9633,-1.4179,-0.1916,-4.8696,1.113,-2.4348
1245,10.0399,-1.4179,-0.1533,-5.8435,1.8783,-2.0174
1250,10.0399,-1.4945,-0.115,-6.7478,2.713,-1.5304
1255,10.1166,-1.4179,0.2299,-7.0957,3.5478,-1.1826
1260,10.0016,-1.5711,0.0383,-7.0957,4.1739,-0.8348
1265,9.9633,-1.4179,0.2299,-6.887,4.5217,-0.3478
1270,10.1166,-1.6095,0.2682,-6.1217,4.5217,0.0
1275,10.1166,-1.4945,0.3066,-5.4957,4.2435,0.3478
1280,10.1166,-1.5711,0.2682,-4.5913,3.7565,0.6957
1285,10.0782,-1.5711,0.2299,-3.8957,3.2696,0.6957
1290,10.1549,-1.6861,0.4982,-2.9913,2.9913,0.9043
1295,10.1932,-1.5711,0.1533,-2.087,2.7826,0.8348
1300,10.1932,-1.4945,0.1916,-1.3217,2.713,0.9043
1305,10.0782,-1.4179,0.115,-0.6261,2.7826,0.9739
1310,10.1166,-1.3029,-0.0383,-0.1391,2.9217,1.1826
1315,10.1166,-1.3795,-0.0383,0.1391,3.1304,1.6
1320,10.1166,-1.3795,-0.115,-0.0696,3.5478,1.9478
1325,10.1549,-1.2646,-0.1916,-0.487,4.1043,2.3652
1330,10.0399,-1.1496,-0.0383,-1.113,4.6609,2.5739
1335,10.0399,-1.1113,-0.0766,-1.8783,5.0783,2.9217
1340,10.0782,-1.2263,-0.0383,-2.8522,5.2174,3.0609
1345,9.9633,-1.2646,0.0383,-4.0348,5.0783,3.1304
1350,9.9633,-1.2263,0.0383,-5.2174,4.8696,3.1304
1355,9.9633,-1.2646,0.115,-6.1913,4.3826,3.0609
1360,9.9633,-1.1879,0.1533,-6.8174,3.8957,2.7826
1365,9.9633,-1.2646,-0.0383,-7.0261,3.6174,2.6435
1370,9.8866,-1.3029,0.1533,-7.0261,3.2696,2.3652
1375,9.9633,-1.4562,0.115,-6.9565,3.2696,2.2261
1380,9.925,-1.4179,0.2299,-6.6783,3.5478,1.9478
1385,9.925,-1.5328,0.0766,-6.3304,4.1043,1.7391
1390,9.925,-1.4945,0.1533,-5.7739,4.6609,1.3913
1395,9.8866,-1.5328,0.1916,-5.2174,5.2174,0.9739
1400,9.9633,-1.6095,0.0766,-4.5913,5.913,0.7652
1405,9.81,-1.5328,0.1916,-3.8261,6.4696,0.4174
1410,9.81,-1.4945,0.115,-3.4783,6.6783,0.3478
1415,9.925,-1.5328,0.3066,-3.2,6.6783,0.2087
1420,9.7717,-1.3795,0.2682,-3.1304,6.5391,0.0696
1425,9.81,-1.4179,0.2299,-3.2,6.4696,0.2783
1430,10.0016,-1.4945,0.3832,-3.2,6.4,0.487
1435,9.8866,-1.5328,0.3832,-2.9217,6.4,0.7652
1440,9.9633,-1.6478,0.4598,-2.5043,6.1913,1.2522
1445,9.925,-1.6478,0.4598,-1.8783,5.8435,1.7391
1450,10.0399,-1.6478,0.4982,-1.1826,5.4957,2.1565
1455,9.9633,-1.5711,0.4982,-0.3478,5.0783,2.5739
1460,10.0782,-1.4945,0.5748,0.5565,4.7304,2.9217
1465,10.0399,-1.4179,0.3449,1.3217,4.3826,3.2696
1470,10.0399,-1.3029,0.3832,2.0174,4.1043,3.5478
1475,10.0399,-1.2646,0.3066,2.6435,3.9652,3.8957
1480,10.0782,-1.3795,0.3832,2.8522,3.8261,4.1043
1485,10.0399,-1.1879,0.2299,2.713,3.8261,4.1739
1490,10.1549,-1.1496,0.3066,2.1565,3.8261,4.5217
1495,10.0399,-1.1879,0.2299,1.4609,3.9652,4.4522
1500,10.0399,-1.1879,0.1916,0.3478,4.1043,4.5217
1505,9.925,-1.2263,0.3449,-0.6957,4.1043,4.7304
1510,9.925,-1.3795,0.1916,-1.6696,4.1043,4.7304
1515,10.0016,-1.3795,0.3832,-2.3652,3.8261,4.8
1520,9.8866,-1.3029,0.3832,-2.9913,3.4783,4.6609
1525,9.8483,-1.3795,0.4215,-3.4087,2.9913,4.5217
1530,9.8483,-1.4179,0.3449,-3.8261,2.6435,4.313
1535,9.7334,-1.3795,0.3449,-4.2435,2.5043,4.2435
1540,9.7334,-1.3029,0.3449,-4.4522,2.4348,4.1739
1545,9.81,-1.3795,0.3066,-4.7304,2.5739,4.1043
1550,9.7334,-1.3412,0.3066,-5.4261,2.6435,4.1043
1555,9.81,-1.3795,0.3066,-6.0522,2.6435,4.1043
1560,9.7334,-1.3795,0.3449,-6.9565,2.713,3.9652
1565,9.81,-1.3029,0.3066,-7.8609,2.7826,3.9652
1570,9.81,-1.3412,0.3449,-8.6957,2.7826,3.9652
1575,9.7717,-1.3795,0.3449,-9.4609,2.7826,4.0348
1580,9.925,-1.3795,0.2682,-9.9478,2.6435,4.1739
1585,9.81,-1.3412,0.4215,-10.2261,2.5739,4.3826
1590,9.8483,-1.3795,0.4215,-10.4348,2.2957,4.5217
1595,10.0016,-1.5328,0.2299,-10.2261,1.8783,4.8
1600,10.0016,-1.6095,0.3449,-9.9478,1.4609,5.0087
1605,9.9633,-1.6478,0.3066,-9.6696,1.0435,5.287
1610,9.925,-1.7627,0.2299,-9.113,0.4174,5.3565
1615,9.81,-1.6861,0.2682,-8.3478,0.0,5.4261
1620,9.8483,-1.8011,0.4982,-7.7913,-0.3478,5.4261
1625,9.81,-1.7627,0.3066,-7.2348,-0.7652,5.3565
1630,9.695,-1.7627,0.3449,-6.7478,-1.0435,5.0087
1635,9.7334,-1.8011,0.4598,-6.4,-1.2522,4.7304
1640,9.7717,-1.8394,0.4215,-6.1217,-1.3913,4.313
1645,9.81,-1.7627,0.3832,-5.7739,-1.2522,3.8957
1650,9.7717,-1.6861,0.3832,-5.3565,-1.113,3.4783
1655,9.81,-1.6478,0.3066,-5.0087,-0.7652,2.9217
1660,9.7334,-1.6095,0.4215,-4.5913,-0.5565,2.4348
1665,9.7334,-1.4945,0.3832,-4.2435,-0.6261,2.2261
1670,9.6567,-1.6095,0.4598,-4.2435,-0.9043,2.0174
1675,9.7334,-1.5328,0.2299,-4.4522,-1.3913,1.9478
1680,9.6184,-1.4179,0.3832,-5.0087,-2.0174,1.8783
1685,9.6184,-1.5328,0.3832,-5.6348,-2.6435,1.7391
1690,9.5801,-1.4179,0.2682,-6.1913,-3.3391,1.6
1695,9.6184,-1.4945,0.4215,-6.6783,-3.8261,1.5304
1700,9.6184,-1.4179,0.3832,-6.9565,-4.2435,1.3913
1705,9.5801,-1.4179,0.4215,-7.0957,-4.6609,1.3913
1710,9.6184,-1.4945,0.4982,-6.8174,-5.0783,1.5304
1715,9.695,-1.3795,0.3832,-6.5391,-5.4261,1.7391
1720,9.8483,-1.3795,0.3449,-6.1217,-5.6348,1.9478
1725,9.8866,-1.4179,0.4215,-5.913,-5.5652,2.3652
1730,10.0016,-1.3795,0.3066,-5.3565,-5.0087,2.5739
1735,10.0399,-1.3412,0.3449,-5.0783,-4.6609,2.8522
1740,10.0016,-1.4179,0.3066,-4.8,-4.6609,3.2
1745,10.0782,-1.3795,0.3449,-5.0783,-5.287,3.687
1750,10.0399,-1.4179,0.2682,-5.3565,-6.2609,4.313
1755,10.0399,-1.4562,0.3066,-5.913,-7.3043,5.0087
1760,10.0399,-1.4562,0.3066,-6.6087,-8.0696,5.7043
1765,10.0399,-1.7244,0.2682,-7.2348,-8.2783,6.2609
1770,10.1166,-1.6861,0.1916,-7.8609,-8.2087,6.6087
1775,9.8866,-1.6861,0.3449,-8.2783,-7.7913,6.7478
1780,9.925,-1.8394,0.3066,-8.4174,-7.3043,6.887
1785,10.0399,-1.9927,0.3066,-8.0696,-6.887,6.887
1790,10.0016,-1.916,0.3449,-7.4435,-6.2609,6.887
1795,10.0782,-2.0693,0.2682,-6.3304,-5.6348,6.8174
1800,10.0016,-1.9927,0.3449,-4.9391,-5.0087,6.5391
1805,9.925,-1.9927,0.4598,-3.2,-4.3826,6.1913
1810,10.0399,-2.1076,0.4598,-1.113,-3.8957,5.913
1815,9.8483,-2.0693,0.3066,0.9043,-3.8957,5.6348
1820,9.8483,-1.9543,0.3066,2.713,-4.1043,5.4957
1825,9.81,-1.9927,0.2682,4.1043,-4.9391,5.287
1830,9.695,-1.8777,0.3066,5.1478,-5.7739,5.3565
1835,9.6184,-1.8011,0.115,5.6348,-6.6783,5.4261
1840,9.6567,-1.7627,0.0,5.7739,-7.5826,5.4957
1845,9.6184,-1.6478,-0.1916,5.287,-8.487,5.6348
1850,9.5034,-1.6861,0.0,4.3826,-9.2522,5.5652
1855,9.5418,-1.4945,0.0383,3.0609,-9.8087,5.3565
1860,9.5034,-1.4179,-0.0766,1.3913,-10.2261,5.287
1865,9.5034,-1.4179,0.115,0.0696,-10.4348,5.1478
1870,9.6567,-1.4945,0.3066,-0.9739,-10.7826,5.0087
1875,9.7334,-1.5328,0.2299,-1.7391,-10.9217,5.0087
1880,9.7717,-1.5711,0.2299,-1.8783,-10.9913,4.8696
1885,9.7334,-1.6861,0.2682,-2.0174,-10.9913,4.7304
1890,9.7334,-1.7627,0.2682,-1.8087,-11.2696,4.7304
1895,9.7717,-1.8394,0.3066,-1.3217,-11.6174,4.7304
1900,9.7334,-1.8394,0.3449,-0.9043,-12.3826,4.9391
1905,9.8483,-1.8011,0.3066,-0.5565,-12.8696,5.0783
1910,9.695,-1.916,0.1916,-0.3478,-13.4957,5.1478
1915,9.7334,-1.9543,0.115,-0.2087,-13.9826,5.287
1920,9.81,-1.9927,-0.0383,-0.1391,-14.3304,5.4261
1925,9.7717,-2.031,-0.0383,0.3478,-14.6087,5.4957
1930,9.7717,-2.1076,-0.115,0.7652,-14.7478,5.4261
1935,9.6567,-2.0693,0.0766,1.1826,-14.9565,5.287
1940,9.8483,-2.1459,-0.115,1.8087,-15.5826,5.287
1945,9.8866,-2.1076,-0.1533,2.6435,-16.1391,5.3565
1950,9.8866,-2.1076,-0.0766,3.4783,-16.2783,5.287
1955,9.9633,-2.1459,-0.115,4.4522,-16.1391,5.4957
1960,10.0399,-2.0693,-0.115,5.3565,-15.513,5.4957
1965,9.8483,-2.1076,-0.3066,6.2609,-14.4696,5.4957
1970,9.81,-2.0693,-0.1533,6.9565,-13.7739,5.4261
1975,9.8866,-2.0693,-0.0766,7.4435,-13.4261,5.287
1980,9.925,-1.9543,-0.0383,7.9304,-13.5652,5.0783
1985,9.8483,-1.9543,0.0,8.3478,-13.8435,4.8696
1990,9.9633,-1.916,-0.0383,8.4174,-14.1913,4.8696
1995,9.9633,-1.8394,-0.0766,8.4174,-14.6087,4.5217
2000,9.8866,-1.7627,-0.0766,8.3478,-14.9565,4.1739
2005,9.8866,-1.8394,-0.3066,8.3478,-15.2348,3.687
2010,10.0016,-1.8011,-0.3832,8.2783,-15.513,3.2696
2015,10.0016,-1.7627,-0.3449,8.0,-15.5826,3.0609
2020,10.0016,-1.7627,-0.4982,7.7913,-15.7913,2.8522
2025,9.9633,-1.6861,-0.5365,7.3043,-15.8609,2.8522
2030,9.8866,-1.6095,-0.5365,6.7478,-16.1391,2.713
2035,9.925,-1.4945,-0.6131,5.9826,-16.3478,2.713
2040,10.0016,-1.4179,-0.5365,5.2174,-16.7652,2.6435
2045,9.8866,-1.4179,-0.7281,4.2435,-17.1826,2.713
2050,10.0399,-1.4179,-0.6514,2.9913,-17.1826,2.8522
2055,10.0016,-1.3412,-0.6514,1.8087,-16.8348,3.0609
2060,9.8866,-1.3029,-0.6514,0.6261,-16.4174,3.3391
2065,9.7717,-1.3795,-0.3832,-0.3478,-16.0696,3.4783
2070,9.7717,-1.1879,-0.4982,-1.2522,-16.3478,3.6174
2075,9.695,-1.3412,-0.3449,-2.0174,-17.2522,3.7565
2080,9.695,-1.4179,-0.4598,-2.6435,-18.5739,3.8957
2085,9.695,-1.4562,-0.4982,-3.0609,-20.2435,3.9652
2090,9.7334,-1.6095,-0.3832,-3.4783,-21.913,4.0348
2095,9.8483,-1.6478,-0.4215,-3.6174,-23.1652,4.1043
2100,9.8483,-1.5711,-0.6898,-3.5478,-24.1391,3.9652
2105,9.925,-1.8011,-0.7281,-3.2696,-24.4174,3.7565
2110,9.925,-1.8777,-0.843,-3.1304,-24.0696,3.4783
2115,9.925,-1.8777,-0.843,-3.0609,-23.3739,2.9217
2120,9.81,-2.0693,-0.958,-2.9913,-22.6087,2.7826
2125,9.7717,-1.8777,-0.958,-3.1304,-22.0522,2.713
2130,9.7717,-1.916,-0.958,-3.4783,-21.6348,2.7826
2135,9.695,-2.0693,-1.0346,-3.9652,-21.5652,3.0609
2140,9.81,-1.9543,-1.1113,-4.5913,-21.3565,3.0609
2145,9.81,-1.8394,-1.1879,-5.4261,-21.2174,3.0609
2150,9.8866,-1.8011,-1.1113,-6.6087,-20.7304,3.2
2155,10.0782,-1.7627,-1.2263,-8.0,-19.8957,3.2696
2160,10.1932,-1.7244,-1.2263,-9.5304,-18.5739,3.4087
2165,10.1549,-1.7244,-1.3412,-11.1304,-16.9739,3.5478
2170,10.3848,-1.7244,-1.2646,-12.5217,-15.3739,3.8957
2175,10.3465,-1.7627,-1.3412,-13.5652,-13.8435,4.3826
2180,10.4231,-1.6861,-1.2263,-14.4696,-12.1739,4.7304
2185,10.3465,-1.8011,-1.073,-14.9565,-10.9913,5.287
2190,10.2698,-1.8394,-0.9963,-15.3739,-10.2261,5.7043
2195,10.2315,-1.8394,-0.958,-15.3043,-10.0174,6.3304
2200,10.1932,-1.8011,-1.1113,-14.7478,-10.6435,6.9565
2205,10.1166,-1.6478,-1.1879,-13.7043,-11.8261,7.7217
2210,10.1166,-1.8011,-1.0346,-12.1739,-13.5652,8.487
2215,10.2698,-1.9543,-1.2646,-10.5043,-14.6783,9.0435
2220,10.3082,-1.9927,-1.3795,-8.6957,-15.0261,9.4609
2225,10.3082,-1.916,-1.4179,-6.887,-14.4,9.8783
2230,10.2698,-1.8777,-1.5328,-5.5652,-13.0087,10.2261
2235,10.3848,-1.9543,-1.6095,-4.5217,-11.2,10.5043
2240,10.2698,-1.8394,-1.6478,-3.8261,-9.0435,10.5043
2245,10.1932,-1.8777,-1.5328,-3.3391,-6.9565,10.5739
2250,10.1549,-1.8394,-1.6478,-3.1304,-5.4957,10.713
2255,10.0782,-1.7244,-1.4945,-2.8522,-4.6609,11.0609
2260,10.0016,-1.8011,-1.4945,-2.6435,-4.7304,11.4087
2265,10.0399,-1.7627,-1.4562,-2.5739,-5.4261,11.9652
2270,10.1549,-1.8394,-1.4179,-2.3652,-5.9826,12.3826
2275,10.0399,-1.7244,-1.4945,-2.2957,-5.9826,12.8
2280,9.9633,-1.5328,-1.3795,-2.0174,-5.6348,13.0783
2285,9.8866,-1.5328,-1.2646,-1.9478,-4.8696,13.4261
2290,10.0016,-1.6861,-1.1879,-1.9478,-3.8957,13.6348
2295,10.0016,-1.4945,-1.1113,-2.2261,-2.9217,13.7739
2300,9.925,-1.4945,-1.3029,-2.6435,-2.2957,14.0522
2305,10.2698,-1.5711,-1.1496,-3.0609,-1.8087,14.4
2310,10.1932,-1.5328,-1.3029,-3.5478,-1.6696,14.7478
2315,10.1549,-1.7627,-1.3795,-4.313,-1.8087,14.9565
2320,10.1932,-1.6861,-1.3029,-5.1478,-1.9478,15.2348
2325,10.1549,-1.6095,-1.0346,-6.0522,-2.3652,15.6522
2330,9.8866,-1.7244,-0.958,-6.887,-2.5043,16.2087
2335,10.0016,-1.7627,-1.0346,-7.5826,-2.8522,16.9043
2340,10.0782,-1.8777,-0.8814,-8.0,-3.4783,17.5304
2345,10.0399,-1.9543,-1.1113,-8.1391,-4.2435,18.2261
2350,10.2315,-2.031,-0.958,-7.9304,-5.0783,19.1304
2355,10.2315,-2.1076,-1.1879,-7.5826,-5.4957,19.8957
2360,10.2698,-2.031,-1.3795,-7.0261,-5.5652,20.5217
2365,10.2315,-2.031,-1.3795,-6.4696,-5.0087,21.3565
2370,10.1932,-1.9927,-1.5711,-6.0522,-4.1739,22.1913
2375,10.1166,-1.9543,-1.3029,-5.913,-3.2696,23.2348
2380,9.925,-1.8777,-1.5328,-5.8435,-2.2957,24.2783
2385,9.9633,-1.916,-1.4562,-5.913,-1.6,25.6
2390,10.1166,-2.031,-1.5328,-5.9826,-0.9043,26.713
2395,10.1932,-2.0693,-1.3795,-6.1217,-0.2087,27.6174
2400,10.1932,-2.1459,-1.3795,-5.9826,0.2087,28.4522
2405,9.925,-2.1459,-1.3412,-5.8435,0.6261,29.2174
2410,10.0782,-2.2992,-1.3029,-5.5652,1.0435,30.0522
2415,10.1932,-2.4908,-1.3029,-5.0087,1.1826,30.6783
2420,10.1549,-2.6058,-1.1879,-4.1739,1.0435,31.1652
2425,10.1932,-2.7207,-1.1496,-3.3391,0.4174,31.3739
2430,10.1166,-2.7591,-1.1879,-2.5739,-0.4174,31.7217
2435,10.0782,-2.9123,-1.1113,-1.8783,-1.2522,31.9304
2440,10.1166,-3.1039,-1.1113,-1.3913,-2.087,32.1391
2445,10.0016,-2.9507,-1.4179,-1.2522,-2.6435,32.3478
2450,9.9633,-2.874,-1.5328,-1.2522,-2.7826,32.6261
2455,9.81,-2.9507,-1.7244,-1.5304,-2.713,32.8348
2460,9.925,-2.9123,-2.031,-2.3652,-2.1565,33.2522
2465,9.8866,-2.9123,-1.9927,-3.5478,-1.113,33.3217
2470,9.695,-2.7591,-2.031,-4.8696,0.5565,33.3217
2475,9.6184,-2.9123,-1.8394,-5.7739,2.6435,33.5304
2480,9.695,-2.9123,-1.6095,-5.6348,4.6609,33.8087
2485,9.4651,-2.9507,-1.5328,-4.5217,6.4,34.087
2490,9.4651,-2.989,-1.4562,-2.4348,7.513,34.6435
2495,9.6184,-3.1423,-1.1879,0.487,8.2087,35.1304
2500,9.6567,-3.1423,-1.0346,3.5478,8.487,35.6174
2505,9.695,-3.2572,-1.073,6.5391,8.2087,36.2435
2510,9.7334,-3.3339,-1.073,9.1826,7.8609,36.6609
2515,9.7334,-3.4105,-0.9197,11.5478,7.513,37.2174
2520,9.8483,-3.3339,-0.958,13.2174,7.5826,37.7043
2525,9.81,-3.2955,-1.1113,14.0522,7.8609,38.1913
2530,9.81,-3.4105,-1.0346,13.8435,8.3478,38.5391
2535,9.5418,-3.3339,-1.3029,12.4522,8.9739,39.0261
2540,9.695,-3.2955,-1.3795,10.4348,9.5304,40.0
2545,9.695,-3.4105,-1.4945,8.487,9.8087,40.5565
2550,9.3502,-3.2572,-1.6478,6.1913,9.7391,41.3217
2555,9.4651,-3.2572,-1.6861,3.8957,9.5304,42.4348
2560,9.4268,-3.3722,-1.4945,2.087,9.2522,43.6174
2565,9.3885,-3.3722,-1.4945,0.9043,9.2522,44.7304
2570,9.3885,-3.5638,-1.4562,0.6957,9.6,45.9826
2575,9.2735,-3.6021,-1.3029,1.1826,10.4348,47.3739
2580,9.3885,-3.9087,-1.2646,2.4348,11.5478,48.9043
2585,9.3885,-3.947,-1.2263,4.1043,13.0087,50.1565
2590,9.4651,-4.1003,-1.1496,5.7739,14.1913,51.2696
2595,9.3502,-4.1386,-0.9963,7.4435,15.513,52.1739
2600,9.4651,-4.4068,-0.9197,8.9043,16.1391,53.0087
2605,9.3118,-4.3302,-0.843,9.8087,16.2087,53.3565
2610,9.3502,-4.4068,-0.843,10.2957,16.0696,53.6348
2615,9.2735,-4.3302,-0.843,10.5739,15.7913,53.7739
2620,9.2352,-4.1769,-1.1113,10.6435,15.513,53.8435
2625,9.2352,-4.2536,-0.9963,10.1565,15.2348,53.7739
2630,9.1586,-4.1769,-1.0346,9.6696,15.3043,53.5652
2635,9.1202,-4.1769,-0.958,9.0435,15.8609,53.5652
2640,9.1202,-4.1769,-1.1879,8.487,16.6261,53.6348
2645,9.2735,-4.2919,-1.2646,8.0,17.5304,53.7739
2650,9.1586,-4.2919,-1.2646,7.7217,18.2261,53.9826
2655,9.2352,-4.4068,-1.4562,7.513,18.7826,54.2609
2660,9.1586,-4.4835,-1.3795,7.5826,19.3391,54.5391
2665,9.1202,-4.4835,-1.1496,7.4435,19.5478,54.8174
2670,9.0436,-4.5984,-1.073,7.3043,19.8957,55.0957
2675,9.0053,-4.5984,-0.9197,7.1652,20.3826,55.3739
2680,9.0053,-4.5218,-0.8814,6.9565,21.0783,55.513
2685,8.8903,-4.6368,-0.5748,6.8174,21.6348,55.6522
2690,8.8137,-4.5601,-0.5365,6.6783,22.2609,55.5826
2695,8.8903,-4.7134,-0.6131,6.6783,22.6783,55.6522
2700,8.7754,-4.7517,-0.4982,6.8174,22.8174,55.6522
2705,8.5838,-4.6368,-0.4215,7.3043,22.6783,55.7913
2710,8.6221,-4.7517,-0.3832,7.513,22.6087,55.7913
2715,8.737,-4.905,-0.3066,7.8609,22.4,55.8609
2720,8.5838,-4.79,-0.4982,8.0,22.4,56.0696
2725,8.5838,-4.8284,-0.2299,8.1391,22.4696,56.1391
2730,8.5838,-4.905,-0.3449,8.3478,22.6087,56.2087
2735,8.6221,-5.0583,-0.1533,8.487,22.8174,56.1391
2740,8.5071,-5.02,-0.4215,8.8348,23.0957,56.1391
2745,8.6221,-5.0966,-0.5748,9.0435,23.513,56.1391
2750,8.4688,-5.0966,-0.3066,9.1826,23.7913,55.7913
2755,8.5838,-5.0966,-0.3066,9.113,24.1391,55.3739
2760,8.4305,-5.02,-0.1916,9.0435,25.0435,55.0261
2765,8.3921,-4.905,-0.115,8.9043,25.8087,54.7478
2770,8.4305,-5.1732,0.0383,8.6957,26.2261,54.5391
2775,8.4688,-4.9816,0.0766,8.6957,26.6435,54.0522
2780,8.3155,-5.0583,0.1916,8.4174,26.713,53.7043
2785,8.2389,-5.02,0.0383,8.2087,26.3652,53.3565
2790,8.3155,-5.1349,0.115,7.9304,25.8783,53.0783
2795,8.3921,-5.2882,0.0,7.8609,24.9739,52.3826
2800,8.5071,-5.3648,-0.1533,7.513,24.4174,51.6174
2805,8.3921,-5.3265,-0.1533,7.0957,24.2783,50.9217
2810,8.3538,-5.4032,-0.0383,6.4,24.2087,50.1565
2815,8.3155,-5.3648,-0.115,5.4957,24.0,49.3913
2820,8.2005,-5.3648,-0.2682,4.313,23.7217,48.8348
2825,8.2005,-5.5181,-0.1916,3.1304,23.3043,48.0696
2830,8.1239,-5.4798,-0.3449,1.8087,22.8174,47.6522
2835,8.0473,-5.6331,-0.3066,0.6957,22.3304,47.3043
2840,7.9323,-5.5181,-0.1916,-0.3478,21.913,47.0261
2845,8.0089,-5.5948,-0.1916,-0.9043,21.5652,46.8174
2850,7.9706,-5.7097,0.0383,-1.3217,21.4261,46.6783
2855,7.894,-5.5948,0.0,-1.6696,21.287,46.5391
2860,7.9323,-5.8247,0.0383,-2.087,21.3565,46.4696
2865,7.9706,-5.8247,0.3066,-2.087,21.2174,46.2609
2870,7.7407,-5.8247,0.2682,-1.7391,21.0087,46.1217
2875,7.6641,-5.8247,0.3449,-1.3217,20.313,45.9826
2880,7.779,-5.9396,0.3449,-0.7652,19.6174,45.7043
2885,7.779,-5.978,0.2299,-0.0696,18.9913,45.1478
2890,7.7024,-5.9013,0.3832,0.6957,18.5043,44.5913
2895,7.7024,-5.9396,0.2682,1.1826,18.5739,44.2435
2900,7.7024,-5.978,0.3449,1.5304,18.8522,44.1043
2905,7.8173,-5.978,0.3449,1.4609,19.0609,44.0348
2910,7.7024,-6.0163,0.2299,1.3217,19.4783,43.8957
2915,7.5874,-6.1313,0.1533,0.9043,19.6174,43.8261
2920,7.6257,-6.1313,0.3066,0.2783,19.5478,43.9652
2925,7.6641,-6.0546,0.2682,-0.3478,19.6174,44.2435
2930,7.5874,-6.1696,0.3449,-1.0435,19.7565,44.6609
2935,7.5874,-6.2079,0.3066,-1.6,19.4783,44.9391
2940,7.3575,-6.1313,0.3832,-2.3652,19.4087,45.1478
2945,7.4725,-6.1696,0.4215,-3.1304,19.2,45.287
2950,7.4341,-6.2079,0.3449,-3.8957,19.2696,45.3565
2955,7.2425,-6.3229,0.4598,-4.5913,19.3391,45.2174
2960,7.2042,-6.2079,0.6898,-5.2174,19.4087,45.2174
2965,7.2425,-6.3229,0.6514,-5.8435,19.4087,45.1478
2970,7.2425,-6.3995,0.7281,-6.6087,19.6174,45.0783
2975,7.2809,-6.5145,0.6898,-7.2348,19.687,44.9391
2980,7.3192,-6.5911,0.6898,-7.513,20.0348,44.5913
2985,7.2809,-6.4761,0.4598,-7.5826,20.3826,44.1739
2990,7.3192,-6.5528,0.3832,-7.4435,20.6609,43.7565
2995,7.5491,-6.6294,0.3832,-7.6522,21.0783,43.4087
