timestamp,accX,accY,accZ,gyroX,gyroY,gyroZ
0,10.4998,0.6514,0.1533,-29.287,34.713,17.8087
5,10.4614,0.6898,0.0766,-23.3739,33.1826,17.0435
10,10.3848,0.5365,0.1533,-17.5304,32.1391,16.1391
15,10.3465,0.5365,-0.0383,-10.713,31.5826,15.0957
20,10.1932,0.5365,0.0,-5.8435,31.6522,13.7043
25,10.1166,0.4982,0.0383,-1.6,32.1391,12.5913
30,9.8866,0.7664,0.0,1.6,32.9043,11.8261
35,9.6567,0.6514,0.0,3.8957,33.9478,11.2696
40,9.6567,0.5748,0.0,5.5652,35.0609,11.1304
45,9.5801,0.6898,0.0383,6.5391,36.2435,11.2696
50,9.4268,0.7281,0.2299,6.9565,37.3565,11.1304
55,9.3885,0.7281,0.1916,7.2348,38.2609,11.1304
60,9.4268,0.6514,0.3449,7.1652,39.0957,11.1304
65,9.3885,0.6898,0.3832,7.0957,39.7913,11.3391
70,9.3118,0.6898,0.4982,7.3043,40.1391,11.6174
75,9.4651,0.6131,0.5365,7.3739,40.487,11.687
80,9.5418,0.6898,0.5365,7.3043,40.9043,11.687
85,9.4651,0.8814,0.6131,7.3739,41.1826,11.687
90,9.695,0.4598,0.6514,7.5826,41.4609,11.4783
95,9.8483,0.4215,0.5748,8.0,41.6,10.713
100,9.8483,0.4598,0.5748,8.8348,41.5304,9.9478
105,9.8483,0.4598,0.6898,9.6,41.1826,9.4609
110,9.925,0.3066,0.6131,10.3652,40.5565,8.9739
115,9.8866,0.3066,0.6514,11.2,40.0696,8.487
120,9.9633,0.3449,0.6898,11.8261,39.3739,8.0
125,9.925,0.4598,0.7664,12.1739,38.8174,7.4435
130,9.8483,0.4598,0.6898,12.4522,38.0522,7.2348
135,9.9633,0.4215,0.4598,12.5217,37.3565,6.9565
140,10.0782,0.3832,0.4598,12.2435,36.313,6.6087
145,10.0016,0.4982,0.6514,11.5478,35.2696,6.2609
150,9.925,0.4982,0.6514,10.9913,34.1565,5.8435
155,9.8483,0.4598,0.7281,10.087,32.8348,5.5652
160,9.81,0.4598,0.6514,9.0435,31.513,5.3565
165,9.925,0.3066,0.6131,7.8609,29.9826,5.0783
170,9.7334,0.5365,0.7664,6.3304,28.4522,4.7304
175,9.6184,0.5748,0.6131,4.9391,26.9217,4.4522
180,9.7334,0.6131,0.7664,3.6174,25.3217,3.8957
185,9.7717,0.5365,0.7664,2.3652,23.8609,3.4783
190,9.6184,0.4215,0.843,1.0435,22.3304,3.0609
195,9.9633,0.4598,0.7664,0.0,20.8696,2.4348
200,9.6184,0.5365,0.8814,-1.113,19.2696,1.6696
205,9.6567,0.5365,0.8047,-2.087,17.8783,1.113
210,9.695,0.4598,0.8047,-3.0609,16.3478,0.4174
215,9.5418,0.4982,1.073,-3.7565,14.9565,0.0
220,9.5418,0.4982,1.0346,-4.3826,13.7043,-0.6261
225,9.5034,0.4982,0.958,-4.8696,12.5913,-1.2522
230,9.4268,0.4598,1.073,-5.287,11.4783,-1.7391
235,9.4268,0.4598,0.9963,-5.4957,10.3652,-2.2261
240,9.6184,0.5365,0.9197,-5.6348,9.6,-2.6435
245,9.6184,0.4982,1.1496,-5.7739,8.5565,-2.9913
250,9.7717,0.6131,0.9963,-5.913,7.7217,-3.2696
255,9.4268,0.6514,1.1113,-5.8435,7.0261,-3.4087
260,9.5418,0.6514,1.1113,-5.8435,6.2609,-3.687
265,9.5034,0.6898,1.1496,-5.9826,5.4957,-3.7565
270,9.5418,0.6898,1.0346,-6.2609,4.8,-3.7565
275,9.5801,0.6898,1.1113,-6.1913,4.2435,-3.7565
280,9.695,0.6898,1.073,-6.4,3.4087,-3.7565
285,9.6567,0.8047,1.0346,-6.3304,2.8522,-3.7565
290,9.8483,0.6898,1.0346,-6.6087,2.3652,-3.8957
295,9.7717,0.8047,1.1113,-6.7478,1.8087,-3.8957
300,9.7334,0.843,0.9963,-7.0261,1.3217,-3.9652
305,9.7334,0.6898,1.073,-7.0957,0.7652,-3.9652
310,9.6567,0.9197,1.2263,-7.0261,0.3478,-4.0348
315,9.81,0.843,1.0346,-6.887,0.0,-4.1043
320,9.695,0.9963,0.958,-6.4,0.0,-4.1043
325,9.81,0.8047,0.958,-5.913,0.4174,-4.1043
330,9.7334,0.9197,0.8814,-5.5652,1.113,-4.1043
335,9.81,0.9197,0.8047,-5.287,1.9478,-4.0348
340,9.695,0.9963,0.8814,-4.9391,3.0609,-3.8957
345,9.81,1.073,0.7664,-4.5217,4.1043,-3.7565
350,9.7717,1.073,0.8047,-4.2435,5.0087,-3.4087
355,9.81,1.1879,0.7664,-3.9652,5.7043,-3.2696
360,9.6567,1.1496,0.8047,-3.687,6.3304,-2.9217
365,9.81,1.3412,0.7281,-3.4783,6.7478,-2.5043
370,9.7334,1.2263,0.843,-3.3391,7.0261,-2.1565
375,9.8866,1.073,0.6514,-2.9913,7.1652,-1.8087
380,9.8866,1.3029,0.6898,-2.7826,7.3043,-1.5304
385,9.81,1.2646,0.6898,-2.5739,7.3739,-1.2522
390,9.9633,1.2263,0.8047,-2.4348,7.4435,-0.9043
395,9.8483,1.2646,0.6514,-2.4348,7.3043,-0.6957
400,9.925,1.1496,0.7664,-2.2957,7.1652,-0.487
405,10.0782,1.2263,0.6898,-2.2957,7.0261,-0.2783
410,10.0399,1.3795,0.7664,-2.4348,6.6783,-0.0696
415,10.0016,1.2263,0.7281,-2.3652,6.4696,0.0696
420,10.0016,1.1879,0.6898,-2.713,6.1217,0.2087
425,10.0016,1.2263,0.5748,-2.9913,5.8435,0.487
430,9.9633,1.1879,0.6131,-3.4087,5.6348,0.5565
435,10.0399,1.1496,0.7281,-3.7565,5.2174,0.6957
440,9.8866,1.2646,0.4982,-4.313,4.9391,0.8348
445,10.0016,1.2263,0.7281,-4.7304,4.7304,1.0435
450,9.8866,1.1879,0.6514,-5.1478,4.3826,1.1826
455,9.8483,1.2263,0.6898,-5.5652,4.2435,1.113
460,9.6567,1.1113,0.5365,-5.8435,3.9652,1.3913
465,9.7717,0.8814,0.5365,-6.1217,3.8957,1.5304
470,9.81,1.0346,0.6131,-6.3304,3.8957,1.6
475,9.81,0.9963,0.6514,-6.6783,3.8261,1.6
480,9.7717,0.9963,0.6898,-6.8174,3.9652,1.6696
485,9.81,0.9197,0.843,-6.887,4.0348,1.6696
490,9.695,0.958,0.6898,-6.7478,4.1739,1.6
495,9.8483,0.9197,0.8814,-6.7478,4.2435,1.5304
500,9.7717,0.843,0.8814,-6.3304,4.5913,1.4609
505,9.6567,0.843,0.9963,-6.1217,4.8696,1.4609
510,9.8866,0.843,0.9963,-5.6348,5.0087,1.5304
515,9.8866,0.8814,0.843,-5.3565,5.3565,1.2522
520,9.8483,0.958,1.1496,-5.0087,5.4957,1.2522
525,9.7717,0.843,0.958,-4.5913,5.6348,1.113
530,9.8483,0.7664,0.9963,-4.2435,5.7043,0.9043
535,9.8483,0.7664,0.9197,-4.1739,5.6348,0.8348
540,9.8483,0.7664,0.958,-4.0348,5.3565,0.8348
545,9.7717,0.8814,0.9197,-4.1043,5.1478,0.8348
550,9.925,0.6514,0.958,-4.1739,4.8696,0.7652
555,9.7717,0.7281,1.1496,-4.3826,4.4522,0.6957
560,9.7717,0.6131,0.8814,-4.5217,4.2435,0.6261
565,9.6184,0.6898,0.843,-4.6609,3.7565,0.6261
570,9.7717,0.6514,1.0346,-4.8,3.5478,0.4174
575,10.0399,0.7664,0.958,-4.8,3.2696,0.2783
580,9.81,0.6514,1.1113,-4.5913,3.2696,0.2087
585,9.7717,0.6514,0.7664,-4.2435,3.2,0.0696
590,9.7717,0.7281,0.9197,-4.0348,3.1304,-0.0696
595,9.81,0.6514,0.8814,-3.7565,3.1304,-0.2783
600,9.7334,0.6898,0.8814,-3.5478,3.1304,-0.2087
605,9.81,0.7664,0.9963,-3.5478,2.9913,-0.4174
610,9.81,0.7664,0.9963,-3.687,2.9913,-0.4174
615,9.7334,0.6898,0.9197,-3.8957,2.9217,-0.3478
620,9.8483,0.8047,1.0346,-4.0348,2.6435,-0.487
625,9.7334,0.7664,0.9963,-4.1739,2.3652,-0.6261
630,9.7334,0.9963,0.958,-4.4522,2.2261,-0.6957
635,9.8483,0.8047,0.9197,-4.7304,2.0174,-0.7652
640,9.7717,0.8047,0.958,-5.0087,1.7391,-0.8348
645,9.925,0.6898,0.958,-5.2174,1.6696,-0.9043
650,9.8866,0.843,0.9963,-5.2174,1.4609,-0.9739
655,9.8483,0.7281,0.9963,-5.3565,1.3217,-0.9739
660,9.81,0.7281,0.8814,-5.3565,1.2522,-1.113
665,9.6184,0.8047,0.9197,-5.1478,1.2522,-1.113
670,9.5801,0.8814,0.843,-4.8696,1.1826,-1.1826
675,9.81,0.8047,0.843,-4.5913,1.2522,-1.1826
680,9.7717,0.6898,0.8814,-4.313,1.3913,-1.1826
685,9.6567,0.8047,0.8047,-3.8261,1.3913,-1.1826
690,9.7717,0.8047,0.9963,-3.5478,1.6,-1.2522
695,9.81,0.7664,0.8814,-3.2,1.6,-1.0435
700,9.8483,0.7664,0.958,-2.9217,1.7391,-1.113
705,9.7717,0.8814,0.958,-2.713,1.7391,-1.113
710,9.7334,0.9197,0.8814,-2.6435,1.9478,-1.113
715,9.81,0.7281,0.9197,-2.5043,1.8783,-1.1826
720,9.8866,0.7281,0.7281,-2.5739,1.9478,-1.1826
725,9.7717,0.8047,0.958,-2.5739,2.0174,-1.1826
730,9.7717,0.843,0.958,-2.6435,2.0174,-1.2522
735,9.7717,0.8814,0.843,-2.5739,1.9478,-1.3217
740,9.8866,0.843,0.8814,-2.7826,2.0174,-1.4609
745,9.925,0.8814,0.9197,-2.8522,1.8783,-1.4609
750,9.7717,0.843,0.9963,-2.8522,1.8783,-1.6
755,9.7717,0.958,0.843,-2.8522,1.6696,-1.6
760,9.7717,0.9963,0.958,-2.9913,1.6,-1.5304
765,9.8483,1.0346,0.8814,-3.2696,1.4609,-1.4609
770,9.7717,0.9197,0.9197,-3.5478,1.4609,-1.4609
775,9.7334,0.9963,0.8814,-3.7565,1.3217,-1.3913
780,9.7717,0.9963,1.2263,-3.8957,1.4609,-1.1826
785,9.8483,0.958,0.8814,-4.1043,1.3217,-1.113
790,9.7334,0.9963,0.958,-4.1739,1.1826,-1.113
795,9.925,0.9197,0.9197,-4.313,1.113,-0.9739
800,9.81,0.8814,0.9963,-4.2435,1.113,-0.9043
805,9.8483,0.958,0.958,-4.1739,1.0435,-0.8348
810,9.81,0.958,1.073,-4.313,1.113,-0.8348
815,9.8483,0.9197,0.8814,-4.1043,1.0435,-0.7652
820,9.925,0.8814,0.843,-3.9652,1.0435,-0.6261
825,9.8866,0.9963,0.958,-3.687,0.9043,-0.5565
830,9.7717,0.8814,0.9963,-3.5478,1.0435,-0.5565
835,10.0016,0.843,0.958,-3.4783,1.113,-0.6261
840,9.8866,0.8814,0.958,-3.4783,1.113,-0.487
845,9.7717,0.9197,0.8047,-3.2,1.1826,-0.5565
850,9.925,1.0346,0.5365,-3.1304,1.3217,-0.487
855,9.81,0.958,0.7664,-2.8522,1.5304,-0.487
860,9.81,0.8814,0.8814,-2.713,1.7391,-0.487
865,9.695,0.9963,0.843,-2.5739,1.9478,-0.4174
870,9.81,0.9197,0.7664,-2.5739,2.087,-0.2783
875,9.81,0.9197,0.9963,-2.5739,2.2957,-0.2087
880,9.7717,0.9197,0.8814,-2.8522,2.2957,-0.0696
885,9.8483,0.8047,0.7281,-2.9913,2.5043,-0.0696
890,9.7334,0.9197,0.843,-3.4087,2.4348,0.0
895,9.9633,0.8047,0.843,-3.9652,2.2261,-0.0696
900,9.8483,0.843,1.073,-4.313,2.0174,0.0
905,9.81,0.5365,1.073,-4.6609,1.5304,0.0
910,9.8483,0.843,1.1496,-4.8696,1.0435,-0.1391
915,9.8866,0.8047,0.9197,-5.0087,0.5565,-0.1391
920,9.695,0.8814,1.0346,-4.8,0.2783,-0.1391
925,9.8483,0.8814,0.8047,-4.4522,0.1391,-0.2783
930,9.7717,0.7664,0.7664,-4.1739,0.2783,-0.2783
935,9.81,0.8814,0.843,-4.0348,0.6957,-0.4174
940,9.9633,0.7281,0.7664,-4.1043,1.113,-0.5565
945,9.8483,0.7281,0.6131,-3.9652,1.6696,-0.6261
950,9.7717,0.843,0.7664,-3.8957,2.1565,-0.6261
955,9.7334,1.1879,0.8047,-3.7565,2.4348,-0.6957
960,9.81,0.9197,1.0346,-3.6174,2.5739,-0.6261
965,9.81,0.843,0.9963,-3.6174,2.6435,-0.487
970,9.81,0.9197,0.9197,-3.8261,2.7826,-0.487
975,9.7717,0.843,1.0346,-3.9652,2.7826,-0.4174
980,9.8483,0.9197,1.1113,-4.1043,2.7826,-0.3478
985,9.8866,0.9197,0.958,-4.313,2.6435,-0.2783
990,9.7717,0.843,0.8047,-4.4522,2.6435,-0.3478
995,9.7717,0.9197,0.958,-4.3826,2.6435,-0.2087
1000,9.8866,0.8047,1.0346,-4.1739,2.713,-0.2783
1005,9.7717,0.843,1.1113,-4.0348,2.713,-0.2783
1010,9.7334,0.843,0.8814,-3.7565,2.713,-0.2783
1015,9.81,0.8047,1.0346,-3.4783,2.9217,-0.1391
1020,9.7717,0.843,1.1496,-3.2696,3.0609,-0.2783
1025,9.8483,0.7664,1.0346,-3.1304,3.1304,-0.2783
1030,9.7717,0.9197,0.9197,-2.9217,3.2,-0.2087
1035,9.81,0.9197,0.958,-2.7826,3.2696,-0.2087
1040,9.7334,0.9197,1.0346,-2.7826,3.2696,-0.1391
1045,9.81,0.8814,0.9197,-2.9217,3.2,0.0
1050,9.6184,0.843,0.9963,-2.9217,3.0609,-0.2783
1055,9.8483,0.8814,0.958,-3.0609,2.9913,-0.1391
1060,9.695,0.8814,1.0346,-3.0609,2.8522,-0.1391
1065,10.0016,0.843,0.9197,-3.2,2.713,-0.2783
1070,9.7717,0.8814,0.958,-3.2696,2.713,-0.2087
1075,9.6567,0.8814,1.1113,-3.4087,2.5739,-0.2087
1080,9.7717,0.8047,0.9963,-3.4087,2.5739,-0.1391
1085,9.81,0.8047,1.0346,-3.3391,2.5043,-0.0696
1090,9.81,0.8047,0.958,-3.2696,2.5043,-0.0696
1095,9.8866,0.9197,0.958,-3.1304,2.5043,-0.1391
1100,9.7334,0.8047,0.9963,-3.2,2.5043,-0.2087
1105,9.7717,0.8814,1.0346,-2.9217,2.5043,-0.2087
1110,9.695,0.8814,0.958,-2.9217,2.5043,-0.2783
1115,9.8483,0.843,1.1113,-2.7826,2.5739,-0.3478
1120,10.2315,0.7664,0.8814,-2.6435,2.5043,-0.3478
1125,9.8483,0.7664,0.9197,-2.5739,2.6435,-0.3478
1130,9.81,0.8047,1.0346,-2.5043,2.7826,-0.3478
1135,9.81,0.958,0.8047,-2.2957,2.8522,-0.2087
1140,9.7717,0.958,0.9197,-2.3652,2.9217,-0.2783
1145,9.7717,1.0346,0.958,-2.5043,3.0609,-0.3478
1150,9.81,0.843,1.1496,-2.5739,3.2,-0.3478
1155,9.695,0.958,0.958,-3.0609,3.2696,-0.3478
1160,9.8483,0.843,0.958,-3.2696,3.0609,-0.1391
1165,9.7717,0.958,0.9963,-3.6174,2.8522,-0.1391
1170,9.925,0.8047,0.9963,-3.8957,2.5739,-0.2087
1175,9.81,0.7281,1.0346,-4.2435,2.3652,-0.2783
1180,9.81,0.8047,1.0346,-4.2435,2.087,-0.2783
1185,9.8483,0.9963,0.9963,-4.4522,2.0174,-0.4174
1190,9.7334,0.843,0.8814,-4.3826,1.9478,-0.487
1195,9.7717,0.843,0.9197,-4.3826,1.8783,-0.6261
1200,9.7334,0.8814,1.073,-4.3826,1.7391,-0.7652
1205,9.8483,0.9197,0.843,-4.3826,1.6696,-0.7652
1210,9.695,0.9197,0.958,-4.5217,1.4609,-0.6957
1215,9.81,0.843,1.1879,-4.4522,1.6,-0.7652
1220,9.7334,0.8047,1.0346,-4.5913,1.4609,-0.6261
1225,9.7717,0.958,1.073,-4.7304,1.3217,-0.7652
1230,9.7717,0.8814,1.1879,-4.7304,1.3217,-0.6957
1235,9.8866,0.8814,1.0346,-5.0087,1.1826,-0.6261
1240,9.7717,0.843,0.9963,-5.0087,1.1826,-0.6261
1245,9.7717,0.9197,1.0346,-5.0783,1.2522,-0.487
1250,9.7334,0.8814,0.9963,-5.0087,1.3217,-0.4174
1255,9.81,0.8047,1.073,-4.8,1.3913,-0.4174
1260,9.7334,0.9197,1.073,-4.8,1.5304,-0.2783
1265,9.7334,0.9963,1.0346,-4.5913,1.6696,-0.3478
1270,9.7717,0.843,0.9963,-4.5217,1.6696,-0.2783
1275,9.695,0.8814,1.073,-4.313,1.6696,-0.2783
1280,9.81,0.8814,1.073,-3.9652,1.8087,-0.2783
1285,10.1549,0.7281,0.9963,-3.9652,1.8087,-0.3478
1290,9.8483,0.8047,1.0346,-3.9652,1.6696,-0.3478
1295,9.7717,0.9963,1.1113,-3.9652,1.6,-0.3478
1300,9.7717,0.9197,0.9197,-3.8957,1.6696,-0.4174
1305,9.8483,0.8814,1.1496,-3.8261,1.5304,-0.3478
1310,9.8483,0.9963,1.073,-3.8261,1.4609,-0.1391
1315,9.8483,0.9197,1.1113,-3.7565,1.2522,-0.0696
1320,9.695,1.0346,0.9963,-3.8261,1.2522,-0.0696
1325,9.81,0.8814,0.9963,-3.8957,1.3217,0.0
1330,9.695,0.9197,1.0346,-3.8261,1.3217,0.0696
1335,9.7717,0.8814,0.9197,-3.687,1.3217,0.1391
1340,9.81,1.0346,1.1113,-3.687,1.3217,0.0
1345,9.8483,0.9197,1.073,-3.8261,1.3217,0.2087
1350,9.81,0.8047,1.1113,-3.7565,1.3913,0.1391
1355,9.7717,0.9197,1.073,-3.8957,1.3217,0.1391
1360,9.8866,0.843,1.073,-4.0348,1.3217,0.1391
1365,9.7334,0.9197,0.9963,-3.9652,1.3913,0.0
1370,9.7717,0.8814,0.9963,-4.1043,1.3217,-0.1391
1375,9.695,0.9197,1.0346,-4.2435,1.1826,-0.2087
1380,9.8483,0.7664,0.8814,-4.313,1.2522,-0.2783
1385,9.7334,0.843,0.8047,-4.3826,1.1826,-0.2783
1390,9.7717,0.9197,1.0346,-4.313,1.113,-0.4174
1395,9.8483,1.1113,1.073,-4.313,1.0435,-0.3478
1400,9.7717,0.958,0.9963,-4.3826,1.0435,-0.4174
1405,9.7717,0.843,0.958,-4.5217,0.9739,-0.3478
1410,9.81,0.8814,0.9197,-4.5217,1.113,-0.2783
1415,9.7717,0.8814,0.958,-4.5913,1.1826,-0.2087
1420,9.7717,0.7664,1.1113,-4.4522,1.1826,-0.2087
1425,9.7334,0.9197,1.073,-4.4522,1.113,-0.2087
1430,9.81,0.958,1.1879,-4.4522,1.0435,-0.2783
1435,9.7717,0.8047,0.9963,-4.2435,1.113,-0.2783
1440,9.81,0.8814,0.8814,-4.2435,0.9043,-0.2783
1445,9.8483,0.843,1.0346,-4.1739,0.9043,-0.3478
1450,9.8483,0.958,1.0346,-4.1739,0.8348,-0.487
1455,9.8483,0.958,0.958,-4.0348,0.9739,-0.5565
1460,9.81,0.8814,1.1113,-3.8957,0.9739,-0.5565
1465,9.925,0.843,1.1113,-3.7565,1.0435,-0.5565
1470,9.8483,0.8047,0.9963,-3.7565,1.1826,-0.6261
1475,9.7717,0.8814,1.1113,-3.8261,1.2522,-0.6957
1480,9.7334,1.0346,0.9963,-3.687,1.3913,-0.6261
1485,9.7334,0.843,1.0346,-3.687,1.5304,-0.487
1490,9.7717,0.958,0.9963,-3.7565,1.6696,-0.3478
1495,9.6567,0.958,0.9963,-4.0348,1.7391,-0.3478
1500,9.695,0.8047,1.2263,-4.2435,1.7391,-0.3478
1505,9.81,0.8047,1.1113,-4.5217,1.6,-0.1391
1510,9.8866,0.843,1.073,-4.8696,1.2522,0.0
1515,9.81,0.843,1.0346,-5.2174,0.7652,0.0
1520,9.81,0.8047,1.1496,-5.5652,0.2783,-0.0696
1525,9.695,0.7664,1.1879,-5.7043,-0.2783,-0.0696
1530,9.8483,0.7664,0.9963,-5.6348,-0.6957,-0.1391
1535,9.695,0.958,0.9963,-5.4957,-0.8348,-0.1391
1540,9.8483,0.843,1.1113,-5.0783,-0.7652,-0.2783
1545,9.7717,0.843,0.8814,-4.7304,-0.4174,-0.4174
1550,9.81,0.9197,0.9197,-4.5217,0.0696,-0.6957
1555,9.7717,0.958,0.958,-4.3826,0.5565,-0.7652
1560,9.7334,0.8047,0.9197,-4.1739,0.9739,-0.8348
1565,9.7717,0.8814,1.0346,-3.9652,1.2522,-0.8348
1570,9.81,0.8814,1.073,-3.8957,1.3913,-0.8348
1575,9.81,0.8047,1.1496,-3.8957,1.5304,-0.6957
1580,9.7717,0.958,1.073,-3.8261,1.6,-0.6957
1585,9.695,0.8814,1.1496,-4.0348,1.5304,-0.6261
1590,9.8483,0.958,1.1496,-4.2435,1.3217,-0.5565
1595,9.8866,0.9197,1.1113,-4.4522,1.1826,-0.6261
1600,9.7717,0.8814,1.1496,-4.7304,1.113,-0.4174
1605,9.7334,0.9197,1.1113,-4.8,0.9043,-0.0696
1610,9.8866,0.9197,0.843,-4.6609,0.6957,-0.2087
1615,9.8866,0.7664,0.958,-4.313,0.7652,-0.2783
1620,9.7334,0.8814,0.958,-4.0348,0.8348,-0.3478
1625,9.8483,0.8047,0.958,-3.687,1.113,-0.2783
1630,9.81,0.843,0.958,-3.4087,1.1826,-0.2783
1635,9.7334,0.9197,1.0346,-2.9217,1.3913,-0.2783
1640,9.81,0.7281,0.9963,-2.8522,1.4609,-0.2087
1645,9.81,0.8047,0.8814,-2.6435,1.6,-0.2783
1650,9.8483,0.8047,1.073,-2.5739,1.7391,-0.1391
1655,9.7334,0.8814,1.1113,-2.6435,1.8783,-0.1391
1660,9.6184,0.843,0.958,-2.6435,1.8087,-0.1391
1665,9.5034,0.9197,1.1879,-2.7826,1.8783,-0.0696
1670,9.8483,0.843,0.958,-2.8522,1.7391,0.0
1675,9.6184,0.958,1.073,-3.0609,1.7391,-0.1391
1680,9.695,0.843,1.0346,-3.0609,1.6696,0.0
1685,9.81,0.9197,1.0346,-3.2,1.6696,-0.1391
1690,9.81,0.8047,1.073,-3.2696,1.7391,-0.1391
1695,9.81,0.843,0.958,-3.2,1.7391,-0.1391
1700,9.8866,0.8047,0.9963,-3.2696,1.7391,-0.1391
1705,9.81,0.8814,1.073,-3.4783,1.6,-0.1391
1710,9.695,0.9197,1.073,-3.5478,1.6,-0.2783
1715,9.8483,0.843,1.073,-3.5478,1.5304,-0.2783
1720,9.7334,0.9963,1.3029,-3.4087,1.6696,-0.3478
1725,9.7334,0.843,0.8814,-3.4087,1.6,-0.487
1730,9.8483,0.7664,1.073,-3.4783,1.6696,-0.4174
1735,9.81,0.9197,0.958,-3.5478,1.7391,-0.487
1740,9.7334,0.9197,1.073,-3.4783,1.8087,-0.4174
1745,9.8483,0.8814,0.843,-3.3391,1.8087,-0.3478
1750,9.7334,0.843,0.9963,-3.0609,1.8783,-0.2087
1755,9.8483,0.7664,0.9963,-3.0609,2.0174,-0.2783
1760,9.81,0.8814,1.0346,-3.0609,2.0174,-0.3478
1765,9.81,0.9197,0.843,-3.1304,2.1565,-0.3478
1770,9.8866,0.9197,1.0346,-3.4087,2.087,-0.4174
1775,9.5418,0.6898,0.9197,-3.6174,1.8783,-0.4174
1780,9.81,0.8814,1.1879,-3.6174,1.6,-0.2783
1785,9.695,0.958,1.2646,-3.7565,1.5304,-0.2087
1790,9.7334,0.8047,1.1113,-3.687,1.2522,-0.2783
1795,9.8483,0.9197,0.9963,-3.687,1.3217,-0.4174
1800,9.695,0.9197,0.958,-3.5478,1.3217,-0.487
1805,9.7717,0.8814,0.9963,-3.5478,1.3913,-0.4174
1810,9.7717,0.9197,0.9197,-3.687,1.4609,-0.4174
1815,9.81,0.843,1.0346,-3.8957,1.4609,-0.487
1820,9.7334,0.843,0.7664,-4.0348,1.6,-0.4174
1825,9.7334,0.843,0.9963,-4.1739,1.4609,-0.4174
1830,9.7334,0.8814,0.958,-4.313,1.4609,-0.487
1835,9.81,0.8814,0.9963,-4.4522,1.3913,-0.5565
1840,9.7717,0.9197,1.073,-4.5913,1.4609,-0.5565
1845,9.81,0.8047,0.9963,-4.5913,1.3217,-0.4174
1850,9.7717,0.843,1.0346,-4.5217,1.1826,-0.487
1855,9.7334,0.958,1.2646,-4.5217,1.113,-0.487
1860,9.81,0.8814,1.1496,-4.6609,1.0435,-0.3478
1865,9.81,0.7281,0.9963,-4.5913,0.9739,-0.3478
1870,9.6184,0.9197,0.9963,-4.5217,0.9739,-0.4174
1875,9.7334,0.9197,1.073,-4.5217,0.9739,-0.4174
1880,9.7717,0.843,1.073,-4.5217,0.9739,-0.4174
1885,9.81,0.8047,0.9963,-4.3826,0.9043,-0.4174
1890,9.8483,0.843,1.0346,-4.313,0.9043,-0.487
1895,9.7334,0.8814,0.9963,-4.1739,0.9739,-0.4174
1900,9.8483,0.8047,1.1113,-4.1043,1.113,-0.4174
1905,9.7717,0.9197,1.1496,-3.9652,1.0435,-0.3478
1910,9.7717,0.843,0.958,-3.9652,1.113,-0.4174
1915,9.7717,0.7664,1.1113,-3.8261,0.9739,-0.2087
1920,9.7717,0.843,0.9963,-3.8261,0.9043,-0.2087
1925,9.7334,0.9197,1.1113,-3.7565,1.0435,-0.2087
1930,9.7717,0.843,1.1113,-3.7565,1.0435,-0.2087
1935,9.8483,0.8814,1.0346,-3.5478,1.0435,-0.1391
1940,9.8483,0.8814,1.1879,-3.4783,1.0435,0.0
1945,9.81,0.958,1.1496,-3.4087,0.8348,0.0
1950,9.7717,0.843,1.0346,-3.2,0.9043,-0.0696
1955,9.81,0.843,0.9963,-3.4087,0.9043,-0.1391
1960,9.81,0.958,1.1113,-3.2,0.7652,-0.0696
1965,9.7334,0.843,1.0346,-3.2,0.7652,-0.2087
1970,9.7717,0.958,0.958,-3.2696,0.8348,-0.0696
1975,9.8866,0.843,1.073,-3.4087,0.7652,-0.1391
1980,9.8866,0.8814,1.073,-3.5478,0.8348,-0.1391
1985,9.7334,0.9197,0.9197,-3.6174,0.9739,-0.2783
1990,9.8866,0.9197,0.9963,-3.687,0.9739,-0.3478
1995,9.695,0.958,1.073,-3.7565,1.0435,-0.2783
2000,9.81,0.7664,1.1113,-3.687,1.113,-0.3478
2005,9.7334,0.843,0.958,-3.7565,1.1826,-0.4174
2010,9.7717,0.8047,0.9963,-3.8957,1.3217,-0.2783
2015,9.81,0.843,0.9963,-3.8957,1.3217,-0.3478
2020,9.8483,0.843,0.958,-4.0348,1.2522,-0.2783
2025,9.8483,0.8814,1.0346,-4.0348,1.2522,-0.2783
2030,9.695,0.7664,0.9197,-4.1739,1.113,-0.2783
2035,9.7717,0.958,1.2263,-4.1043,1.113,-0.2783
2040,9.7334,0.8047,0.9963,-4.1739,0.9739,-0.2087
2045,9.8866,0.7664,1.3412,-4.0348,0.9043,-0.2783
2050,9.7717,0.843,1.0346,-4.0348,0.7652,-0.2783
2055,9.7334,0.9197,1.0346,-3.8261,0.6957,-0.2087
2060,9.7717,0.843,0.9963,-3.687,0.6957,-0.2783
2065,9.8483,0.8047,1.1496,-3.7565,0.7652,-0.2087
2070,9.7717,0.8047,1.1113,-3.7565,0.7652,-0.2783
2075,9.8483,0.8047,1.0346,-3.6174,0.9043,-0.4174
2080,9.7334,0.8814,1.073,-3.8957,0.9739,-0.4174
2085,9.81,0.8814,1.0346,-3.8957,1.0435,-0.487
2090,9.695,0.9963,1.0346,-3.7565,1.113,-0.487
2095,9.7717,0.8814,0.9963,-3.5478,1.2522,-0.487
2100,9.7334,0.9963,0.5748,-3.4087,1.4609,-0.5565
2105,9.695,0.9197,1.1496,-3.3391,1.5304,-0.4174
2110,9.8483,0.958,0.9197,-3.2696,1.6696,-0.3478
2115,9.7717,0.8814,1.1113,-3.2,1.8087,-0.2783
2120,9.8483,0.8814,1.073,-3.4087,1.8087,0.0
2125,9.925,0.7281,1.1496,-3.6174,1.6696,0.0
2130,9.695,0.8814,0.9963,-3.9652,1.4609,-0.0696
2135,9.7717,0.8047,0.958,-4.2435,1.1826,-0.0696
2140,9.695,0.843,1.0346,-4.5217,0.6957,0.0
2145,9.81,0.6898,1.1879,-4.8,0.4174,-0.1391
2150,9.6184,0.7281,1.1113,-4.8696,-0.0696,-0.1391
2155,9.695,0.7664,0.8814,-4.8696,-0.4174,-0.1391
2160,9.8483,0.7664,1.073,-4.6609,-0.3478,-0.2087
2165,9.695,0.7664,0.8814,-4.3826,-0.2783,-0.2783
2170,9.695,0.843,0.9197,-4.1739,0.0,-0.3478
2175,9.7717,0.8047,0.8814,-3.8957,0.4174,-0.5565
2180,9.7717,0.843,0.958,-3.7565,0.7652,-0.6261
2185,9.8866,0.7664,0.8814,-3.687,1.113,-0.8348
2190,9.7334,0.8814,0.843,-3.8261,1.3913,-0.8348
2195,9.695,0.7664,1.073,-3.6174,1.6,-0.8348
2200,9.7717,0.9197,0.958,-3.687,1.6,-0.6261
2205,9.7334,0.8814,0.9963,-3.6174,1.6696,-0.6261
2210,9.8483,0.7664,1.4945,-3.4783,1.5304,-0.6261
2215,9.8483,0.9197,1.1496,-3.4783,1.3913,-0.5565
2220,9.7717,0.8047,1.1113,-3.5478,1.2522,-0.487
2225,9.7334,0.8814,1.073,-3.4087,1.113,-0.4174
2230,9.8483,0.8047,1.073,-3.4783,0.9739,-0.3478
2235,9.81,0.8047,1.0346,-3.4087,0.9739,-0.3478
2240,9.695,0.8814,0.958,-3.0609,1.0435,-0.2783
2245,9.9633,0.7664,0.843,-2.7826,1.113,-0.2783
2250,9.81,0.9197,0.9197,-2.5043,1.113,-0.2783
2255,9.7334,0.8814,1.073,-2.2261,1.1826,-0.2783
2260,9.7334,0.9197,1.0346,-1.9478,1.3913,-0.2087
2265,9.81,0.8047,0.958,-1.9478,1.4609,-0.2783
2270,9.7334,0.9197,1.073,-2.0174,1.4609,-0.2087
2275,9.81,0.9197,0.958,-2.1565,1.4609,-0.1391
2280,9.7717,0.958,0.9963,-2.2261,1.5304,-0.1391
2285,9.8483,0.9197,0.958,-2.5043,1.5304,-0.0696
2290,9.7717,0.8047,1.1496,-2.6435,1.4609,-0.0696
2295,9.695,0.9197,1.073,-2.7826,1.4609,0.0696
2300,9.8483,0.8814,0.9197,-2.8522,1.3217,0.0696
2305,9.695,0.8814,0.9963,-2.9913,1.3913,0.0696
2310,9.7717,0.8814,1.073,-3.2,1.3217,0.0
2315,9.695,0.8814,1.073,-3.2,1.1826,-0.2087
2320,9.925,0.6898,0.6514,-3.3391,1.2522,-0.2087
2325,9.81,0.7664,0.9963,-3.2696,1.1826,-0.2087
2330,9.695,0.7664,0.958,-3.2,1.2522,-0.2087
2335,9.7334,0.8047,1.0346,-3.2,1.1826,-0.3478
2340,9.695,0.8047,1.073,-3.2696,1.1826,-0.3478
2345,9.7334,0.7281,0.9197,-3.3391,1.113,-0.487
2350,9.81,0.7664,1.1496,-3.4087,1.113,-0.4174
2355,9.7717,0.843,1.073,-3.4087,1.1826,-0.4174
2360,9.7334,0.8814,0.9963,-3.2696,1.3217,-0.4174
2365,9.7717,0.8047,0.8814,-3.2,1.3913,-0.4174
2370,9.695,0.958,0.958,-2.9913,1.6,-0.3478
2375,9.8483,1.1113,0.9197,-2.6435,1.7391,-0.4174
2380,9.8866,0.8814,1.0346,-2.5043,1.7391,-0.2783
2385,9.81,0.7664,0.958,-2.5739,1.6,-0.3478
2390,9.8483,0.8047,1.0346,-2.8522,1.6,-0.3478
2395,9.695,0.9197,1.1879,-3.2,1.3913,-0.3478
2400,9.695,0.843,0.9197,-3.2696,1.3913,-0.2783
2405,9.7717,0.9197,1.073,-3.4087,1.1826,-0.2783
2410,9.81,0.843,1.0346,-3.4783,1.0435,-0.2783
2415,9.7334,0.843,1.073,-3.3391,1.0435,-0.4174
2420,9.81,0.9197,0.9963,-3.2,1.2522,-0.2783
2425,9.7717,0.8047,1.1879,-3.2696,1.4609,-0.2087
2430,10.0016,0.9963,1.1496,-3.4087,1.2522,-0.4174
2435,9.7334,0.8047,1.0346,-3.4087,1.3217,-0.4174
2440,9.6184,0.8814,1.0346,-3.7565,1.1826,-0.4174
2445,9.8483,0.843,0.9963,-3.8957,1.3217,-0.3478
2450,9.7717,0.9197,0.9963,-4.1739,1.3913,-0.4174
2455,9.695,0.8047,0.9963,-4.313,1.3217,-0.4174
2460,9.8866,0.958,1.2263,-4.4522,1.3217,-0.4174
2465,9.8483,0.8047,1.1879,-4.5913,1.2522,-0.3478
2470,9.8866,0.6898,1.1113,-4.4522,1.2522,-0.4174
2475,9.6567,0.9197,1.1113,-4.5217,1.1826,-0.487
2480,9.925,0.7664,0.958,-4.313,1.113,-0.487
2485,9.81,0.843,0.9963,-4.2435,1.0435,-0.3478
2490,9.695,0.843,0.9963,-4.2435,1.113,-0.3478
2495,9.7717,0.843,1.1496,-4.2435,1.113,-0.2783
2500,9.8866,0.7664,1.1879,-4.1739,1.1826,-0.4174
2505,9.925,0.7664,1.1113,-4.1043,1.113,-0.487
2510,9.7334,0.9197,1.073,-4.1043,1.1826,-0.4174
2515,9.7717,0.7664,1.073,-4.1739,1.2522,-0.4174
2520,9.8866,0.7664,1.0346,-4.0348,1.1826,-0.3478
2525,9.81,0.8047,1.1113,-4.0348,1.1826,-0.3478
2530,9.6184,0.958,0.9963,-3.8957,1.2522,-0.2087
2535,9.7717,0.6514,0.9963,-3.8261,1.2522,-0.2783
2540,9.9633,0.6514,0.958,-3.8261,1.2522,-0.2087
2545,9.8483,0.843,1.0346,-3.8261,1.1826,-0.1391
2550,9.7717,0.8047,1.073,-3.8261,1.1826,-0.2087
2555,9.81,0.7664,1.073,-3.8261,1.1826,-0.1391
2560,9.695,0.9197,0.9963,-3.687,1.1826,-0.1391
2565,9.81,0.8814,1.0346,-3.6174,1.0435,-0.0696
2570,9.81,0.6898,0.9197,-3.5478,0.9043,-0.1391
2575,9.7717,0.8047,1.073,-3.6174,0.9043,-0.0696
2580,9.81,0.958,1.1113,-3.5478,0.8348,-0.0696
2585,9.695,0.7664,0.9963,-3.4783,0.9043,-0.2087
2590,9.8483,1.2646,0.8814,-3.3391,1.0435,-0.1391
2595,9.695,0.8814,0.958,-3.3391,1.0435,-0.2087
2600,9.7334,0.8047,0.9963,-3.3391,1.1826,-0.2087
2605,9.8866,0.843,0.958,-3.4783,1.3217,-0.2783
2610,9.925,0.8047,0.958,-3.6174,1.3913,-0.1391
2615,9.8483,0.843,0.958,-3.687,1.4609,-0.1391
2620,9.8483,0.843,1.2263,-3.8261,1.4609,-0.1391
2625,9.7717,0.8047,1.073,-4.0348,1.4609,-0.1391
2630,9.695,0.8047,1.0346,-4.2435,1.3913,-0.2087
2635,9.7717,0.9197,1.0346,-4.4522,1.3217,-0.2783
2640,9.81,0.8814,1.0346,-4.5913,1.2522,-0.3478
2645,9.81,0.5748,0.9963,-4.5913,1.1826,-0.3478
2650,9.7717,0.8814,1.1496,-4.6609,1.1826,-0.3478
2655,9.7717,0.843,1.073,-4.5913,1.2522,-0.2783
2660,9.8483,0.843,1.1879,-4.5913,1.2522,-0.2783
2665,9.695,0.843,1.1113,-4.5913,1.3217,-0.2783
2670,9.8483,0.9197,0.9963,-4.5217,1.3217,-0.1391
2675,9.7334,0.7281,0.958,-4.4522,1.3913,-0.1391
2680,9.925,0.8047,1.1113,-4.4522,1.3217,0.0
2685,9.8483,0.958,1.1113,-4.4522,1.2522,0.0
2690,9.81,0.6898,1.0346,-4.4522,1.2522,0.0
2695,9.8483,0.8047,0.9963,-4.5217,1.1826,0.1391
2700,9.6567,0.8047,1.1113,-4.5217,1.2522,0.1391
2705,9.8483,0.7664,1.1113,-4.4522,1.3913,0.2087
2710,9.7334,0.8814,0.958,-4.5217,1.3913,0.2087
2715,9.925,0.7664,1.073,-4.3826,1.5304,0.1391
2720,9.925,0.843,1.0346,-4.313,1.6,0.2087
2725,9.81,0.8814,0.958,-4.4522,1.6,0.1391
2730,9.7717,0.9197,0.9963,-4.5913,1.7391,0.1391
2735,9.5801,1.0346,1.073,-4.5913,1.8087,0.1391
2740,9.7334,0.9197,0.843,-4.6609,1.8783,0.1391
2745,9.7717,0.9197,1.073,-4.7304,1.9478,0.0696
2750,9.8483,0.843,0.843,-4.6609,2.1565,0.1391
2755,9.695,0.7281,1.1496,-4.5913,2.2957,0.1391
2760,9.9633,0.8814,1.073,-4.7304,2.5739,0.0696
2765,9.7717,0.958,0.958,-4.7304,2.6435,0.2087
2770,9.925,0.8047,0.843,-4.7304,2.7826,0.0696
2775,9.8483,0.843,0.9963,-4.8,2.9217,0.2087
2780,9.8866,0.843,0.9963,-5.0087,2.9217,0.2783
2785,9.8866,0.843,1.0346,-5.2174,2.9217,0.4174
2790,9.81,0.7664,1.073,-5.287,2.9217,0.4174
2795,9.7334,0.843,1.0346,-5.7043,2.7826,0.4174
2800,9.925,0.7664,1.1879,-5.913,2.3652,0.4174
2805,9.81,0.7664,1.073,-6.1217,2.0174,0.3478
2810,9.695,0.7664,1.073,-6.1913,1.6,0.3478
2815,9.8483,0.7281,1.1879,-5.9826,1.4609,0.2783
2820,9.7717,0.7664,0.9197,-5.5652,1.2522,0.2087
2825,9.8866,0.7664,0.9963,-5.3565,1.3217,0.0696
2830,9.7334,0.843,0.9963,-5.287,1.5304,0.0
2835,9.81,0.7281,0.8814,-5.1478,1.8087,-0.2087
2840,9.81,0.7664,0.843,-5.0783,2.1565,-0.2783
2845,9.6184,0.8814,1.073,-5.287,2.2957,-0.3478
2850,9.81,0.8047,1.1113,-5.287,2.5739,-0.4174
2855,9.8866,0.8814,1.1496,-5.287,2.713,-0.4174
2860,9.6567,0.8814,0.9963,-5.287,2.8522,-0.2783
2865,9.2735,0.6898,1.2263,-5.3565,2.8522,-0.2783
2870,9.7334,0.7664,0.9963,-5.2174,2.8522,-0.2087
2875,9.7717,0.7281,1.1879,-5.2174,2.9217,-0.1391
2880,9.6184,0.843,0.9963,-5.0783,2.8522,-0.1391
2885,9.8483,0.7281,0.8814,-4.9391,2.713,-0.1391
2890,9.8483,0.8047,0.9963,-4.7304,2.5739,0.0
2895,9.7717,0.8814,0.9963,-4.3826,2.5043,-0.0696
2900,9.6567,0.7664,1.1496,-4.1043,2.5043,-0.1391
2905,9.81,0.8814,1.1113,-3.9652,2.4348,0.0
2910,9.7717,0.8047,0.958,-3.7565,2.5739,0.0
2915,9.7717,0.7281,0.8047,-3.7565,2.6435,0.0696
2920,9.81,0.7281,0.958,-3.7565,2.5739,0.1391
2925,9.7717,0.843,1.2646,-3.7565,2.5739,0.1391
2930,9.81,0.9197,1.2646,-4.0348,2.5043,0.0696
2935,9.6567,0.958,1.073,-4.1739,2.5043,0.1391
2940,9.8483,0.843,1.073,-4.313,2.3652,0.1391
2945,9.7334,0.9197,1.1113,-4.5217,2.2957,0.0696
2950,9.7717,0.8814,1.1496,-4.6609,2.1565,0.0696
2955,9.695,0.8047,1.0346,-4.6609,2.0174,0.0696
2960,9.8866,0.7281,1.1879,-4.7304,1.7391,0.2087
2965,9.8483,0.8047,1.2263,-4.6609,1.7391,0.1391
2970,9.6184,0.843,1.073,-4.6609,1.5304,0.2783
2975,9.5801,0.8047,1.1113,-4.6609,1.5304,0.2783
2980,9.6184,0.9197,1.1113,-4.5217,1.4609,0.2087
2985,9.6567,0.8047,1.2263,-4.7304,1.3913,0.0696
2990,9.8483,0.7281,1.2263,-4.6609,1.3217,0.0
2995,9.7717,0.8047,1.1496,-4.6609,1.2522,0.0
