timestamp,accX,accY,accZ,gyroX,gyroY,gyroZ
0,-5.2499,-25.8662,6.7061,-58.8522,-5.3565,61.287
5,-4.1386,-27.5906,8.2389,-47.9304,-4.5217,77.8435
10,-1.3795,-29.0085,9.4268,-13.8435,-12.2435,103.2348
15,2.0693,-29.0851,10.0016,31.8609,-23.7217,124.1739
20,5.4032,-29.6982,10.1166,66.5739,-35.2696,132.8
25,6.8593,-29.3534,9.81,79.3739,-45.0087,124.3826
30,6.5145,-28.1654,8.8137,77.4261,-52.3826,104.487
35,5.978,-26.7476,7.4341,73.2522,-59.2696,83.7565
40,4.9816,-25.4064,5.863,74.2261,-66.9217,63.0261
45,3.832,-23.567,3.8704,80.1391,-75.4783,38.8174
50,2.7207,-21.1145,2.1076,85.0087,-83.687,9.0435
55,1.7244,-18.3554,0.6514,82.4348,-88.1391,-23.8609
60,1.4945,-14.9066,0.2299,71.0261,-86.1913,-54.6087
65,1.2646,-11.3428,0.2682,54.4,-77.8435,-78.1217
70,1.1113,-8.2005,0.115,37.4261,-65.2522,-91.5478
75,1.7244,-5.9013,-0.1533,18.9217,-50.0174,-94.4696
80,2.7591,-4.9433,-0.1916,-4.8696,-32.7652,-89.6696
85,3.4105,-5.02,-0.0766,-35.5478,-14.4,-81.6
90,4.062,-6.0546,0.6514,-74.6435,1.8087,-75.1304
95,4.2536,-7.2042,1.8777,-118.7478,12.8696,-72.6957
100,4.2919,-8.852,3.4105,-159.8609,19.7565,-72.8348
105,3.832,-10.0016,4.9816,-189.5652,24.7652,-73.0435
110,3.5255,-11.3045,6.5145,-201.7391,28.8,-71.5826
115,3.2572,-12.1092,7.5491,-194.0174,31.3739,-68.4522
120,3.2189,-12.1092,7.6641,-169.2522,31.1652,-65.0435
125,3.3722,-11.5727,7.4341,-132.2435,27.8957,-62.4696
130,3.1039,-10.6914,6.7444,-89.0435,22.8174,-60.8696
135,3.0273,-9.5418,5.9396,-45.1478,17.9478,-59.8261
140,2.874,-8.3921,5.02,-5.3565,14.4,-58.8522
145,2.7974,-7.3575,3.947,27.5478,11.8261,-59.8261
150,2.4142,-6.2079,2.9507,51.3391,9.1826,-60.9391
155,1.8777,-5.1349,1.7244,63.3739,6.5391,-61.7043
160,1.4179,-4.2536,0.6131,63.2348,5.2174,-62.8174
165,1.073,-3.4488,0.0,51.5478,6.0522,-64.5565
170,0.8047,-2.8357,-0.8047,29.7739,8.8348,-67.0609
175,0.5365,-2.2226,-1.1496,0.4174,12.8696,-68.4522
180,0.4215,-2.1459,-1.4945,-32.4174,16.4174,-67.0609
185,0.5748,-2.6824,-1.7627,-65.9478,18.0174,-62.5391
190,0.6514,-3.5255,-1.5328,-96.9043,17.3913,-55.6522
195,0.7664,-4.5601,-1.3029,-121.8087,15.7217,-47.3739
200,0.958,-5.7864,-1.2263,-138.2957,14.3304,-38.1217
205,1.0346,-6.8977,-1.0346,-145.7391,13.4261,-27.687
210,1.1879,-7.8557,-1.0346,-142.4,12.4522,-18.1565
215,1.1496,-8.5838,-1.073,-129.113,11.8261,-9.8783
220,0.8814,-8.8137,-1.3412,-107.2696,11.2696,-2.9217
225,0.7664,-8.967,-1.8394,-79.0957,9.9478,3.1304
230,0.6131,-8.4305,-2.4525,-47.9304,7.7913,9.113
235,0.2299,-7.9706,-3.5255,-17.4609,5.1478,14.5391
240,0.115,-7.3958,-3.5638,9.5304,2.4348,19.8261
245,-0.1916,-6.821,-4.062,32.0,-0.2783,25.2522
250,0.0,-6.2462,-4.3302,49.3913,-2.087,30.3304
255,0.2299,-5.748,-4.1003,61.5652,-2.2957,34.5739
260,0.3832,-5.3265,-3.7554,69.0783,-1.6,37.287
265,0.6131,-5.0966,-3.5255,73.3913,-0.6261,38.7478
270,0.8814,-4.7134,-3.1039,75.8261,0.7652,38.3304
275,0.843,-4.1769,-2.6824,77.7043,2.5043,36.8
280,1.2263,-3.7937,-2.2609,79.513,4.1043,34.7826
285,0.958,-3.2572,-2.1459,82.8522,5.6348,32.1391
290,0.6131,-3.1806,-2.3759,87.3739,6.5391,29.4957
295,-0.115,-3.4871,-2.7207,92.1043,6.887,27.8261
300,-0.3449,-4.0236,-3.6021,96.7652,6.887,27.3391
305,-0.4215,-4.6751,-4.5218,101.7043,8.2783,26.9217
310,-0.115,-4.8667,-4.8667,107.0609,12.1043,25.9478
315,0.7281,-5.0966,-5.5564,110.5391,14.4696,24.1391
320,1.4179,-5.4415,-6.0929,111.5826,11.4087,20.7304
325,1.916,-6.0546,-6.1696,108.6609,4.6609,15.0261
330,1.9543,-6.8977,-5.4798,100.313,-2.4348,7.0957
335,2.2226,-8.2389,-3.8704,86.7478,-6.6087,-2.8522
340,2.1076,-9.4268,-1.9543,68.5217,-8.6957,-14.6087
345,2.2609,-10.9213,-0.6131,47.4435,-12.1043,-25.4609
350,2.7207,-12.4541,0.115,26.8522,-17.4609,-33.6696
355,2.9123,-14.715,0.8814,10.1565,-21.8435,-41.0435
360,2.0693,-14.6767,1.0346,-0.2783,-22.0522,-47.0261
365,0.6898,-14.0252,2.4142,-4.7304,-18.4348,-46.887
370,-0.1916,-15.9029,4.5218,-9.113,-15.8609,-40.8348
375,-1.4179,-16.2095,7.1659,-17.7391,-18.4348,-36.6609
380,-1.7244,-16.9759,9.2735,-29.1478,-26.2957,-28.5913
385,-1.9543,-18.0872,10.4614,-41.0435,-37.0783,-14.3304
390,-1.6478,-19.3134,10.8446,-49.8783,-49.0435,2.5739
395,-1.1879,-20.463,10.0399,-51.4783,-60.2435,20.4522
400,-1.073,-21.4594,8.3155,-45.6348,-69.8435,38.4696
405,-0.6131,-22.4174,6.0163,-34.3652,-77.287,56.9739
410,-0.5365,-23.0305,3.5255,-20.7304,-82.8522,75.2696
415,-0.3832,-22.8772,1.6478,-7.4435,-87.1652,91.1304
420,-0.4598,-22.0342,0.3449,3.7565,-89.8783,102.4696
425,-0.7664,-20.578,-0.3449,12.0348,-90.5739,109.3565
430,-1.2263,-18.9686,-0.4598,17.113,-89.1826,113.7391
435,-1.4945,-17.5124,-0.3066,19.687,-86.6087,116.1043
440,-1.6095,-16.0179,0.5748,20.1739,-83.2,116.2435
445,-1.4179,-14.4851,1.2646,18.5043,-80.2087,114.713
450,-0.9963,-13.0289,1.9927,13.7739,-78.4,112.487
455,-0.7281,-11.6494,2.6441,4.5217,-78.1913,110.2609
460,-0.4982,-10.4231,2.9123,-9.5304,-80.0696,108.8
465,-0.5748,-9.3118,3.2572,-27.6174,-83.687,108.6609
470,-0.3832,-8.5454,3.4871,-47.0957,-87.8609,109.3565
475,-0.2299,-7.9323,3.7171,-64.6261,-92.1739,109.913
480,-0.0383,-7.5108,3.8704,-76.9391,-95.6522,109.0087
485,-0.0766,-7.3575,3.8704,-84.2435,-98.087,107.4783
490,-0.2299,-7.2042,3.7937,-86.887,-99.3391,105.3217
495,-0.3066,-7.0509,3.7171,-85.4957,-99.4087,103.3043
500,-0.4215,-7.0509,3.4488,-79.8609,-98.087,101.0783
505,-0.5748,-7.0509,3.1039,-70.7478,-95.7913,98.6435
510,-0.6131,-7.0509,2.7591,-59.7565,-93.0087,95.6522
515,-0.6131,-7.0126,2.3759,-48.2087,-90.4348,92.313
520,-0.4598,-7.0893,1.7627,-37.2174,-87.7217,88.487
525,-0.0383,-7.0509,1.3029,-26.9913,-84.4522,83.6174
530,0.4982,-7.0126,0.9963,-17.8783,-80.5565,77.6348
535,0.9197,-7.0126,0.4215,-9.9478,-76.4522,70.5391
540,0.9197,-6.9743,0.0766,-3.6174,-72.1391,62.2609
545,0.958,-6.7827,-0.1533,1.1826,-67.687,53.6348
550,0.843,-6.4761,-0.7281,3.8957,-63.1652,44.6609
555,0.8047,-6.3229,-0.9963,4.7304,-58.6435,35.5478
560,0.5748,-5.9013,-1.1496,2.9217,-55.2348,26.5739
565,0.4982,-5.748,-1.3029,-0.3478,-53.0783,17.5304
570,0.5365,-5.4798,-1.4179,-5.1478,-51.4783,8.4174
575,0.6131,-5.2499,-1.4562,-10.3652,-49.8783,-1.2522
580,0.8047,-4.905,-1.5328,-15.4435,-48.2087,-10.9217
585,0.9963,-4.79,-1.5328,-19.3391,-46.887,-20.313
590,0.9197,-4.5218,-1.6095,-21.3565,-46.1913,-28.8
595,1.1113,-4.4068,-1.6478,-21.0087,-45.6348,-36.3826
600,1.1113,-4.1769,-1.9927,-18.9217,-44.5913,-43.5478
605,0.7281,-3.947,-2.1843,-15.1652,-42.9913,-49.6696
610,0.4982,-3.6404,-2.2226,-9.3217,-40.5565,-54.5391
615,0.1916,-3.2189,-2.2992,-2.1565,-38.1913,-58.3652
620,-0.0766,-2.7207,-1.6861,6.2609,-34.5043,-61.2174
625,-0.115,-2.1459,-1.7627,15.8609,-30.5391,-63.6522
630,-0.1533,-1.3412,-1.5328,26.087,-26.5043,-65.3913
635,-0.0383,-0.7664,-1.3412,36.5913,-23.0261,-66.6435
640,-0.4215,-0.1533,-1.6095,47.1652,-20.3826,-67.4783
645,-0.6898,0.115,-2.3759,57.3913,-19.2,-67.2696
650,-1.073,-0.1916,-3.947,66.2261,-21.1478,-65.5304
655,-1.7244,-0.7281,-5.2116,72.4174,-27.5478,-62.1217
660,-2.4142,-1.3029,-6.0929,73.4609,-36.8,-57.4609
665,-3.4105,-1.8011,-6.936,69.913,-47.2348,-51.6174
670,-4.0236,-2.5291,-8.0473,64.0696,-58.8522,-43.8261
675,-4.1769,-3.6787,-8.6987,58.0174,-69.8435,-34.4348
680,-4.0236,-4.8284,-8.0473,51.6174,-77.7043,-23.5826
685,-3.1039,-6.5528,-6.4378,44.7304,-81.8087,-11.687
690,-2.1076,-8.0089,-3.832,38.7478,-80.0,1.113
695,-1.6095,-10.0399,-1.3795,34.1565,-69.913,13.0783
700,-1.7627,-12.4924,0.4982,29.9826,-53.7739,23.1652
705,-2.9507,-15.0982,2.1076,23.9304,-36.7304,31.2348
710,-4.7517,-16.9759,3.6404,14.9565,-24.6261,36.0348
715,-6.0163,-18.5854,4.7134,7.2348,-20.8696,40.0696
720,-6.3229,-16.9376,5.0966,3.6174,-26.1565,47.7913
725,-3.9087,-19.0069,6.3995,3.6174,-35.6174,68.2435
730,0.3832,-21.7659,7.894,10.087,-44.6609,91.8261
735,2.7591,-22.5707,8.4688,18.4348,-52.5217,100.1043
740,4.5984,-23.4904,8.852,24.9739,-54.2609,102.1217
745,5.4798,-24.5633,8.6604,25.3217,-50.5043,97.8087
750,5.3648,-25.1381,7.9323,20.5913,-47.8609,85.7739
755,4.5601,-25.2148,7.0509,16.8348,-50.2261,69.913
760,3.1806,-24.9465,5.863,18.2957,-59.0609,53.4957
765,2.4908,-24.4867,3.9853,23.513,-73.6696,35.4087
770,1.916,-23.7969,1.9927,25.9478,-90.087,11.687
775,1.4945,-22.2641,0.4215,21.2174,-102.1217,-17.1826
780,1.4562,-20.3864,-0.3066,9.8783,-106.1565,-45.3565
785,1.5711,-18.0872,-0.4598,-4.1043,-101.6348,-67.7565
790,1.8394,-15.4814,0.1916,-14.887,-90.4348,-83.687
795,1.8011,-12.5307,0.8047,-17.3217,-75.4087,-92.8
800,1.8011,-10.2315,0.5748,-14.6087,-60.1043,-93.4261
805,2.1459,-8.8903,0.6514,-16.4174,-46.4,-87.1652
810,2.5675,-8.0856,1.1879,-25.1826,-33.113,-79.0957
815,2.9123,-7.7407,1.4945,-41.3217,-20.8696,-70.887
820,2.7207,-7.779,2.5291,-64.9043,-11.7565,-65.4609
825,2.4525,-8.2389,2.9123,-91.1304,-7.2348,-62.9565
830,2.2609,-8.5071,3.7937,-115.8261,-7.7913,-62.6087
835,2.1459,-8.6987,4.4452,-134.887,-11.2,-63.1652
840,2.2609,-8.5454,5.0966,-145.3913,-15.9304,-63.6522
845,2.4525,-8.0089,5.2499,-146.0174,-20.5913,-64.487
850,2.7974,-7.5874,5.2499,-137.4609,-23.9304,-64.9739
855,3.3722,-7.0509,4.8667,-121.3913,-25.2522,-64.9043
860,3.4871,-6.2845,4.2536,-99.9652,-24.7652,-66.2261
865,3.6021,-5.4798,3.7554,-76.0348,-23.2348,-68.5217
870,3.4871,-4.8284,3.2572,-51.7565,-21.7043,-70.4
875,3.1806,-4.3685,2.5675,-29.1478,-20.5913,-72.2783
880,2.4525,-3.9853,1.8777,-11.2,-19.7565,-73.5304
885,1.8011,-3.947,1.0346,-0.1391,-19.8261,-72.4174
890,1.5328,-3.8704,0.3832,3.2696,-20.2435,-68.7304
895,1.1113,-4.2536,-0.4982,-1.8087,-19.9652,-63.0957
900,1.1879,-5.1349,-1.1879,-13.4261,-19.0609,-54.887
905,0.958,-5.9013,-1.916,-28.1739,-18.087,-46.3304
910,0.8047,-7.0126,-2.1459,-43.1304,-16.9739,-37.3565
915,0.843,-8.3155,-2.2226,-53.1478,-15.3043,-28.5217
920,0.958,-9.3502,-2.0693,-61.7043,-12.8696,-19.9652
925,1.073,-10.2315,-1.9927,-64.487,-9.113,-11.5478
930,1.3412,-10.7297,-1.7627,-59.2,-5.3565,-3.4783
935,1.4179,-10.7297,-1.5328,-44.9391,0.2087,3.6174
940,1.3795,-10.4231,-1.6861,-22.7478,5.5652,8.8348
945,1.4945,-9.5418,-2.0693,4.0348,9.3913,14.6783
950,1.2263,-8.6221,-2.4908,31.3739,10.9913,19.4087
955,1.0346,-7.3575,-3.1423,55.6522,10.2261,24.2087
960,0.843,-6.0163,-3.4105,75.1304,7.5826,29.0087
965,0.6898,-4.8667,-3.5638,90.0174,3.8957,34.2261
970,0.5748,-3.947,-3.7554,100.0348,0.2087,40.2087
975,0.4598,-3.0656,-3.7937,104.0,-2.713,45.4957
980,0.6898,-2.4525,-3.7937,101.287,-4.0348,48.2783
985,0.9197,-1.6478,-3.5638,92.1739,-3.0609,48.2783
990,0.9963,-1.2263,-3.1423,80.1391,-0.0696,46.3304
995,1.2263,-0.8814,-2.4142,68.5217,3.4087,43.4087
1000,1.4179,-0.6131,-1.9543,59.4087,6.2609,39.5826
1005,1.4945,-0.6131,-1.6095,54.0522,7.6522,35.8261
1010,0.958,-0.9963,-2.2609,53.0783,7.6522,32.3478
1015,0.1533,-1.9543,-3.1039,55.5826,7.513,29.9826
1020,-0.3832,-2.7207,-4.2152,59.8957,7.7913,28.9391
1025,-0.1916,-3.4105,-5.978,64.9739,9.9478,27.7565
1030,0.6514,-3.7937,-7.8173,70.1217,14.4,24.3478
1035,1.7244,-4.2919,-9.5801,73.8783,19.2696,18.0174
1040,2.8357,-5.2499,-10.4614,74.6435,21.0087,9.1826
1045,3.3722,-6.5145,-9.925,70.9565,17.3217,-1.4609
1050,3.2955,-7.894,-7.7407,61.913,8.0,-13.7043
1055,2.9123,-9.5034,-5.2116,47.5826,-5.913,-26.7826
1060,2.6824,-11.4195,-2.6824,30.0522,-22.7478,-39.0957
1065,3.1039,-13.3355,-0.958,10.2957,-39.3043,-49.2522
1070,3.2189,-15.2515,0.0766,-9.5304,-50.713,-58.0174
1075,2.874,-16.5544,1.3795,-27.9652,-52.1739,-66.4348
1080,0.9963,-15.2898,3.1806,-41.3217,-43.1304,-72.0
1085,0.0383,-18.4704,5.7097,-48.2087,-29.4261,-73.0435
1090,-2.0693,-19.2368,9.2352,-48.1391,-21.287,-74.9913
1095,-2.9507,-20.2714,11.7643,-37.2174,-22.4696,-67.4783
1100,-3.9087,-21.7276,12.684,-20.2435,-29.9826,-49.2522
1105,-3.9853,-22.7623,12.2625,-4.3826,-39.3043,-24.9739
1110,-3.6787,-23.567,10.5764,6.887,-47.1652,2.2957
1115,-3.2189,-24.1035,8.5071,13.287,-52.313,30.6783
1120,-2.6824,-24.5633,6.2845,16.1391,-55.9304,58.0174
1125,-1.7627,-24.7549,4.1003,18.5043,-60.9391,83.1304
1130,-1.4562,-24.7549,2.0693,21.913,-68.5913,105.8783
1135,-1.3029,-24.2184,0.4215,24.5565,-78.4,125.0783
1140,-1.4562,-23.3754,-0.3449,25.2522,-88.9739,139.0609
1145,-1.8777,-21.7659,-0.3832,25.6696,-98.6435,147.4087
1150,-2.3759,-19.505,0.3066,29.1478,-106.2957,151.7913
1155,-2.2992,-17.0909,0.6898,37.4261,-111.2348,155.0609
1160,-1.9927,-14.3701,0.8814,47.0261,-113.5304,156.8696
1165,-1.2646,-12.0709,0.5365,50.5043,-112.9739,156.0348
1170,-0.4982,-9.8483,0.4215,41.8783,-109.9826,152.4174
1175,0.3449,-8.3921,0.5365,20.8696,-106.2261,146.5739
1180,0.7281,-7.5491,0.9197,-9.113,-103.9304,139.7565
1185,0.7664,-7.0509,1.2646,-42.9217,-102.5391,133.913
1190,0.843,-6.9743,2.1459,-74.5739,-102.887,130.1565
1195,0.958,-7.0509,2.6824,-100.1043,-104.7652,126.5391
1200,0.7281,-7.0893,3.1806,-117.3565,-107.3391,121.5304
1205,0.6514,-7.5108,3.7171,-125.7043,-109.7043,115.4087
1210,0.4215,-7.4725,3.947,-124.8,-110.9565,107.8957
1215,-0.0766,-7.4341,4.2536,-115.2,-110.8174,100.1043
1220,-0.4982,-7.1659,4.1386,-98.5043,-109.4261,93.4957
1225,-0.5748,-7.3192,3.9087,-77.1478,-107.4783,88.6261
1230,-0.6131,-7.2425,3.5638,-53.5652,-105.3217,84.3826
1235,-0.5748,-7.0893,2.874,-30.7478,-102.5391,80.0696
1240,-0.5365,-6.5528,2.4908,-10.6435,-98.713,76.0348
1245,-0.4215,-6.2079,1.6095,2.9217,-94.7478,70.887
1250,-0.4215,-5.7864,0.9197,16.487,-90.9217,65.113
1255,-0.1916,-5.3265,0.0,25.9478,-87.5826,59.2
1260,-0.3832,-4.79,-0.7281,30.7478,-85.7739,53.0087
1265,-0.4598,-4.2536,-1.8394,30.2609,-84.4522,46.6783
1270,-0.5748,-3.832,-2.5291,24.6261,-83.8261,40.6957
1275,-0.843,-3.4105,-3.1039,14.3304,-83.0609,35.3391
1280,-0.843,-3.0656,-3.5638,0.4174,-82.3652,28.8
1285,-0.7281,-2.8357,-3.5255,-15.7913,-82.7826,21.6348
1290,-0.7281,-2.6441,-3.5638,-32.1391,-83.6174,13.4261
1295,-0.6131,-2.7974,-3.6021,-46.6783,-84.3826,4.6609
1300,-0.3066,-2.7591,-3.3339,-57.8087,-84.6609,-4.4522
1305,-0.0766,-2.9123,-2.8357,-63.7217,-84.313,-14.2609
1310,0.0383,-3.1423,-2.6441,-64.0,-82.713,-23.1652
1315,0.1916,-3.0656,-2.5675,-58.5739,-80.0,-31.3043
1320,0.3832,-3.5255,-2.1459,-48.2087,-76.4522,-38.3304
1325,0.2682,-3.4488,-2.0693,-34.1565,-71.5826,-44.4522
1330,0.1533,-3.4871,-1.9543,-17.3217,-65.8087,-49.6696
1335,0.115,-3.1423,-1.7627,1.4609,-59.8957,-53.4957
1340,0.2682,-2.5675,-1.4945,20.9391,-54.1913,-55.7913
1345,0.5748,-2.1076,-1.4179,39.9304,-49.0435,-56.9739
1350,0.958,-1.5711,-1.4562,58.0174,-44.6609,-57.7391
1355,1.1496,-0.8814,-1.5328,75.2696,-40.8348,-58.7826
1360,0.7281,-0.115,-2.3375,90.2957,-38.4696,-59.7565
1365,0.2682,-0.0383,-3.7937,102.3304,-39.3739,-59.687
1370,-0.3066,-0.4215,-5.3648,109.4261,-44.8696,-57.5304
1375,-1.073,-0.5748,-6.0546,109.0783,-53.7739,-54.1217
1380,-2.4142,-0.9197,-6.5528,101.1478,-64.0696,-49.7391
1385,-3.8704,-1.5328,-7.3575,88.0696,-75.4783,-43.2
1390,-4.5218,-2.6058,-8.7754,71.4435,-87.4435,-33.6
1395,-4.2536,-4.0236,-9.0053,52.6609,-96.487,-22.3304
1400,-3.4871,-5.748,-7.9323,33.9478,-99.0609,-11.4087
1405,-2.2992,-7.7407,-5.7097,18.713,-94.6087,-1.0435
1410,-1.3412,-10.0782,-3.1806,8.0696,-84.5217,9.113
1415,-0.9197,-12.9139,-0.5365,2.7826,-69.913,19.687
1420,-1.4179,-15.9413,1.5328,0.5565,-52.8,28.7304
1425,-2.5675,-18.6237,3.6021,-3.5478,-36.1739,33.8783
1430,-3.6787,-20.693,4.9433,-11.5478,-24.9043,36.8696
1435,-3.2189,-20.1182,6.936,-22.4,-22.8174,42.5739
1440,-0.4598,-19.9266,8.8137,-29.3565,-26.3652,53.4261
1445,3.8704,-21.2295,10.653,-24.9043,-27.4087,71.2348
1450,7.2042,-24.6016,12.1475,-5.4261,-23.7217,82.3652
1455,7.5491,-26.2494,12.3391,21.4261,-17.8087,83.8261
1460,6.9743,-28.3187,11.1512,48.6957,-12.4522,81.113
1465,6.5911,-29.4683,9.1202,68.4522,-13.3565,71.6522
1470,5.1349,-28.7019,6.9743,79.9304,-21.9826,56.2783
1475,4.4452,-27.5523,4.4835,85.0087,-34.5043,40.487
1480,4.1003,-26.0578,2.1459,81.2522,-48.9739,23.3043
1485,3.5638,-24.1801,0.3832,65.9478,-61.4261,0.2783
1490,3.2955,-22.0342,-0.8814,41.9478,-65.9478,-27.5478
1495,2.9123,-19.6966,-1.3795,15.4435,-59.7565,-56.1391
1500,2.7591,-17.1292,-1.0346,-7.3043,-44.2435,-80.3478
1505,2.9123,-14.6384,-0.4215,-21.2174,-24.0,-97.6
1510,2.7974,-11.841,-0.2682,-25.8087,-3.5478,-106.5739
1515,3.1039,-9.81,-0.6898,-27.8261,14.2609,-106.1565
1520,3.4105,-8.6604,-0.6131,-35.8957,28.5913,-100.0348
1525,3.6404,-8.5071,-0.3066,-50.9217,40.3478,-92.7304
1530,3.4105,-8.5454,-0.1916,-72.2087,50.087,-86.6087
1535,2.9123,-8.7754,0.5365,-98.9217,55.7913,-83.1304
1540,2.2609,-9.3118,1.7627,-126.6783,56.487,-81.8087
1545,1.8394,-9.5801,2.9507,-148.9391,53.5652,-81.2522
1550,1.4945,-9.7334,3.9087,-162.2957,49.3913,-80.6261
1555,1.3029,-9.3502,5.0966,-164.4522,45.913,-79.4435
1560,1.4562,-8.737,5.748,-155.2696,43.3391,-77.913
1565,1.5711,-8.0473,6.0163,-136.3478,41.9478,-76.6609
1570,1.6095,-7.1659,5.4415,-111.2348,41.3217,-75.687
1575,2.1076,-6.4378,5.2882,-83.2,41.4609,-74.2957
1580,1.8394,-6.1313,4.79,-59.7565,42.087,-74.1565
1585,2.2992,-5.5564,3.6787,-31.9304,42.4348,-75.2
1590,2.0693,-5.1732,2.8357,-8.6957,41.9478,-76.313
1595,1.8394,-5.1732,1.7627,8.487,40.0,-76.5217
1600,1.4562,-5.2882,0.6514,17.4609,37.4957,-74.7826
1605,0.9963,-5.6331,0.0766,17.3217,33.9478,-70.9565
1610,0.7664,-6.0929,-0.7281,8.7652,30.3304,-66.3652
1615,0.5748,-6.936,-0.9963,-5.5652,27.4087,-59.2696
1620,0.6514,-7.7407,-1.4179,-22.2609,25.3217,-51.3391
1625,0.4982,-8.6987,-1.6095,-37.8435,23.5826,-43.2696
1630,0.3066,-9.1969,-1.5328,-49.3913,22.7478,-34.6435
1635,0.2682,-9.6184,-1.4179,-54.7478,22.7478,-25.9478
1640,0.2682,-9.695,-1.3029,-51.9652,23.3043,-17.2522
1645,0.1916,-9.6567,-1.1496,-40.8348,24.0,-9.4609
1650,0.3832,-9.2735,-1.6478,-22.4,24.8348,-2.6435
1655,0.5365,-8.4305,-1.9927,0.4174,25.6696,3.2696
1660,0.4215,-7.4725,-2.7207,23.0261,25.8087,8.6957
1665,0.3066,-6.4761,-3.2189,42.1565,24.8348,13.9826
1670,0.115,-5.3265,-3.6404,55.513,22.0522,19.2696
1675,-0.0766,-4.3685,-4.062,62.887,17.7391,24.0
1680,-0.1916,-3.3339,-4.3685,65.1826,12.7304,28.4522
1685,-0.115,-2.4142,-4.1769,63.0957,8.2087,32.2783
1690,-0.0383,-1.8394,-3.7171,57.6696,5.3565,34.5739
1695,-0.0383,-0.9963,-3.2955,49.4609,4.3826,35.0609
1700,0.2299,-0.3066,-2.5675,40.4174,5.3565,35.2696
1705,0.4598,0.2299,-1.7244,32.5565,7.6522,34.9217
1710,0.4598,0.3449,-0.6514,27.2696,9.8087,33.9478
1715,0.6131,0.5748,-0.0383,26.1565,11.2,32.3478
1720,0.2299,0.9197,0.5748,29.8435,12.2435,30.7478
1725,0.4598,0.8047,0.4215,38.2609,12.6609,30.1913
1730,0.3066,0.2299,-0.5365,50.5043,13.0783,30.4696
1735,-0.0383,-0.8814,-2.2992,64.0696,14.2609,31.5826
1740,-0.1533,-1.9543,-3.6787,76.1043,15.7217,32.8348
1745,0.3066,-2.4908,-5.1732,86.3304,17.113,33.3913
1750,1.2263,-2.7974,-7.2042,95.3739,18.087,32.2087
1755,2.5291,-3.1806,-9.5034,101.0783,17.2522,28.9391
1760,3.6021,-3.947,-11.3045,101.9826,13.7043,24.3478
1765,4.3302,-5.6331,-11.7643,97.1826,8.6957,18.7826
1770,4.2536,-7.4725,-10.4231,87.7913,5.0087,11.5478
1775,3.7554,-9.5801,-7.7407,72.0,2.5739,1.7391
1780,2.7591,-11.5727,-4.5218,47.513,-3.2696,-11.0609
1785,1.6861,-13.9869,-1.9927,14.887,-16.3478,-24.1391
1790,1.3412,-16.631,0.0,-22.6783,-32.5565,-34.4348
1795,1.1113,-18.9302,2.6441,-59.0609,-44.8696,-41.0435
1800,0.4598,-20.6546,5.1349,-81.9478,-47.8609,-45.1478
1805,-1.6095,-17.4741,7.1276,-81.4609,-40.3478,-46.4696
1810,-1.3795,-23.1838,9.695,-59.8957,-27.4783,-39.2348
1815,-2.4908,-23.8736,11.6111,-31.3739,-19.4087,-34.6435
1820,-3.4105,-24.4867,11.8793,-5.1478,-16.9739,-25.6696
1825,-3.2189,-25.3297,11.2662,12.5217,-19.6174,-8.6261
1830,-2.9123,-25.8279,10.0016,21.1478,-26.713,11.3391
1835,-2.4142,-25.9812,8.4305,25.4609,-34.713,31.7217
1840,-1.4562,-25.6363,6.5528,29.913,-41.6,50.2261
1845,-0.3449,-24.8699,4.79,35.6174,-47.3043,66.1565
1850,0.4982,-23.8352,2.9123,42.9913,-53.2174,80.4174
1855,0.7664,-22.2258,1.2646,50.6435,-59.687,91.8957
1860,0.6131,-20.0415,-0.1533,57.1826,-66.2261,100.1043
1865,0.1916,-17.4741,-0.958,61.5652,-71.0957,105.9478
1870,-0.3449,-14.6767,-1.1879,65.113,-73.6696,111.9304
1875,-0.4598,-12.3775,-1.5328,65.9478,-73.8783,118.6087
1880,-0.2682,-10.3465,-1.2263,59.4783,-72.2783,123.8261
1885,-0.1916,-8.5838,-0.958,43.2696,-69.5652,126.6783
1890,0.0766,-7.3958,-0.4215,15.513,-67.1304,127.9304
1895,0.2682,-6.6294,0.2682,-21.4957,-65.6696,129.2522
1900,0.6514,-6.3229,1.4179,-62.8174,-64.8348,131.0609
1905,0.9197,-6.6677,2.5675,-101.0087,-65.6,132.7304
1910,0.8047,-7.0509,3.8704,-130.3652,-68.1043,133.1478
1915,0.4215,-7.6257,4.7517,-147.9652,-71.7217,132.313
1920,0.2299,-8.3155,5.1732,-153.3913,-75.6174,131.1304
1925,0.3066,-9.0053,5.6714,-150.8174,-78.4,128.6957
1930,-0.2682,-9.2352,5.8247,-138.1565,-78.7478,123.7565
1935,-0.4982,-9.2735,6.0163,-116.1043,-76.5217,116.9391
1940,-0.6898,-9.0819,5.5948,-86.5391,-72.4174,109.7043
1945,-1.1496,-8.967,5.02,-53.8435,-67.4087,103.2348
1950,-1.073,-8.7754,4.1769,-22.2609,-61.9826,97.8783
1955,-0.7281,-8.3155,3.2189,5.0783,-56.6957,89.8783
1960,-0.5748,-7.6257,2.3375,28.0348,-51.2696,81.8087
1965,-0.1533,-7.2809,1.3029,45.7043,-45.6348,73.5304
1970,0.2682,-6.936,0.3449,57.6,-39.6522,64.9043
1975,0.4598,-6.3995,-0.3832,64.0696,-34.5043,55.5826
1980,0.3066,-5.7864,-1.2263,64.2783,-31.0957,46.5391
1985,0.3449,-5.2882,-2.031,58.6435,-29.9826,37.7739
1990,0.3449,-4.8284,-2.5291,48.0,-31.0261,29.4957
1995,0.115,-4.3685,-2.989,33.3913,-33.1826,21.6348
2000,-0.115,-3.9853,-3.4871,15.7913,-35.687,14.5391
2005,-0.1533,-3.7171,-3.6787,-3.2696,-38.7478,7.9304
2010,0.0766,-3.6404,-3.8704,-22.4696,-42.5739,0.4174
2015,0.3066,-3.3339,-3.4488,-40.0,-46.4696,-7.5826
2020,0.3066,-3.5255,-3.2189,-54.5391,-50.2261,-15.513
2025,0.5365,-3.5638,-2.9123,-64.6957,-53.0087,-23.3043
2030,0.4215,-3.6404,-2.6441,-69.287,-54.6783,-30.6783
2035,0.3449,-3.7171,-2.1459,-68.1739,-55.5826,-36.8696
2040,0.0,-3.6404,-1.9927,-62.4,-55.4435,-41.3913
2045,-0.1916,-3.6021,-1.5328,-51.6174,-53.913,-45.4261
2050,-0.5748,-3.4105,-1.2263,-35.9652,-51.2696,-49.113
2055,-0.6898,-2.9123,-0.958,-17.3217,-47.9304,-51.4783
2060,-0.8814,-2.3759,-0.5748,3.8261,-44.313,-52.5217
2065,-1.1496,-1.6861,-0.6898,26.713,-40.9739,-52.7304
2070,-0.6131,-0.9963,-0.5748,50.8522,-38.1913,-52.5913
2075,-0.6131,-0.3449,-0.9197,74.6435,-35.6174,-52.313
2080,-0.6898,0.2682,-1.7244,95.6522,-33.7391,-51.687
2085,-0.843,0.3066,-2.874,112.0696,-32.9739,-50.7826
2090,-1.2263,-0.0766,-4.5984,123.3391,-35.2696,-49.0435
2095,-1.9543,-0.6898,-6.2462,127.6522,-40.7652,-46.4
2100,-3.0656,-1.3029,-7.3192,124.5913,-47.3739,-42.0174
2105,-3.9853,-2.2226,-8.5838,116.7304,-53.913,-35.8957
2110,-4.5601,-3.4871,-9.5418,105.9478,-59.687,-28.1739
2115,-4.2919,-4.7517,-9.4268,93.0087,-64.1391,-19.4087
2120,-3.5255,-6.3229,-7.6257,78.1217,-67.4087,-10.2261
2125,-2.4908,-8.0473,-4.79,62.4,-68.6609,-0.487
2130,-1.8394,-10.0016,-1.7244,46.3304,-65.3913,9.7391
2135,-1.4945,-12.3775,0.7281,28.4522,-56.2783,18.2261
2140,-2.0693,-14.83,2.7591,6.6087,-43.8261,23.513
2145,-3.1806,-16.9759,4.8284,-18.3652,-32.2087,26.2261
2150,-4.1003,-19.1602,6.2845,-39.7913,-24.7652,28.7304
2155,-3.0273,-20.2714,7.894,-50.9217,-22.4,35.2696
2160,-1.1879,-17.3974,9.0053,-44.8,-23.3043,46.4
2165,3.7171,-22.5707,10.8063,-21.2174,-21.6348,66.6435
2170,5.7864,-23.6436,11.9176,10.2261,-19.3391,72.7652
2175,6.4378,-24.6783,11.8027,39.9304,-16.1391,71.7217
2180,6.5911,-25.6746,10.4231,56.9739,-14.8174,64.9739
2185,6.0929,-25.9429,8.5071,57.6,-18.4348,50.7826
2190,5.3648,-25.5213,6.3995,47.6522,-27.3391,33.8783
2195,4.79,-24.3334,3.6021,35.0609,-40.9043,19.1304
2200,4.4068,-23.4904,1.2646,21.6348,-55.2348,5.0783
2205,4.1769,-22.2258,-0.4598,5.287,-63.7217,-13.9826
2210,3.832,-20.6546,-1.4179,-12.9391,-61.4261,-38.0522
2215,3.5638,-18.5087,-1.073,-28.6609,-47.3043,-62.1913
2220,3.5638,-15.9796,-0.3449,-37.913,-25.6,-80.7652
2225,3.2955,-13.2205,0.3066,-38.0522,-2.713,-90.7826
2230,3.5638,-10.9979,0.4215,-33.6,16.8348,-91.5478
2235,4.5218,-9.8866,0.4982,-33.1826,32.6957,-87.1652
2240,4.905,-9.3502,1.0346,-41.4609,47.5826,-82.5739
2245,5.1349,-9.3118,1.1496,-59.8957,60.5217,-79.3739
2250,4.4835,-9.3502,2.3375,-87.0957,69.1478,-78.6783
2255,3.9853,-9.5801,3.2955,-116.9391,71.6522,-79.3043
2260,3.5255,-10.1166,4.4835,-142.4696,69.3565,-79.4435
2265,2.9507,-10.2315,5.0966,-155.8261,64.487,-78.4696
2270,3.1423,-10.3082,5.9396,-162.0174,59.1304,-76.4522
2275,3.3722,-9.925,6.2845,-155.7565,54.887,-75.1304
2280,3.4871,-9.695,6.3612,-138.8522,52.8,-75.4087
2285,3.9087,-8.737,5.6331,-114.4348,51.5478,-77.2174
2290,3.9853,-7.9323,5.2499,-87.0261,51.1304,-80.2087
2295,3.8704,-7.2809,4.4835,-59.687,51.4087,-82.5043
2300,3.6404,-6.7444,3.5638,-34.9217,51.9652,-85.0087
2305,3.2955,-6.3612,2.7207,-15.0261,52.0348,-86.4
2310,2.4142,-5.9396,1.4945,-0.9043,50.9913,-86.2609
2315,1.7627,-5.978,0.3449,5.9826,48.6261,-84.8
2320,0.843,-5.863,-0.4215,6.2609,46.5391,-81.6696
2325,0.1916,-6.0163,-1.3029,0.6957,45.3565,-76.1043
2330,-0.4215,-6.3612,-1.8777,-10.0174,44.313,-68.6609
2335,-0.6514,-6.6677,-2.1843,-24.4174,42.713,-58.8522
2340,-0.958,-7.0509,-2.1076,-40.5565,41.1826,-47.513
2345,-0.8814,-7.5491,-2.031,-55.1652,40.6261,-34.5739
2350,-0.958,-7.779,-1.8011,-64.7652,41.2522,-21.4261
2355,-0.8814,-7.894,-1.5711,-67.7565,42.8522,-8.7652
2360,-0.6898,-8.1622,-1.4179,-64.2087,43.9652,2.7826
2365,-0.6131,-7.894,-1.6861,-55.0261,44.0348,13.2174
2370,-0.6514,-7.5874,-1.8011,-41.9478,42.7826,22.4
2375,-0.6514,-7.0893,-2.0693,-26.5043,40.6261,30.3304
2380,-0.7664,-6.4378,-2.1459,-10.7826,38.1217,36.9391
2385,-0.7281,-5.5564,-2.4142,3.8261,35.2696,42.8522
2390,-0.6131,-4.7134,-2.6058,16.487,32.2783,47.8609
2395,-0.5748,-3.7171,-2.6824,26.713,29.6348,52.8
2400,-0.1533,-3.0273,-2.7207,34.2261,27.687,56.2783
2405,0.1916,-2.1459,-2.4142,38.9565,26.713,58.2957
2410,0.6514,-1.4179,-2.3759,41.0435,26.6435,58.6435
2415,0.8814,-0.8814,-2.1076,41.5304,27.8957,57.1826
2420,0.7664,-0.2682,-1.916,41.4609,30.1217,53.8435
2425,0.7664,0.1916,-1.8011,41.6696,32.9043,50.2261
2430,0.7664,0.5365,-1.6861,42.6435,35.0609,46.6783
2435,0.7664,0.8047,-1.8394,44.8,35.9652,43.2
2440,0.6898,0.6131,-2.3759,47.4435,36.1739,40.0
2445,0.5365,-0.0766,-3.7554,50.3652,36.5217,37.1478
2450,0.4215,-1.3029,-4.8667,53.0783,37.4957,34.9217
2455,0.7664,-2.1843,-6.2079,56.2087,38.8174,32.9043
2460,1.4179,-3.0273,-7.7024,62.1217,40.2087,29.913
2465,2.2609,-3.7171,-8.7754,69.7043,41.1826,25.1826
2470,2.9507,-4.4068,-9.0819,75.9652,39.7913,18.6435
2475,3.3722,-5.4415,-8.737,79.5826,36.6609,10.9217
2480,3.4871,-6.7061,-7.2809,79.3739,33.2522,1.9478
2485,3.1423,-8.0473,-5.3265,73.0435,29.7739,-8.9043
2490,2.5675,-9.5801,-3.1039,59.8261,24.487,-21.0783
2495,1.916,-11.0746,-0.958,40.487,15.513,-33.9478
2500,2.0693,-12.7607,0.7281,17.7391,4.5913,-45.1478
2505,2.4142,-14.2935,2.3759,-3.2,-2.9913,-53.2174
2510,2.6824,-15.4814,3.3722,-16.6957,-3.4087,-59.4783
2515,2.031,-14.6767,5.1732,-19.6174,4.2435,-61.7739
2520,1.916,-18.4321,6.3229,-13.0087,14.7478,-61.6348
2525,-0.115,-19.1602,7.894,-4.9391,19.4783,-66.4348
2530,-1.4945,-20.2331,8.7754,3.3391,17.2522,-64.6261
2535,-2.1076,-21.4211,8.6987,5.4957,10.087,-54.5391
2540,-2.2609,-22.2641,8.2005,-1.6,0.6261,-39.7913
2545,-2.0693,-23.1455,7.5108,-14.0522,-8.0,-21.287
2550,-1.7627,-23.682,6.3995,-24.6261,-14.3304,-0.8348
2555,-1.2263,-24.2951,4.9433,-28.8696,-19.1304,20.0348
2560,-0.2682,-24.7932,2.9123,-27.9652,-23.5826,40.2783
2565,0.3066,-24.6783,1.4945,-24.2087,-27.1304,60.2435
2570,0.4982,-24.0268,0.4598,-20.2435,-30.4696,78.6087
2575,0.1916,-22.4174,0.4598,-13.7043,-35.5478,92.8696
2580,-0.4982,-20.2331,0.4982,-1.9478,-40.3478,103.8609
2585,-0.958,-17.9339,0.7664,15.0261,-45.2174,113.113
2590,-1.1879,-15.4814,0.9963,32.8348,-46.6087,120.6261
2595,-0.8814,-13.4121,1.4179,47.3739,-43.8957,125.0087
2600,-0.8047,-11.5344,1.9927,54.3304,-39.0957,127.7217
2605,-0.6131,-9.8483,2.4908,51.4783,-34.8522,127.0957
2610,-0.4598,-8.3155,3.4105,37.7043,-32.8348,124.9391
2615,-0.3449,-7.2042,3.5638,14.4696,-33.5304,122.713
2620,0.1533,-6.5528,4.2919,-14.6783,-36.7304,121.1826
2625,0.4598,-6.3229,4.6368,-44.1739,-41.6696,120.0
2630,0.5365,-6.3229,4.7517,-69.7043,-46.6783,117.7739
2635,0.3832,-6.3995,4.8284,-88.6261,-50.2261,115.0609
2640,0.2682,-6.6677,4.6368,-100.4522,-52.1739,112.4174
2645,0.0766,-6.7061,4.4452,-105.1826,-52.8,108.7304
2650,-0.115,-6.7827,4.0236,-103.4435,-51.4087,103.8609
2655,-0.4215,-6.821,3.4871,-95.7217,-48.5565,98.0174
2660,-0.5748,-6.9743,3.0656,-83.1304,-44.7304,92.5217
2665,-0.4215,-6.8977,2.4142,-67.8261,-40.6957,87.2348
2670,-0.0383,-7.2042,1.6861,-52.0348,-37.0087,81.6696
2675,0.3832,-7.0893,0.9197,-37.4957,-33.9478,75.6174
2680,0.958,-7.0126,0.1916,-24.487,-31.3043,68.7304
2685,1.1496,-6.7827,-0.1533,-14.1217,-29.3565,60.5913
2690,1.1496,-6.5145,-0.7664,-7.0261,-28.1043,52.0348
2695,0.8814,-6.2079,-0.9197,-3.9652,-27.7565,43.4783
2700,0.4598,-5.9396,-1.2263,-4.6609,-28.313,35.7565
2705,0.115,-5.6331,-1.1879,-8.6957,-30.1913,28.8696
2710,-0.4215,-5.4415,-1.4562,-15.0957,-32.5565,22.4
2715,-0.4982,-5.4415,-1.6095,-22.9565,-34.9217,15.4435
2720,-0.5748,-5.5181,-1.6478,-31.0261,-36.3826,8.0
2725,-0.3832,-5.4798,-1.8011,-38.7478,-36.1739,-0.2087
2730,-0.2299,-5.5564,-1.6478,-44.5913,-35.0609,-8.487
2735,0.1916,-5.5564,-1.6095,-47.0261,-33.8087,-17.4609
2740,0.3449,-5.5564,-1.7627,-44.4522,-32.3478,-26.2957
2745,0.4215,-5.5181,-2.0693,-37.913,-30.1913,-33.6696
2750,0.3066,-5.2116,-2.1843,-28.1739,-27.1304,-39.9304
2755,0.0,-4.9816,-2.1843,-15.7217,-23.2348,-45.7739
2760,-0.3449,-4.4835,-2.1076,-1.6,-19.0609,-50.3652
2765,-0.5365,-4.2919,-1.4179,13.5652,-15.7217,-54.0522
2770,-0.6131,-3.2189,-1.7244,29.2174,-13.0087,-56.4174
2775,-0.958,-2.2609,-1.6095,44.9391,-10.9913,-57.6696
2780,-1.1496,-1.4562,-1.6095,59.6174,-9.4609,-57.7391
2785,-1.2646,-0.6898,-1.9543,73.2522,-8.8348,-57.1826
2790,-1.4945,0.0383,-2.9123,85.7043,-9.5304,-56.2783
2795,-1.6478,0.2299,-4.4068,95.0261,-11.7565,-54.7478
2800,-1.916,-0.4598,-5.863,99.4087,-16.0,-51.7565
2805,-2.3759,-1.2263,-7.3192,97.6696,-21.9826,-46.887
2810,-3.1039,-2.2992,-8.4688,91.2,-29.2174,-40.8348
2815,-3.7171,-3.2189,-9.3118,82.7826,-36.313,-34.0174
2820,-3.6787,-4.2536,-8.967,73.8783,-40.0696,-26.3652
2825,-3.1423,-5.4032,-7.2042,66.087,-39.9304,-17.6696
2830,-2.1843,-6.936,-4.7517,60.5217,-37.287,-7.9304
2835,-1.0346,-7.9706,-1.8394,57.113,-32.1391,2.3652
2840,-0.4215,-9.4651,0.5748,55.2348,-24.0696,10.5739
2845,-0.1533,-10.883,1.9543,51.7565,-13.913,15.513
2850,-0.5365,-12.4541,3.4105,44.9391,-4.3826,17.8783
2855,-1.2646,-12.5307,4.4068,35.2696,2.5043,19.2
2860,-2.031,-11.9176,5.02,23.8609,6.3304,23.7913
2865,-0.1916,-14.6,5.863,12.2435,7.9304,38.5391
2870,2.6058,-17.2058,7.7024,3.3391,5.3565,50.4348
2875,4.9816,-17.9722,8.852,0.2783,1.113,55.4435
2880,6.8977,-19.5434,9.81,2.5043,2.087,60.4522
2885,7.2425,-21.0762,10.1932,5.5652,8.2087,61.4957
2890,6.0929,-21.8043,9.6567,5.5652,14.3304,55.0957
2895,4.9816,-21.9959,8.5071,2.0174,15.513,44.6609
2900,4.3302,-22.0725,7.0126,-1.8783,10.3652,33.9478
2905,3.9853,-21.8426,5.02,-3.5478,-0.6261,23.9304
2910,3.9087,-21.9192,2.7207,-3.7565,-12.8696,13.0783
2915,3.5255,-21.8809,0.3832,-6.3304,-20.9391,-3.2
2920,3.1806,-21.4211,-1.4179,-15.6522,-20.313,-26.8522
2925,3.2189,-20.578,-2.2609,-31.9304,-12.7304,-54.5391
2930,3.3722,-19.2751,-2.2609,-50.9913,3.687,-80.2087
2935,3.9087,-17.7423,-1.0346,-65.6,24.5565,-99.2696
2940,4.3685,-16.0945,0.6131,-69.9826,44.8,-109.0087
2945,4.7517,-14.5617,1.6095,-63.8609,60.5217,-115.1304
2950,5.02,-13.2205,2.3759,-54.5391,71.7217,-114.9913
2955,5.0583,-12.684,3.2189,-48.0,81.113,-111.2348
2960,4.8284,-11.8793,3.4488,-46.1913,89.8783,-105.2522
2965,4.3302,-11.4195,3.8704,-51.687,96.5565,-98.9913
2970,3.8704,-11.1895,4.2152,-64.487,99.1304,-94.4696
2975,3.4488,-10.768,4.2919,-79.513,97.9478,-92.1043
2980,2.989,-10.3465,4.7134,-91.0609,93.913,-90.4348
2985,2.8357,-9.7717,4.5984,-96.4174,88.9043,-88.2783
2990,2.6824,-9.0436,4.4068,-94.4696,84.5217,-86.6783
2995,2.7974,-8.5071,4.4452,-86.4,81.5304,-85.5652
