timestamp,accX,accY,accZ,gyroX,gyroY,gyroZ
0,0.8047,-5.4798,-7.6257,-32.5565,5.5652,-4.5913
5,0.8814,-5.5564,-7.6257,-32.2783,5.4261,-4.8
10,0.8047,-5.5564,-7.6257,-32.0,5.3565,-4.8
15,0.843,-5.4798,-7.5491,-31.7913,5.1478,-4.6609
20,0.8047,-5.4032,-7.6641,-31.3739,5.0087,-4.5913
25,1.073,-5.4032,-7.8173,-30.887,4.9391,-4.5217
30,0.9197,-5.4032,-7.6641,-30.4,4.9391,-4.2435
35,0.8047,-5.4032,-7.5874,-29.9826,4.7304,-3.9652
40,0.7281,-5.2882,-7.6257,-29.4261,4.6609,-3.8261
45,0.8047,-5.2882,-7.6641,-29.0783,4.5217,-3.4087
50,0.8814,-5.3265,-7.8173,-28.5913,4.313,-3.2696
55,0.8047,-5.3648,-7.8173,-28.1739,4.2435,-3.2
60,0.7281,-5.2499,-7.8557,-27.8261,4.2435,-3.0609
65,0.9197,-5.2882,-7.7407,-27.687,4.0348,-3.0609
70,0.9963,-5.2499,-7.7407,-27.5478,3.8957,-2.713
75,0.958,-5.2116,-7.8173,-27.4087,3.7565,-2.4348
80,1.1113,-5.2499,-7.894,-27.4087,3.687,-2.4348
85,0.7281,-5.0966,-7.8557,-27.3391,3.687,-2.2957
90,0.8814,-5.0583,-7.779,-27.2,3.7565,-2.087
95,0.9197,-5.2499,-7.894,-26.9913,3.7565,-1.8087
100,1.0346,-5.2116,-7.779,-26.6435,3.8261,-1.8087
105,0.843,-5.1349,-7.894,-26.1565,4.0348,-1.6696
110,1.0346,-5.2116,-7.9706,-25.6696,4.313,-1.5304
115,1.1496,-5.1732,-7.9323,-25.2522,4.5913,-1.4609
120,1.0346,-5.2116,-8.0089,-24.7652,4.8,-1.3913
125,1.0346,-5.1349,-7.894,-24.0696,4.9391,-1.3913
130,1.1113,-5.2116,-7.9706,-23.3739,5.1478,-1.2522
135,1.1113,-5.02,-7.9706,-22.6087,5.287,-1.2522
140,1.073,-5.1349,-8.0856,-21.9826,5.5652,-1.3217
145,1.1113,-4.9433,-7.894,-21.4261,5.6348,-1.3217
150,0.9963,-5.0966,-8.0856,-21.2174,5.8435,-1.6
155,0.9963,-4.9816,-7.9323,-21.2174,5.8435,-2.0174
160,1.073,-4.9816,-7.894,-20.9391,5.8435,-2.4348
165,1.1496,-4.905,-8.0473,-20.1739,5.913,-2.4348
170,1.4179,-4.905,-7.8557,-18.9217,5.9826,-2.2261
175,0.8047,-4.9433,-8.0089,-17.8087,6.1217,-2.0174
180,1.0346,-4.905,-7.894,-16.9739,5.7739,-1.113
185,0.9963,-4.905,-7.9706,-16.2087,5.4261,-0.6957
190,1.073,-4.905,-8.0856,-15.4435,5.1478,-0.1391
195,0.958,-4.8284,-8.0089,-14.887,4.8696,0.487
200,0.9963,-4.8284,-8.1239,-14.5391,4.7304,0.6261
205,0.9963,-4.79,-8.0473,-14.4,4.4522,0.8348
210,0.9963,-4.8284,-8.1622,-14.4696,4.4522,0.9739
215,1.0346,-4.8284,-8.1239,-14.6783,4.5217,0.9043
220,0.958,-4.905,-8.1239,-14.7478,4.5217,0.9739
225,0.8814,-4.8667,-8.0473,-14.6783,4.2435,1.113
230,0.7664,-4.9433,-8.3155,-14.6783,4.1739,0.9739
235,0.9197,-4.8667,-8.2389,-14.8174,4.1043,0.2783
240,0.8047,-4.9433,-8.2389,-14.6087,4.0348,0.0
245,0.843,-4.905,-8.1239,-13.287,3.9652,0.0696
250,0.8047,-4.8284,-8.2389,-11.6174,4.1043,0.5565
255,0.8047,-4.8284,-8.1239,-10.4348,4.313,1.0435
260,0.9197,-4.79,-8.1239,-9.4609,4.4522,1.7391
265,0.8047,-4.8284,-8.2005,-8.9043,4.5217,2.3652
270,0.7664,-4.7517,-8.3155,-8.5565,4.8696,2.713
275,0.7281,-4.8284,-8.2772,-8.6261,5.4261,2.8522
280,0.7664,-4.7517,-8.2389,-8.6957,5.913,3.2
285,0.958,-4.79,-8.2005,-8.6261,6.1217,3.4087
290,0.9197,-4.79,-8.0856,-8.5565,6.3304,3.4783
295,0.9197,-4.8284,-8.1239,-8.2087,6.4,3.5478
300,0.9197,-4.905,-8.2772,-7.9304,6.4696,3.6174
305,0.8814,-4.7517,-8.0473,-7.7217,6.4,3.5478
310,0.8047,-4.7517,-8.1622,-7.513,6.3304,3.687
315,0.843,-4.8284,-8.2005,-7.1652,6.2609,3.7565
320,0.8047,-4.7134,-8.0473,-6.8174,6.1913,3.9652
325,0.8814,-4.8284,-8.1622,-6.4696,6.1217,4.0348
330,0.8047,-4.7134,-8.0856,-6.0522,6.1913,4.0348
335,0.8814,-4.6368,-8.1239,-5.7043,6.1913,3.9652
340,0.9197,-4.7134,-8.2389,-5.2174,6.1217,3.8957
345,0.958,-4.8667,-8.1622,-4.7304,6.1217,4.0348
350,0.9197,-4.7517,-8.737,-4.1043,6.2609,3.8957
355,0.9197,-4.7517,-8.1622,-3.6174,6.4,3.8261
360,0.8814,-4.8284,-8.2772,-3.3391,6.6087,3.7565
365,0.843,-4.6751,-8.1239,-2.9217,6.6783,3.6174
370,0.843,-4.7517,-8.0856,-2.5043,6.7478,3.4783
375,0.8814,-4.7517,-8.2389,-2.087,6.8174,3.4087
380,0.843,-4.79,-8.0856,-1.6696,6.9565,3.4087
385,0.7664,-4.6751,-8.0473,-1.2522,7.0261,3.3391
390,0.9197,-4.5984,-8.0089,-0.9739,6.9565,3.3391
395,0.9197,-4.7517,-8.1622,-0.7652,6.9565,3.2696
400,0.8814,-4.7134,-8.2389,-0.7652,6.9565,3.0609
405,0.7664,-4.7517,-8.2389,-0.5565,6.8174,2.9217
410,0.8814,-4.7517,-8.2005,-0.2087,6.8174,2.9913
415,0.7281,-4.6751,-8.1239,0.0696,6.8174,2.9913
420,0.7664,-4.7517,-7.9706,0.2783,6.8174,3.0609
425,0.843,-4.7517,-8.0089,0.6261,6.8174,3.1304
430,0.6898,-4.6368,-8.0089,0.9739,6.887,3.2
435,0.843,-4.6751,-8.0856,1.3913,6.9565,3.3391
440,0.7281,-4.8667,-8.1622,1.8783,6.9565,3.3391
445,0.7281,-4.6751,-8.0473,2.2957,6.887,3.2696
450,0.7281,-4.6368,-8.0856,2.6435,6.887,3.2696
455,0.9197,-4.8667,-8.0089,2.9217,6.887,3.3391
460,0.843,-4.79,-8.2772,3.4087,6.8174,3.4087
465,0.7281,-4.7517,-8.0856,3.687,6.887,3.4087
470,0.8814,-4.79,-8.1239,4.0348,6.887,3.4087
475,0.8047,-4.7517,-8.0473,4.5913,6.7478,3.2696
480,0.7664,-4.7134,-8.1622,5.0087,6.7478,3.3391
485,0.8047,-4.7517,-8.0089,5.4261,6.7478,3.2696
490,0.843,-4.7134,-7.894,5.6348,6.6783,3.1304
495,0.8814,-4.8667,-8.0856,5.913,6.6783,2.9913
500,0.7281,-4.79,-8.0856,6.4696,6.7478,3.1304
505,0.8814,-4.7517,-8.1239,6.887,6.7478,3.1304
510,0.7281,-4.6368,-8.0473,7.3739,6.8174,3.2
515,0.843,-4.7517,-8.1622,7.6522,6.9565,3.2
520,0.8047,-4.5984,-7.9706,8.0696,6.9565,3.2
525,0.6898,-4.8667,-8.0473,8.4174,6.9565,3.1304
530,0.7281,-4.7517,-8.0856,8.6957,7.0957,3.2
535,0.7281,-4.6751,-8.0856,9.113,7.0957,3.1304
540,0.6898,-4.7134,-8.0089,9.3913,7.2348,3.2
545,0.9197,-4.79,-7.9323,9.7391,7.2348,3.3391
550,0.7281,-4.7134,-8.0473,10.0174,7.2348,3.3391
555,0.7664,-4.79,-8.0473,10.2261,7.2348,3.3391
560,0.7281,-4.7517,-7.9323,10.5739,7.1652,3.4087
565,0.7664,-4.79,-8.0856,10.7826,7.0261,3.4087
570,0.8047,-4.7134,-7.8173,10.9217,6.9565,3.6174
575,0.7664,-4.6751,-7.8557,11.2,6.9565,3.687
580,0.7664,-4.7134,-7.9706,11.3391,6.9565,3.687
585,0.843,-4.7134,-7.9323,11.4783,6.887,3.687
590,0.7664,-4.8284,-7.9706,11.5478,6.887,3.8957
595,0.843,-4.8284,-8.0856,11.687,6.9565,3.8957
600,0.7664,-4.7517,-7.8557,11.8957,6.8174,3.8957
605,0.8047,-4.7517,-8.0089,12.2435,6.6783,4.1043
610,0.8047,-4.8284,-7.9323,12.5217,6.7478,4.313
615,0.8047,-4.7134,-8.0473,12.6609,6.8174,4.2435
620,0.843,-4.79,-7.9706,12.7304,6.7478,4.3826
625,0.8047,-4.79,-7.9323,12.6609,6.8174,4.4522
630,0.8047,-4.7517,-7.7024,12.5913,6.8174,4.5913
635,0.6898,-4.79,-7.8173,12.7304,6.6783,4.5913
640,0.843,-4.905,-7.9706,12.8,6.6087,4.6609
645,0.9197,-4.8667,-7.7024,12.9391,6.4696,4.7304
650,0.843,-4.8667,-7.9706,12.9391,6.3304,4.6609
655,0.8047,-4.8667,-7.8173,12.9391,6.3304,4.5217
660,0.9197,-4.905,-7.779,12.7304,6.2609,4.4522
665,0.8047,-4.905,-7.9323,12.5913,6.2609,4.4522
670,0.7664,-4.79,-7.7407,12.313,6.3304,4.3826
675,0.7281,-4.8667,-7.9706,12.1739,6.3304,4.2435
680,0.7664,-4.8667,-7.9323,12.0348,6.4,4.1739
685,0.843,-4.905,-7.8557,11.8261,6.4696,4.2435
690,0.8047,-4.8667,-7.9323,11.687,6.4,4.2435
695,0.7281,-4.8667,-7.779,11.6174,6.5391,4.1043
700,0.7281,-4.9433,-7.779,11.4087,6.6087,4.1043
705,0.8814,-4.905,-7.894,11.2696,6.6087,4.1739
710,0.9197,-4.905,-7.7024,10.9913,6.8174,4.0348
715,0.8814,-4.9433,-7.8557,10.8522,6.887,4.0348
720,0.7664,-4.9433,-7.8557,10.713,7.0261,4.0348
725,0.7281,-4.905,-7.7407,10.4348,7.0261,3.9652
730,0.8814,-5.02,-7.8557,10.2261,7.1652,3.9652
735,0.843,-4.9433,-7.8557,10.1565,7.2348,4.0348
740,0.7664,-4.9433,-7.9323,9.8087,7.2348,3.8957
745,0.843,-4.8667,-7.779,9.5304,7.2348,3.8261
750,0.6898,-4.9816,-7.8557,9.113,7.0957,3.687
755,0.7664,-4.905,-7.7407,8.9043,7.0957,3.6174
760,0.8047,-4.9816,-7.8173,8.6261,7.0957,3.5478
765,0.7664,-4.9433,-7.779,8.4174,6.9565,3.4087
770,0.8047,-5.1349,-7.779,8.2087,6.887,3.4087
775,0.958,-5.1349,-7.6641,8.2087,6.7478,3.4783
780,0.6898,-5.0583,-7.6641,8.2783,6.6087,3.4087
785,0.8814,-5.1349,-7.9323,8.487,6.5391,3.3391
790,0.7664,-5.1349,-7.8173,8.5565,6.4696,3.3391
795,0.8047,-5.0966,-7.8173,8.6261,6.2609,3.1304
800,0.958,-5.1349,-7.6641,8.6261,6.1913,3.1304
805,0.7664,-5.0583,-7.5874,8.6957,6.1217,3.0609
810,0.843,-5.0966,-7.7407,8.7652,5.9826,2.9913
815,0.8814,-5.1732,-7.7407,8.7652,5.9826,2.9913
820,0.9197,-5.0966,-7.8173,8.8348,5.913,2.9217
825,0.958,-5.1732,-7.8173,8.9043,5.8435,2.9913
830,0.8047,-5.0583,-7.7407,8.9043,5.8435,3.0609
835,0.8814,-5.2116,-7.7024,8.9739,5.913,3.0609
840,0.9197,-5.0966,-7.6257,8.7652,5.8435,2.9217
845,0.8814,-5.1349,-7.5108,8.5565,5.8435,2.9217
850,0.843,-5.2499,-7.6257,8.3478,5.8435,2.8522
855,0.9197,-5.1349,-7.6641,8.1391,5.7739,2.9217
860,0.8047,-5.1349,-7.5108,7.9304,5.7043,2.7826
865,0.8814,-5.1732,-7.5874,7.9304,5.7043,2.6435
870,0.8047,-5.1732,-7.6257,7.9304,5.7043,2.6435
875,0.958,-5.2882,-7.7024,7.8609,5.6348,2.713
880,0.958,-5.2882,-7.7024,7.7217,5.6348,2.713
885,0.8814,-5.0966,-7.6257,7.6522,5.5652,2.6435
890,0.9197,-5.2116,-7.6257,7.4435,5.5652,2.5043
895,0.8814,-5.0583,-7.6641,7.2348,5.4261,2.4348
900,0.9197,-5.2882,-7.7024,6.887,5.4957,2.2957
905,0.9197,-5.2499,-7.5108,6.5391,5.4957,2.2261
910,0.9197,-5.2116,-7.6257,6.3304,5.287,2.087
915,0.9197,-5.2116,-7.6257,6.1217,5.2174,2.0174
920,0.8814,-5.2882,-7.5108,5.913,5.3565,2.0174
925,0.9963,-5.2499,-7.6641,5.6348,5.3565,1.8783
930,0.958,-5.3265,-7.6641,5.4261,5.287,1.6696
935,0.958,-5.2882,-7.7407,5.287,5.287,1.6
940,0.843,-5.4032,-7.5108,5.1478,5.4261,1.5304
945,0.8814,-5.4032,-7.4725,4.9391,5.3565,1.4609
950,0.8047,-5.3265,-7.7024,4.6609,5.287,1.3217
955,0.8814,-5.3648,-7.6641,4.4522,5.3565,1.3217
960,0.7664,-5.3265,-7.5491,4.1739,5.2174,1.4609
965,0.958,-5.3265,-7.6257,4.0348,5.1478,1.3217
970,0.7664,-5.3265,-7.5491,3.687,5.1478,1.3217
975,0.843,-5.3265,-7.6257,3.687,5.1478,1.1826
980,0.8047,-5.2882,-7.5108,3.6174,5.2174,1.113
985,0.8047,-5.3648,-7.7024,3.4783,5.1478,1.113
990,0.8047,-5.2499,-7.5874,3.3391,5.2174,0.9739
995,0.8047,-5.3648,-7.4725,3.2,5.2174,1.0435
1000,0.8814,-5.3265,-7.5491,2.9913,5.2174,0.9739
1005,0.9197,-5.4032,-7.3958,2.713,5.2174,0.9043
1010,0.9197,-5.4415,-7.5874,2.5043,5.1478,0.8348
1015,0.8814,-5.3648,-7.5874,2.2261,5.1478,0.9739
1020,0.843,-5.4415,-7.5874,2.0174,5.1478,0.7652
1025,0.8814,-5.4032,-7.5491,1.7391,5.287,0.6957
1030,0.7664,-5.2499,-7.5874,1.6696,5.2174,0.6261
1035,0.9197,-5.3265,-7.4725,1.5304,5.1478,0.6957
1040,0.843,-5.5564,-7.5491,1.5304,5.0783,0.5565
1045,0.843,-5.4032,-7.4341,1.4609,5.0783,0.487
1050,0.9197,-5.4798,-7.6257,1.6,4.9391,0.4174
1055,0.9197,-5.4032,-7.5491,1.7391,4.8696,0.3478
1060,0.8814,-5.3265,-7.5491,1.8783,4.8,0.3478
1065,0.7281,-5.3265,-7.5108,2.0174,4.9391,0.2783
1070,0.843,-5.5181,-7.5491,2.087,4.8696,0.2783
1075,0.958,-5.3648,-7.6257,2.1565,4.8,0.1391
1080,0.7664,-5.3265,-7.5491,2.1565,4.7304,0.1391
1085,0.9197,-5.3648,-7.7024,2.087,4.8,0.0
1090,0.7664,-5.2882,-7.6257,1.9478,4.7304,-0.0696
1095,0.9197,-5.4032,-7.5874,1.9478,4.6609,0.0
1100,0.8814,-5.4415,-7.5108,1.8087,4.6609,-0.0696
1105,0.843,-5.4032,-7.4725,1.6696,4.8,-0.1391
1110,0.6898,-5.3265,-7.7024,1.4609,4.8,-0.2087
1115,0.843,-5.4415,-7.4341,1.3913,4.8,-0.2783
1120,0.9197,-5.4415,-7.5108,1.2522,4.8,-0.2783
1125,0.8814,-5.3648,-7.4341,1.2522,4.7304,-0.1391
1130,0.8047,-5.5181,-7.4725,1.1826,4.8696,-0.2087
1135,0.843,-5.4032,-7.6257,1.2522,4.9391,-0.1391
1140,0.843,-5.3265,-7.5491,1.1826,4.9391,0.0
1145,0.8814,-5.4032,-7.6257,1.1826,5.0087,0.0
1150,0.8814,-5.3648,-7.4725,1.0435,5.0087,0.0696
1155,0.8814,-5.4415,-7.3958,0.9043,4.9391,0.0696
1160,0.8047,-5.4032,-7.5108,0.9043,4.7304,0.0696
1165,0.958,-5.5181,-7.5874,0.9043,4.7304,-0.0696
1170,0.8047,-5.3265,-7.5874,0.7652,4.7304,-0.0696
1175,0.8047,-5.4032,-7.4725,0.6261,4.6609,0.0
1180,0.7664,-5.2882,-7.5491,0.487,4.5913,-0.1391
1185,0.7664,-5.4032,-7.5108,0.4174,4.4522,-0.2087
1190,0.843,-5.3648,-7.5491,0.2783,4.4522,-0.1391
1195,0.843,-5.4415,-7.5874,0.1391,4.313,-0.3478
1200,0.6898,-5.4415,-7.5491,0.0,4.313,-0.487
1205,0.843,-5.3648,-7.5874,0.0,4.4522,-0.487
1210,0.7281,-5.4798,-7.6257,0.0696,4.4522,-0.6261
1215,0.7664,-5.4415,-7.6257,0.1391,4.5217,-0.6957
1220,0.9197,-5.4032,-7.5108,0.0696,4.5217,-0.7652
1225,0.7281,-5.4415,-7.7024,0.1391,4.4522,-0.7652
1230,0.7281,-5.4798,-7.5108,0.2087,4.5217,-0.7652
1235,0.843,-5.4032,-7.5874,0.2087,4.6609,-0.7652
1240,0.7281,-5.4798,-7.6257,0.2087,4.5217,-0.6957
1245,0.8047,-5.5181,-7.5108,0.0696,4.5217,-0.6957
1250,0.843,-5.3265,-7.5874,0.0696,4.6609,-0.7652
1255,0.7281,-5.3648,-7.6257,-0.0696,4.6609,-0.8348
1260,0.958,-5.4032,-7.4341,-0.0696,4.5217,-0.8348
1265,0.958,-5.4032,-7.6257,-0.1391,4.6609,-0.8348
1270,0.8047,-5.3265,-7.5491,-0.1391,4.5913,-0.6261
1275,0.6898,-5.4415,-7.5874,-0.2087,4.5913,-0.6957
1280,0.8047,-5.4415,-7.4341,-0.2087,4.5913,-0.7652
1285,0.7664,-5.3648,-7.6257,-0.2087,4.6609,-0.8348
1290,0.843,-5.5181,-7.4725,-0.2087,4.5913,-0.6957
1295,0.843,-5.3648,-7.5491,-0.2783,4.6609,-0.6957
1300,0.8047,-5.4415,-7.4341,-0.2783,4.5913,-0.8348
1305,0.843,-5.3648,-7.4341,-0.2783,4.5913,-0.9043
1310,0.843,-5.3648,-7.6257,-0.3478,4.5913,-0.9043
1315,0.8047,-5.5181,-7.5491,-0.487,4.5217,-0.9043
1320,0.8047,-5.4415,-7.4725,-0.6261,4.5913,-0.9739
1325,0.843,-5.3648,-7.6641,-0.6957,4.6609,-0.9043
1330,0.8047,-5.4415,-7.5108,-0.7652,4.7304,-0.8348
1335,0.8047,-5.3265,-7.6257,-0.8348,4.7304,-0.8348
1340,0.8814,-5.3648,-7.5108,-0.9043,4.7304,-0.9043
1345,0.843,-5.4032,-7.5108,-0.9043,4.8696,-0.8348
1350,0.843,-5.3648,-7.5491,-0.9043,4.7304,-0.9043
1355,0.8047,-5.4798,-7.5491,-0.9739,4.8696,-0.8348
1360,0.7664,-5.3648,-7.6257,-0.9739,4.8696,-0.7652
1365,0.9197,-5.3648,-7.5874,-0.9043,4.9391,-0.6957
1370,0.8047,-5.4798,-7.5874,-0.8348,4.8696,-0.7652
1375,0.843,-5.5564,-7.6257,-0.9043,4.9391,-0.6957
1380,0.843,-5.4415,-7.5491,-0.8348,4.8696,-0.6261
1385,0.843,-5.4032,-7.4725,-0.9043,4.7304,-0.6957
1390,0.8814,-5.4798,-7.5491,-0.7652,4.8,-0.6957
1395,0.8047,-5.5181,-7.5491,-0.8348,4.6609,-0.6957
1400,0.9197,-5.4032,-7.7407,-0.9043,4.5913,-0.6957
1405,0.8814,-5.4415,-7.5491,-1.0435,4.5217,-0.6957
1410,0.8814,-5.4415,-7.5874,-1.0435,4.5217,-0.6261
1415,0.7664,-5.4798,-7.5108,-1.113,4.5217,-0.5565
1420,0.7664,-5.3265,-7.7407,-1.1826,4.5217,-0.6261
1425,0.7281,-5.3648,-7.6257,-1.113,4.4522,-0.487
1430,0.6898,-5.3648,-7.5491,-1.113,4.4522,-0.487
1435,0.6898,-5.2882,-7.4341,-1.0435,4.5217,-0.5565
1440,0.7664,-5.4798,-7.5108,-1.0435,4.4522,-0.487
1445,0.8814,-5.2882,-7.6641,-0.9739,4.5913,-0.487
1450,0.9197,-5.4032,-7.5491,-0.9739,4.4522,-0.4174
1455,0.8814,-5.3648,-7.5108,-0.9043,4.4522,-0.3478
1460,0.7664,-5.2882,-7.5874,-0.9739,4.3826,-0.2783
1465,0.7664,-5.4032,-7.6257,-1.0435,4.4522,-0.3478
1470,0.8814,-5.2499,-7.5874,-1.1826,4.5217,-0.2087
1475,0.8047,-5.4032,-7.4341,-1.2522,4.4522,-0.2783
1480,0.958,-5.3265,-7.5108,-1.2522,4.5913,-0.2087
1485,0.9963,-5.4415,-7.6257,-1.3217,4.5217,-0.2087
1490,0.8047,-5.3648,-7.4725,-1.2522,4.4522,-0.2087
1495,0.8814,-5.3648,-7.4725,-1.3217,4.3826,-0.2087
1500,0.7281,-5.3265,-7.5874,-1.3913,4.4522,-0.2087
1505,0.8047,-5.4415,-7.6641,-1.3217,4.4522,-0.2087
1510,0.8814,-5.5181,-7.5491,-1.3913,4.3826,-0.2087
1515,0.8047,-5.4415,-7.6641,-1.4609,4.4522,-0.2087
1520,0.7664,-5.4032,-7.6257,-1.6,4.5217,-0.2783
1525,0.8814,-5.3648,-7.6641,-1.7391,4.5217,-0.2087
1530,0.8047,-5.4415,-7.5108,-1.8783,4.4522,-0.2087
1535,0.8814,-5.4032,-7.6257,-1.9478,4.5913,-0.2783
1540,0.8814,-5.2116,-7.5491,-2.0174,4.5913,-0.3478
1545,0.7281,-5.4798,-7.5874,-2.087,4.7304,-0.4174
1550,0.8814,-5.3265,-7.5491,-2.1565,4.8,-0.4174
1555,0.843,-5.3265,-7.7024,-2.2957,4.8,-0.487
1560,0.7664,-5.2882,-7.5491,-2.3652,4.8696,-0.6261
1565,0.7664,-5.4032,-7.6257,-2.2957,4.8,-0.6957
1570,0.8047,-5.4032,-7.5874,-2.2957,4.8696,-0.6957
1575,0.8047,-5.4415,-7.5491,-2.1565,4.8696,-0.7652
1580,0.8047,-5.3648,-7.5874,-2.087,4.9391,-0.6957
1585,0.9197,-5.4032,-7.5874,-1.9478,4.9391,-0.7652
1590,0.7664,-5.3648,-7.6641,-1.8087,4.9391,-0.6261
1595,0.9197,-5.4415,-7.5108,-1.8087,5.0087,-0.6261
1600,0.843,-5.4415,-7.5491,-1.6696,4.9391,-0.5565
1605,0.9963,-5.3265,-7.1276,-1.7391,4.9391,-0.487
1610,0.8047,-5.3648,-7.4725,-1.8783,4.9391,-0.4174
1615,0.843,-5.3648,-7.4725,-1.9478,4.8696,-0.487
1620,0.843,-5.2116,-7.5874,-2.087,4.8,-0.487
1625,0.9963,-5.3265,-7.5108,-2.087,4.6609,-0.487
1630,0.843,-5.3648,-7.5874,-2.2261,4.5217,-0.487
1635,0.8814,-5.2116,-7.5491,-2.2957,4.5217,-0.4174
1640,0.7281,-5.3648,-7.6641,-2.3652,4.5217,-0.4174
1645,0.7664,-5.3265,-7.6257,-2.5043,4.5217,-0.4174
1650,0.8047,-5.2499,-7.9323,-2.5739,4.5217,-0.4174
1655,0.958,-5.4032,-7.8557,-2.6435,4.4522,-0.4174
1660,0.7281,-5.4032,-7.7024,-2.6435,4.5217,-0.5565
1665,0.8047,-5.4415,-7.4725,-2.4348,4.5217,-0.487
1670,1.1113,-5.4032,-7.5491,-2.3652,4.5913,-0.487
1675,0.843,-5.748,-7.5491,-2.2957,4.5217,-0.487
1680,0.8814,-5.4032,-7.8173,-2.1565,4.5217,-0.5565
1685,0.958,-5.4798,-7.3958,-2.087,4.5913,-0.5565
1690,0.8814,-5.4032,-7.6257,-2.0174,4.5913,-0.5565
1695,0.4982,-5.1732,-7.7024,-1.9478,4.6609,-0.5565
1700,0.7281,-5.2882,-7.8173,-1.9478,4.7304,-0.6261
1705,0.9963,-5.2116,-7.3575,-1.9478,4.5913,-0.6957
1710,0.843,-5.2882,-7.5108,-2.087,4.6609,-0.6957
1715,0.8047,-5.4032,-7.4725,-2.1565,4.6609,-0.6261
1720,0.8814,-5.3648,-7.5874,-2.2261,4.7304,-0.6957
1725,0.843,-5.3648,-7.7024,-2.2957,4.6609,-0.6957
1730,0.9197,-4.9816,-7.7024,-2.4348,4.6609,-0.6957
1735,0.8814,-5.3265,-7.5108,-2.7826,4.5913,-0.7652
1740,0.8814,-5.2499,-7.4341,-2.9913,4.6609,-0.6957
1745,0.7281,-5.4032,-7.5491,-3.0609,4.8,-0.6261
1750,0.958,-5.4415,-7.6257,-3.2696,4.7304,-0.6261
1755,0.8814,-5.3265,-7.3575,-3.1304,4.8,-0.5565
1760,0.9197,-5.1732,-7.6641,-3.0609,4.8,-0.6261
1765,0.8814,-5.2499,-7.5874,-2.9217,4.7304,-0.5565
1770,1.0346,-5.4798,-7.6641,-2.9217,4.7304,-0.6261
1775,0.843,-5.2116,-7.7407,-2.7826,4.7304,-0.5565
1780,1.1496,-5.2882,-7.6257,-2.713,4.7304,-0.5565
1785,0.8047,-5.2882,-7.6257,-2.6435,4.7304,-0.487
1790,0.9963,-5.4032,-7.7024,-2.7826,4.7304,-0.5565
1795,0.843,-5.2499,-7.7407,-2.7826,4.8,-0.4174
1800,0.958,-5.3648,-7.5874,-2.713,4.7304,-0.3478
1805,1.1496,-5.0583,-7.5491,-2.713,4.6609,-0.4174
1810,0.5365,-5.3265,-7.8173,-2.7826,4.7304,-0.4174
1815,1.1496,-5.2116,-7.5874,-2.8522,4.6609,-0.3478
1820,0.7664,-4.9816,-8.1622,-2.9217,4.5913,-0.3478
1825,0.7664,-5.3265,-7.0893,-2.9217,4.5913,-0.3478
1830,0.6898,-5.3265,-7.779,-2.9217,4.5913,-0.2783
1835,0.9963,-5.5564,-7.8173,-2.8522,4.5217,-0.2783
1840,0.8814,-5.3265,-7.6641,-2.713,4.5217,-0.2783
1845,1.2263,-5.1732,-7.6257,-2.7826,4.5913,-0.0696
1850,1.1113,-5.3648,-7.5108,-2.5043,4.5217,-0.0696
1855,1.0346,-5.0966,-7.5874,-2.3652,4.6609,0.0
1860,0.9197,-5.2499,-7.7024,-2.1565,4.6609,-0.0696
1865,0.843,-5.2499,-7.5874,-2.0174,4.7304,-0.0696
1870,0.9197,-5.2882,-7.7024,-2.0174,4.7304,0.0
1875,0.843,-5.1732,-7.6257,-2.087,4.8,0.0
1880,0.7281,-4.9433,-7.5108,-2.1565,4.7304,-0.1391
1885,1.1496,-5.0583,-7.6641,-2.1565,4.8,-0.1391
1890,0.843,-5.1732,-7.5874,-2.087,4.7304,-0.2087
1895,0.958,-5.4415,-7.779,-2.0174,4.8,-0.2087
1900,0.6131,-5.0966,-7.3192,-2.0174,4.7304,-0.1391
1905,1.2646,-4.9433,-7.9323,-2.0174,4.8,-0.2087
1910,0.6898,-5.1732,-7.779,-2.0174,4.8,-0.2783
1915,0.6131,-5.3648,-7.779,-2.087,4.7304,-0.3478
1920,1.1496,-5.1349,-7.5491,-2.2261,4.8,-0.3478
1925,1.1496,-5.5948,-7.5491,-2.2957,4.8,-0.2087
1930,0.8814,-5.2882,-7.4341,-2.2261,4.8,-0.3478
1935,0.843,-5.4415,-7.6641,-2.2261,4.8696,-0.2783
1940,0.9197,-5.1732,-7.6257,-2.2261,4.8696,-0.487
1945,0.8047,-5.2116,-7.7024,-2.2261,5.0087,-0.4174
1950,0.6514,-5.4415,-7.5491,-2.2957,5.0087,-0.4174
1955,0.7664,-5.5181,-7.5491,-2.3652,5.1478,-0.2783
1960,1.073,-5.0583,-7.8557,-2.4348,5.0783,-0.3478
1965,0.8047,-5.1732,-7.5874,-2.5043,5.0783,-0.1391
1970,0.958,-5.3648,-7.7407,-2.6435,5.0783,-0.1391
1975,1.0346,-5.0583,-7.6257,-2.8522,5.1478,-0.2783
1980,0.9963,-5.0966,-7.7024,-2.9217,5.0783,-0.2783
1985,0.6131,-5.0966,-7.779,-3.0609,5.0087,-0.2783
1990,0.9963,-5.1349,-7.779,-3.2,5.0087,-0.2783
1995,0.7664,-5.3265,-7.4725,-3.3391,4.9391,-0.2783
2000,0.9963,-5.1732,-7.5108,-3.2696,4.8696,-0.2783
2005,0.5365,-5.3265,-7.1659,-3.2696,4.8696,-0.3478
2010,0.7664,-5.1732,-7.7024,-3.2696,4.8696,-0.3478
2015,0.9197,-5.1732,-7.5491,-3.2696,4.8,-0.2783
2020,0.9197,-5.2882,-7.5491,-3.2,4.8,-0.2783
2025,0.843,-5.1349,-7.5874,-3.0609,4.8,-0.2783
2030,1.3795,-4.9433,-7.6257,-3.0609,4.8696,-0.3478
2035,0.9197,-5.2882,-7.3192,-2.9217,4.8,-0.3478
2040,1.1113,-5.5181,-7.2809,-2.8522,4.6609,-0.2087
2045,1.6478,-5.3648,-7.4725,-2.8522,4.5913,-0.1391
2050,0.6898,-5.2116,-6.8593,-2.8522,4.7304,-0.2087
2055,0.958,-5.4032,-7.3192,-2.8522,4.7304,-0.1391
2060,1.4562,-5.6714,-7.3958,-3.0609,4.6609,-0.0696
2065,1.3029,-5.7097,-7.9323,-3.1304,4.8696,-0.1391
2070,0.7281,-5.3265,-7.5874,-3.2,4.8696,-0.2087
2075,0.7664,-4.8284,-7.4725,-3.2696,4.8,-0.2087
2080,1.0346,-5.2116,-7.3192,-3.2696,4.8696,-0.3478
2085,0.9963,-5.3265,-7.5874,-3.3391,4.8696,-0.487
2090,0.843,-5.4032,-7.7024,-3.2696,4.8,-0.3478
2095,0.9197,-5.1732,-7.5491,-3.2,4.8,-0.487
2100,1.1113,-5.4032,-7.5491,-3.2,4.8,-0.487
2105,1.1879,-4.6751,-7.7407,-3.2696,4.8696,-0.4174
2110,0.843,-5.0583,-7.6257,-3.3391,4.8696,-0.487
2115,1.0346,-5.4415,-7.8173,-3.4783,4.9391,-0.4174
2120,0.8047,-5.2499,-8.0856,-3.4783,5.0783,-0.3478
2125,0.8047,-5.2882,-7.779,-3.4783,5.0783,-0.2783
2130,1.0346,-4.7517,-7.894,-3.4783,5.0783,-0.2087
2135,0.7664,-5.1349,-7.6257,-3.4783,5.1478,-0.1391
2140,0.7281,-5.1732,-7.7407,-3.4783,5.2174,-0.0696
2145,0.7664,-5.1732,-7.7407,-3.5478,5.1478,-0.0696
2150,0.7281,-5.1732,-7.6641,-3.687,5.1478,-0.0696
2155,0.6514,-5.1732,-7.779,-3.6174,5.2174,0.0
2160,0.8047,-5.1732,-7.779,-3.687,5.1478,0.0
2165,0.7664,-5.2116,-7.7407,-3.687,5.0783,0.0696
2170,0.9197,-5.2499,-7.7024,-3.7565,5.1478,0.0696
2175,0.8047,-5.1732,-7.5108,-3.8261,5.0783,0.2087
2180,0.6514,-5.0966,-7.2042,-3.8261,5.0783,0.2087
2185,0.843,-5.2116,-7.7024,-3.7565,5.0087,0.0696
2190,0.8814,-5.2499,-7.6641,-3.687,5.0783,0.2087
2195,0.7664,-5.2499,-7.779,-3.687,4.9391,0.2087
2200,0.8814,-5.2499,-7.6641,-3.6174,4.8696,0.1391
2205,1.0346,-5.2882,-7.5108,-3.6174,4.8696,0.1391
2210,0.8814,-5.2499,-7.6257,-3.6174,4.8696,0.1391
2215,0.843,-5.2882,-7.6257,-3.5478,4.7304,0.0696
2220,0.7281,-5.1349,-7.6641,-3.687,4.7304,0.0696
2225,0.8047,-5.4798,-7.5108,-3.7565,4.7304,0.0696
2230,0.843,-5.1732,-7.7407,-3.7565,4.7304,-0.0696
2235,0.8047,-5.1732,-7.6641,-3.687,4.7304,0.0
2240,0.843,-5.2116,-7.7407,-3.7565,4.8,0.0
2245,0.9197,-5.1732,-7.5491,-3.5478,4.7304,0.0
2250,0.8814,-5.2116,-7.5874,-3.5478,4.6609,0.0
2255,0.8047,-5.1349,-7.6641,-3.5478,4.8696,0.0
2260,0.7664,-5.1732,-7.8173,-3.4783,4.8696,0.0696
2265,0.9197,-5.2499,-7.779,-3.4783,4.8696,0.0696
2270,0.843,-5.0966,-7.7407,-3.5478,5.0783,0.1391
2275,0.843,-5.2116,-7.7407,-3.687,5.0087,0.0696
2280,0.7281,-5.0966,-7.7407,-3.7565,5.0087,0.2783
2285,0.8047,-5.2116,-7.6257,-3.9652,5.0783,0.2087
2290,0.8814,-5.1349,-7.8557,-4.1043,5.0783,0.2087
2295,0.9197,-5.1349,-7.779,-4.2435,5.0087,0.2783
2300,0.7281,-5.2499,-7.6257,-4.1739,4.9391,0.3478
2305,0.7664,-5.0966,-7.7407,-4.1739,4.9391,0.3478
2310,0.8814,-5.1732,-7.5108,-4.1043,5.0783,0.4174
2315,0.843,-5.0966,-7.6641,-3.9652,5.0783,0.6261
2320,0.8047,-5.1732,-7.6641,-3.8261,5.0087,0.6261
2325,0.843,-5.2116,-7.6257,-3.8261,4.9391,0.6957
2330,0.8047,-5.2116,-7.6641,-3.7565,4.9391,0.8348
2335,0.7281,-5.1732,-7.7407,-3.8261,5.0087,0.9043
2340,0.843,-5.0966,-7.8173,-3.8261,5.0087,0.6957
2345,0.9197,-5.2116,-7.6257,-3.8957,4.9391,0.9043
2350,0.9197,-5.1349,-7.779,-4.1043,4.8696,0.9043
2355,0.7664,-5.1349,-7.7024,-4.1739,4.7304,0.9043
2360,0.843,-5.1732,-7.7407,-4.313,4.7304,0.9739
2365,0.7281,-5.02,-7.779,-4.3826,4.7304,0.9739
2370,0.843,-5.1732,-7.7024,-4.4522,4.8,1.0435
2375,0.8814,-5.0966,-7.7407,-4.6609,4.8696,1.0435
2380,0.9197,-5.1349,-7.7407,-4.5913,4.8,0.9739
2385,0.7664,-5.1732,-7.6641,-4.6609,4.8696,0.9043
2390,0.843,-5.2116,-7.5874,-4.6609,4.8,0.9043
2395,0.8047,-5.0583,-7.6641,-4.5913,4.9391,0.8348
2400,0.8047,-4.9816,-7.6641,-4.6609,5.0087,0.8348
2405,0.7664,-5.0583,-7.8557,-4.5217,5.0783,0.9043
2410,0.8047,-5.1732,-7.8557,-4.3826,5.2174,0.8348
2415,0.7281,-5.1732,-7.7407,-4.313,5.287,0.6957
2420,0.8047,-5.2116,-7.7024,-4.1739,5.2174,0.7652
2425,0.7664,-5.0583,-7.6641,-4.0348,5.287,0.6957
2430,0.8814,-5.0966,-7.779,-4.0348,5.287,0.6957
2435,0.7281,-5.0583,-7.7407,-4.0348,5.2174,0.6957
2440,0.7281,-5.1349,-7.779,-4.1043,5.2174,0.6261
2445,0.7664,-5.0966,-7.8173,-4.0348,5.1478,0.7652
2450,0.8047,-5.0966,-7.6641,-4.1739,5.1478,0.7652
2455,0.9197,-5.02,-7.8173,-4.0348,5.1478,0.7652
2460,0.843,-5.1349,-7.7024,-3.9652,5.287,0.6957
2465,0.843,-5.0966,-7.5874,-3.9652,5.1478,0.6261
2470,0.8047,-4.9816,-7.8173,-3.9652,5.0783,0.6261
2475,0.843,-5.0583,-7.8557,-3.8957,5.0783,0.6957
2480,0.8047,-5.02,-7.6641,-3.9652,5.0087,0.6261
2485,0.7281,-5.0966,-7.6641,-3.9652,5.0783,0.6261
2490,0.9197,-5.0583,-7.7024,-4.0348,4.9391,0.6261
2495,0.843,-5.0966,-7.7024,-4.2435,5.0783,0.5565
2500,0.9197,-5.0583,-7.8173,-4.1739,5.0087,0.5565
2505,0.843,-5.0966,-7.6257,-4.313,4.9391,0.6957
2510,0.7281,-5.0583,-7.8557,-4.4522,4.9391,0.7652
2515,0.958,-5.0966,-7.779,-4.4522,4.9391,0.7652
2520,0.8047,-5.0966,-7.7024,-4.3826,4.8696,0.7652
2525,0.958,-4.905,-7.6257,-4.2435,4.9391,0.6261
2530,0.6898,-4.9816,-7.6641,-4.1739,4.8696,0.6957
2535,0.8047,-5.0583,-7.8173,-4.313,4.8696,0.7652
2540,0.958,-5.0966,-7.8173,-4.2435,4.8696,0.8348
2545,0.8047,-5.02,-7.779,-4.0348,4.8696,0.7652
2550,0.843,-5.02,-7.7407,-4.0348,4.8,0.6957
2555,0.7664,-5.02,-7.8173,-3.9652,4.8,0.6957
2560,0.7664,-5.1349,-7.8557,-3.9652,4.8,0.6957
2565,0.8814,-4.9816,-7.7407,-3.8957,4.8,0.6261
2570,0.8814,-5.02,-7.8173,-3.8957,4.8,0.5565
2575,0.843,-4.9433,-7.7407,-3.8261,4.8696,0.487
2580,0.8814,-4.9433,-7.8557,-3.9652,4.8696,0.4174
2585,0.843,-5.1349,-7.6641,-4.1739,5.0087,0.487
2590,0.8814,-4.9433,-7.779,-4.2435,4.9391,0.4174
2595,0.7664,-5.0583,-7.7407,-4.313,4.8696,0.4174
2600,0.8814,-5.1349,-7.9323,-4.313,5.0087,0.3478
2605,0.7664,-4.905,-7.7024,-4.2435,5.0783,0.4174
2610,0.7664,-5.02,-7.7407,-4.1739,5.0087,0.487
2615,0.9197,-5.0966,-7.8557,-4.0348,5.0087,0.487
2620,0.8814,-5.0583,-7.8557,-3.687,4.9391,0.5565
2625,0.8814,-5.02,-7.8557,-3.6174,5.0087,0.5565
2630,0.8047,-5.0583,-7.779,-3.5478,5.0087,0.5565
2635,0.958,-5.02,-7.8557,-3.4783,5.0087,0.5565
2640,1.2646,-4.8667,-7.5874,-3.4087,5.0087,0.487
2645,0.8047,-4.9433,-7.8557,-3.6174,5.0087,0.4174
2650,0.958,-4.9433,-7.9706,-3.687,4.9391,0.487
2655,0.8047,-4.905,-7.8557,-3.7565,4.9391,0.4174
2660,0.9197,-4.9816,-7.894,-3.8261,4.8,0.4174
2665,0.8047,-4.9433,-7.8557,-3.7565,4.9391,0.4174
2670,0.8047,-4.9816,-7.9706,-3.687,4.8,0.4174
2675,0.8047,-4.9433,-7.8173,-3.687,4.8696,0.4174
2680,0.7664,-4.9433,-7.8173,-3.5478,4.8696,0.487
2685,0.8814,-4.9433,-7.894,-3.5478,4.7304,0.4174
2690,0.8814,-4.9816,-7.894,-3.4783,4.7304,0.3478
2695,0.8814,-5.0583,-7.6641,-3.4087,4.7304,0.2783
2700,0.7664,-4.8667,-7.779,-3.4087,4.6609,0.4174
2705,0.843,-5.0583,-7.7407,-3.2696,4.6609,0.2087
2710,0.7281,-4.9816,-7.8557,-3.1304,4.7304,0.2783
2715,0.8814,-5.0583,-7.779,-2.9913,4.7304,0.2783
2720,0.8814,-5.02,-7.8557,-2.7826,4.5913,0.3478
2725,0.7281,-4.9433,-7.8173,-2.6435,4.6609,0.4174
2730,0.8047,-4.9816,-7.8173,-2.4348,4.6609,0.2783
2735,0.8814,-5.02,-7.9706,-2.2957,4.6609,0.2783
2740,0.7664,-4.9433,-7.8557,-2.0174,4.7304,0.2783
2745,0.8047,-4.9816,-7.779,-1.8783,4.8,0.3478
2750,0.8047,-5.0583,-7.8173,-1.7391,4.9391,0.2087
2755,0.843,-5.02,-7.8557,-1.6696,4.9391,0.2087
2760,0.843,-5.02,-7.894,-1.6696,4.9391,0.2087
2765,0.7664,-4.905,-7.7407,-1.4609,5.0087,0.1391
2770,0.843,-4.9433,-7.894,-1.4609,5.0087,0.1391
2775,0.843,-5.02,-7.8557,-1.5304,4.8696,0.1391
2780,0.843,-4.9816,-7.779,-1.4609,4.9391,0.1391
2785,0.7664,-4.8667,-7.894,-1.3913,4.8696,0.0696
2790,0.9197,-5.02,-8.0473,-1.2522,4.9391,0.0
2795,0.8047,-4.9816,-8.1239,-1.113,4.8696,0.0
2800,0.7664,-5.02,-7.7024,-1.0435,4.7304,0.0696
2805,0.843,-5.02,-7.8173,-0.9043,4.7304,0.0
2810,0.9197,-4.9433,-7.8557,-0.9043,4.7304,-0.0696
2815,0.8047,-4.905,-7.9323,-0.8348,4.6609,0.0
2820,0.7281,-4.9433,-7.8173,-0.6261,4.6609,0.0
2825,0.843,-5.0583,-7.8557,-0.6261,4.6609,-0.1391
2830,0.8047,-5.02,-7.9323,-0.5565,4.6609,-0.2087
2835,0.8047,-4.9816,-7.894,-0.4174,4.7304,-0.2087
2840,0.843,-4.9816,-7.8173,-0.3478,4.7304,-0.2087
2845,0.8814,-5.02,-7.8557,-0.2087,4.8,-0.3478
2850,0.8814,-5.02,-7.779,-0.1391,4.8696,-0.3478
2855,0.8047,-4.9433,-7.8557,-0.1391,4.8,-0.3478
2860,0.7664,-4.905,-7.894,-0.0696,5.0087,-0.2783
2865,0.8814,-4.9816,-8.0089,0.0,5.0087,-0.2783
2870,0.9197,-4.9816,-7.8557,0.0,5.0087,-0.2783
2875,0.9197,-4.9816,-7.7407,0.0696,5.0783,-0.2783
2880,0.8047,-4.9816,-7.8173,0.1391,5.0087,-0.3478
2885,0.8814,-4.9816,-7.779,0.1391,5.0783,-0.3478
2890,0.8814,-4.9816,-7.8173,0.2783,5.0783,-0.3478
2895,0.8814,-4.9816,-7.779,0.3478,5.0783,-0.3478
2900,0.843,-4.8667,-7.8173,0.3478,5.0087,-0.3478
2905,0.8047,-4.9433,-7.779,0.4174,4.9391,-0.3478
2910,0.8814,-5.0583,-7.9323,0.4174,4.8,-0.487
2915,0.8814,-4.9433,-7.894,0.487,4.7304,-0.4174
2920,0.8047,-4.9433,-7.779,0.6261,4.7304,-0.4174
2925,0.843,-4.9816,-7.8173,0.6957,4.8696,-0.3478
2930,0.843,-4.9816,-7.7407,0.7652,4.8,-0.3478
2935,0.8047,-4.9433,-7.8557,0.9043,4.7304,-0.3478
2940,0.8047,-4.9816,-7.9706,1.0435,4.6609,-0.3478
2945,0.7281,-4.9433,-7.9706,1.113,4.6609,-0.3478
2950,0.7281,-4.905,-7.8173,1.113,4.5913,-0.4174
2955,0.7281,-4.9433,-7.8557,1.113,4.5913,-0.5565
2960,0.8047,-4.9816,-7.8557,1.1826,4.5913,-0.487
2965,0.843,-4.9816,-7.9323,1.113,4.6609,-0.5565
2970,0.8047,-4.9433,-7.7407,1.0435,4.6609,-0.6261
2975,0.8047,-4.9433,-7.8557,0.9739,4.7304,-0.6957
2980,0.8047,-4.9433,-7.779,0.9739,4.7304,-0.6261
2985,0.843,-5.02,-7.7407,0.9043,4.6609,-0.6957
2990,0.7664,-4.9816,-7.894,0.9043,4.7304,-0.7652
2995,0.7664,-4.9816,-7.9323,0.9043,4.7304,-0.7652
