timestamp,accX,accY,accZ,gyroX,gyroY,gyroZ
0,1.1879,-10.6147,-1.6095,-3.1304,-28.9391,-8.3478
5,1.1113,-10.6147,-1.1113,-2.9913,-25.3217,-9.8783
10,1.4945,-10.5764,-0.4982,-2.713,-22.0522,-12.313
15,1.8777,-10.3848,-0.2299,-2.0174,-19.2,-14.4696
20,1.5711,-10.3465,-0.1533,-1.113,-16.9043,-16.6957
25,1.8777,-10.6147,0.4215,-0.0696,-15.2348,-18.6435
30,1.8777,-10.3848,1.073,0.9043,-14.1913,-21.287
35,1.2646,-10.2315,0.8047,1.8087,-13.7739,-23.0957
40,1.8777,-10.0016,0.8047,2.6435,-13.7739,-24.9739
45,1.8011,-10.0782,0.4982,3.6174,-13.7043,-26.6435
50,1.7627,-9.8866,-0.2299,5.2174,-11.8261,-26.7826
55,1.3029,-9.7334,-1.4179,6.4696,-7.9304,-25.2522
60,1.7627,-9.695,-2.2609,5.8435,-1.8783,-23.7913
65,2.7591,-9.6184,-4.4068,-0.3478,4.5217,-24.0
70,2.7591,-9.3885,-5.748,-15.0261,9.4609,-27.3391
75,3.3339,-9.695,-5.7864,-37.3565,12.9391,-31.9304
80,3.5638,-9.8483,-5.4032,-62.2609,17.4609,-36.6609
85,3.6404,-11.2279,-4.905,-83.8261,25.113,-39.5826
90,3.6021,-12.4158,-4.3302,-98.4348,34.9913,-42.3652
95,3.6021,-13.2205,-4.2919,-105.5304,44.5217,-45.287
100,3.6787,-13.7187,-4.4068,-106.087,53.287,-49.3913
105,3.9853,-14.1402,-4.905,-102.7478,59.1304,-52.2435
110,4.6368,-14.83,-4.9816,-98.1565,65.1826,-54.9565
115,4.6751,-14.7916,-5.5564,-92.9391,71.4435,-56.9043
120,4.4068,-14.7916,-6.0929,-86.8174,77.0087,-58.5739
125,4.9433,-14.9449,-5.7864,-79.0957,81.5304,-58.2957
130,4.5984,-14.1402,-5.9396,-68.9391,84.9391,-56.487
135,3.9853,-14.2935,-6.4378,-56.5565,86.6087,-53.0087
140,3.6404,-14.0636,-6.5911,-42.5043,85.2174,-49.6
145,3.5255,-13.0672,-8.0856,-28.3826,80.5565,-45.7043
150,3.5255,-12.8373,-7.0893,-15.3739,73.6,-41.3913
155,3.1039,-11.5727,-8.3155,-2.7826,65.6,-36.8696
160,2.6058,-10.9596,-7.7407,6.4,60.8,-30.9565
165,2.6441,-10.3848,-7.8557,14.2609,57.113,-24.8348
170,2.2609,-9.6184,-7.3958,20.8696,53.4957,-19.3391
175,1.9543,-8.8903,-7.3575,26.3652,48.9739,-13.9826
180,1.2646,-8.5454,-6.8593,31.3043,43.4087,-9.3217
185,1.073,-7.6257,-6.2462,35.3391,36.8696,-5.0783
190,0.843,-7.7024,-4.9816,38.7478,29.5652,-1.5304
195,0.6514,-7.3958,-5.6331,41.2522,21.5652,1.8783
200,0.4215,-7.9323,-4.3685,42.087,13.8435,4.9391
205,1.3029,-7.1276,-4.9816,41.2522,5.3565,9.0435
210,0.9197,-7.3575,-4.5984,38.1913,-0.6261,12.313
215,0.7281,-7.7407,-3.8704,34.4348,-5.5652,15.5826
220,1.4179,-7.1659,-4.1386,30.1217,-8.6957,18.2957
225,1.6861,-7.2425,-3.6404,26.1565,-9.9478,21.0087
230,1.9927,-7.4341,-3.1039,22.887,-9.6,23.1652
235,2.2992,-7.2425,-4.1769,20.0348,-7.7913,25.113
240,2.2226,-7.4341,-3.6787,17.3913,-5.1478,26.4348
245,2.1843,-7.5491,-3.7554,14.8174,-2.2261,27.8261
250,2.4142,-7.5874,-3.7171,12.0348,0.7652,28.7304
255,2.3759,-7.5491,-3.6404,9.2522,3.4783,30.1217
260,2.6441,-7.779,-3.7171,6.4,6.2609,30.9565
265,2.7974,-7.1276,-3.3722,4.1043,7.9304,31.9304
270,1.5711,-7.3575,-3.7171,2.3652,9.3217,32.2783
275,2.1076,-7.1659,-3.4871,0.9739,10.713,33.0435
280,1.9543,-7.2809,-3.2572,-0.2087,11.9652,33.3913
285,2.2609,-6.6677,-3.2955,-1.4609,13.0087,34.1565
290,2.1076,-7.0126,-3.0273,-2.9217,13.7739,34.7826
295,2.2226,-7.0126,-3.1806,-4.7304,14.2609,35.9652
300,2.2226,-7.2809,-2.874,-6.8174,14.887,37.0087
305,2.7207,-6.6677,-3.2189,-8.9739,15.2348,38.1913
310,2.1843,-6.936,-2.9123,-10.8522,15.5826,39.3043
315,2.031,-6.7061,-3.1806,-12.8696,15.513,40.4174
320,2.0693,-6.6294,-3.0656,-14.3304,15.2348,41.1826
325,2.1843,-6.8977,-3.2955,-15.3739,14.887,42.087
330,1.6478,-6.936,-3.4488,-16.2783,14.4696,42.5739
335,2.1459,-7.2425,-3.2955,-17.0435,14.0522,43.0609
340,2.031,-7.1659,-3.1039,-18.0174,13.7739,42.8522
345,1.9927,-7.1276,-3.4105,-18.9913,14.1217,42.713
350,1.8011,-7.3958,-3.7554,-19.687,14.9565,42.1565
355,1.6861,-7.6257,-3.2572,-19.9652,16.1391,41.6696
360,1.3029,-7.8173,-2.9123,-19.687,17.2522,40.7652
365,1.3795,-7.9706,-3.2189,-17.9478,18.5739,40.3478
370,1.3029,-8.0856,-3.6787,-15.1652,19.5478,39.5826
375,0.8814,-8.0856,-2.874,-11.4087,20.8,39.0261
380,1.3029,-8.0089,-2.7974,-6.887,22.4696,38.2609
385,0.9963,-8.0856,-2.1459,-1.6696,24.487,37.8435
390,1.0346,-8.0473,-2.3375,3.8261,26.9217,37.2174
395,0.6131,-7.8173,-2.2226,9.0435,29.4261,37.2174
400,0.5748,-7.5108,-2.1843,13.7043,31.7913,36.8696
405,0.3066,-7.3192,-1.8394,17.0435,33.6696,36.8
410,0.2299,-7.1276,-1.6095,19.2,34.8522,36.313
415,0.2682,-7.0509,-1.3029,20.3826,35.1304,35.8957
420,0.4215,-6.9743,-1.3029,21.1478,34.2957,34.8522
425,0.2682,-6.6294,-1.6861,21.0783,32.9043,34.0174
430,-0.3066,-6.936,-1.0346,20.0348,31.2348,33.6696
435,0.115,-6.7061,-0.9963,18.0174,29.2174,34.0174
440,-0.3449,-6.8977,-0.8814,14.8174,26.9913,34.9913
445,-0.1916,-7.3575,-0.958,9.3217,25.2522,36.8
450,0.115,-7.8173,-1.7244,0.3478,25.4609,37.6348
455,0.4215,-7.9323,-1.6861,-11.687,28.8,36.5217
460,-0.1916,-8.967,-1.1879,-24.5565,34.5739,33.2522
465,-0.4982,-8.9286,-0.8047,-35.2696,40.4174,30.3304
470,-0.4982,-9.5801,-0.0766,-41.5304,43.9652,30.5391
475,-0.8047,-9.7717,0.6514,-40.3478,42.7826,33.2522
480,-0.9963,-10.1166,0.115,-35.0609,38.7478,36.8696
485,-0.958,-9.6184,-0.9963,-27.7565,33.9478,41.0435
490,-0.5365,-9.3885,-2.4142,-20.6609,29.9826,44.9391
495,0.0,-8.9286,-3.9087,-15.6522,26.5739,48.0696
500,-0.2299,-8.3538,-4.9816,-13.913,21.913,49.7391
505,-0.3449,-7.4341,-7.0509,-15.0261,15.7913,51.9652
510,0.2299,-7.1659,-8.1622,-17.4609,11.2696,56.3478
515,0.8047,-6.936,-8.1239,-18.8522,11.3391,62.5391
520,0.9963,-6.5911,-7.6641,-18.4348,19.5478,67.0609
525,1.0346,-6.4378,-7.6257,-15.8609,31.0957,70.6783
530,1.3795,-6.821,-6.3612,-10.5739,43.2696,72.4174
535,1.6861,-7.6641,-5.1349,-2.713,53.6348,72.2087
540,1.5711,-8.5454,-2.6824,3.687,20.8696,34.0174
545,1.7627,-8.3921,-2.5675,-3.4783,12.0348,29.8435
550,1.5711,-8.3538,-2.874,-8.6957,7.513,24.9043
555,1.3795,-8.3538,-3.4105,-14.9565,7.3043,19.687
560,0.958,-8.4305,-3.832,-24.0,11.8261,15.0957
565,0.6131,-8.5838,-4.2919,-36.1739,20.8696,11.4087
570,0.2682,-9.3118,-3.7171,-49.9478,34.2957,8.2087
575,-0.1533,-9.8866,-2.9123,-62.6783,50.0174,5.7739
580,-0.2682,-10.4231,-2.031,-72.6957,65.2522,3.2696
585,-0.4215,-11.4195,-0.9197,-79.3739,77.0783,1.1826
590,-0.843,-12.0709,0.0383,-83.2,83.5478,-0.6261
595,-0.7664,-13.4888,0.5365,-86.887,84.5217,-0.9043
600,-1.1879,-14.1019,1.073,-89.0435,80.7652,-0.8348
605,-1.7244,-14.9449,1.2263,-89.3913,74.1565,0.2087
610,-2.4908,-15.673,0.9197,-90.1565,65.6,2.5043
615,-3.2189,-16.2478,0.3832,-92.4522,55.9304,6.1913
620,-3.6404,-16.5161,-0.5365,-96.0696,47.0957,10.8522
625,-3.947,-17.0142,-1.4179,-101.4261,40.1391,15.7913
630,-4.2536,-17.3974,-1.3795,-106.2261,33.4609,20.0348
635,-4.5984,-17.9339,-1.3029,-106.7826,24.2087,23.7913
640,-4.8284,-18.3938,-0.9963,-101.6348,11.0609,26.6435
645,-4.7134,-18.3171,-0.9197,-89.9478,-8.6957,29.5652
650,-4.5218,-17.8189,-1.0346,-67.2696,-26.4348,31.4435
655,-4.2919,-16.746,-1.3795,-42.7826,-42.5739,33.3217
660,-4.4068,-15.673,-2.031,-15.8609,-55.2348,34.9217
665,-4.2536,-13.9486,-2.874,10.2957,-62.5391,36.5913
670,-3.9853,-12.3008,-3.832,31.9304,-64.0,38.6087
675,-3.7171,-10.3082,-4.5601,47.3739,-61.3565,41.8783
680,-3.2572,-8.5071,-5.0583,55.4435,-56.1391,45.4261
685,-3.0656,-7.0893,-5.6714,57.0435,-50.2261,48.4174
690,-2.6441,-5.5948,-6.5528,53.4261,-44.5913,49.4609
695,-2.3759,-4.1386,-6.936,45.913,-39.0261,48.8348
700,-1.916,-3.2955,-6.936,35.2696,-31.6522,48.2783
705,-1.1113,-2.2992,-7.0509,28.313,-24.2783,47.7217
710,-0.2682,-1.4562,-6.2845,25.1826,-16.0696,46.3304
715,0.7664,-0.6514,-5.0583,27.4087,-7.9304,42.7826
720,1.3795,-0.0766,-3.7937,34.713,-0.9043,35.9652
725,2.4142,0.7664,-2.4142,48.487,5.2174,29.7043
730,2.7207,1.1879,-2.1076,67.6174,10.1565,26.9913
735,2.989,1.8394,-0.4215,88.0,15.3739,27.0609
740,2.5675,2.2609,0.2682,109.913,18.9217,28.3826
745,2.0693,2.989,2.0693,132.6609,23.7217,28.313
750,2.1843,2.874,2.7207,155.8957,27.7565,24.0696
755,2.989,2.3759,-2.1843,166.8174,26.9217,16.8348
760,5.4798,2.0693,-5.1349,161.7391,14.5391,9.1826
765,7.2425,2.2992,-2.3759,143.3739,-4.2435,-7.7913
770,5.4415,3.1423,-3.7171,130.9913,-20.9391,-39.0261
775,0.5365,3.2572,-1.7244,112.2087,-36.4522,-74.0174
780,-2.6058,1.1496,-1.5328,89.6696,-56.7652,-101.7739
785,-4.5984,-0.4982,-2.1459,71.7217,-83.1304,-111.7217
790,-5.5181,-2.989,-3.8704,53.4261,-104.3478,-108.5913
795,-5.4798,-4.9816,-7.3192,27.0609,-115.2696,-100.5913
800,-6.9743,-6.936,-10.1166,-6.1913,-115.3391,-93.7043
805,-10.8063,-9.0053,-13.757,-47.7913,-105.3913,-87.4435
810,-15.673,-11.726,-16.5161,-88.7652,-92.3826,-75.0609
815,-19.1602,-15.4431,-17.9722,-136.9043,-74.8522,-51.8261
820,-18.9302,-19.0452,-17.5507,-189.4957,-57.4609,-18.9913
825,-14.7533,-23.452,-15.2898,-240.2783,-53.287,9.8087
830,-11.726,-27.6289,-13.2205,-276.1739,-70.1913,22.5391
835,-9.2352,-30.7329,-11.6877,-286.4,-106.087,21.287
840,-5.6331,-32.9171,-11.0363,-267.6174,-153.5304,18.3652
845,0.4598,-33.9135,-11.4578,-222.6783,-195.0609,23.5826
850,7.0509,-33.9518,-12.9906,-156.3826,-215.0957,37.913
855,11.7643,-32.7639,-13.6037,-61.287,-198.3304,46.1913
860,14.2552,-31.2694,-13.1055,17.5304,-155.6174,46.1217
865,16.0179,-27.7822,-10.8446,89.9478,-107.4087,33.4609
870,15.4814,-23.567,-8.3155,155.7565,-71.7217,12.5217
875,12.9906,-19.5434,-5.9013,212.5217,-51.2696,-7.0261
880,10.4998,-15.9413,-3.9087,254.9565,-40.2783,-17.5304
885,8.3921,-12.2625,-1.7244,279.7913,-34.713,-19.3391
890,6.7061,-8.7754,-0.6514,289.9478,-32.6261,-18.5043
895,5.7097,-6.6294,-0.9197,285.2174,-30.4696,-21.6348
900,4.6368,-4.062,-1.073,260.8696,-25.6696,-31.9304
905,3.0656,-2.1843,-2.0693,218.5739,-16.3478,-50.6435
910,1.6095,-1.2646,-2.7207,149.7739,-7.8609,-63.513
915,0.5365,-1.6861,-3.4105,85.287,0.1391,-69.7739
920,0.115,-3.6021,-3.4488,18.2261,6.6783,-69.3565
925,-0.2299,-5.5564,-3.6787,-46.887,10.5043,-65.3217
930,0.0383,-8.1622,-3.6021,-106.087,11.4783,-60.8
935,0.3832,-10.2315,-3.5638,-156.1043,10.5043,-57.7391
940,0.4982,-12.6457,-3.2189,-194.9913,9.2522,-57.3217
945,0.6898,-14.9832,-3.3339,-219.0609,9.2522,-59.1304
950,0.958,-16.7843,-2.989,-227.4783,11.2,-62.7478
955,1.4179,-18.3938,-3.1423,-222.0522,16.0696,-66.8522
960,2.1843,-19.735,-3.3339,-202.4348,20.8696,-69.1478
965,2.7207,-20.9229,-3.4488,-179.0609,25.4609,-70.6783
970,2.8357,-21.7276,-3.5255,-150.2609,29.4957,-71.4435
975,2.7974,-22.1491,-3.7937,-117.287,33.113,-70.1217
980,2.6441,-22.2641,-3.7171,-80.9043,36.4522,-65.8087
985,2.3759,-22.2258,-4.1003,-41.8087,39.3739,-60.4522
990,2.0693,-21.6127,-4.4835,-3.1304,42.2261,-54.4
995,1.4562,-20.3481,-4.6751,32.9739,44.8,-48.6261
1000,0.7281,-18.8919,-4.8284,63.0957,46.8174,-44.1739
1005,0.0766,-17.2825,-4.9433,85.9826,47.2348,-40.4174
1010,-0.4982,-15.4814,-4.4835,104.7652,45.7043,-38.1217
1015,-1.0346,-14.0252,-4.0236,116.2435,43.687,-37.0783
1020,-1.3412,-12.0709,-3.3339,126.4,41.3217,-37.2174
1025,-1.1496,-10.2698,-2.989,136.0696,39.3043,-39.5826
1030,-1.0346,-8.2005,-2.7974,145.3217,37.2174,-45.9826
1035,-0.9963,-6.2845,-2.6058,154.5043,36.1739,-56.487
1040,-1.1113,-4.4452,-1.6861,161.1826,36.3826,-66.8522
1045,-1.4179,-3.4488,-2.2609,162.4348,37.4957,-73.113
1050,-1.2646,-2.4142,-1.7244,157.1478,38.6783,-75.2696
1055,-1.1496,-1.8011,-1.3029,146.087,39.5826,-75.0609
1060,-0.958,-0.843,-0.7281,131.7565,39.9304,-74.7826
1065,-0.843,-0.0766,0.3066,113.0435,39.7217,-75.3391
1070,-0.6898,0.6131,0.9197,98.9217,39.3043,-77.6348
1075,-0.8047,1.3029,1.4945,88.4174,38.7478,-82.1565
1080,-1.1496,2.2609,1.5711,80.6261,37.5652,-86.6783
1085,-1.5328,2.9123,1.4945,73.3217,35.8957,-89.4609
1090,-1.9927,3.7554,1.3795,65.5304,33.3217,-89.6696
1095,-2.3759,4.2919,1.3029,57.4609,29.6348,-87.9304
1100,-2.7591,4.7517,0.7664,49.3217,25.0435,-84.2435
1105,-3.4105,5.2882,0.4982,41.1826,19.687,-79.0957
1110,-3.7171,5.7097,0.1916,33.6696,13.3565,-69.287
1115,-3.8704,5.8247,0.0766,25.6,8.2087,-58.5043
1120,-4.0236,5.5564,0.1916,19.2696,3.6174,-45.3565
1125,-3.7554,4.9816,0.3449,13.5652,-0.4174,-30.4696
1130,-3.2955,4.0236,0.4982,8.5565,-4.313,-14.887
1135,-2.8357,3.1423,0.843,3.687,-8.3478,0.2783
1140,-2.1076,1.7627,1.1879,-1.1826,-13.7043,14.887
1145,-1.2263,0.4598,1.5328,-5.3565,-20.2435,27.5478
1150,-0.4982,-0.7281,1.8394,-7.3043,-27.8957,37.913
1155,0.0766,-1.8777,1.9927,-6.8174,-36.5217,45.8435
1160,0.8814,-3.0656,1.8777,-3.7565,-46.1913,52.1043
1165,1.9543,-3.832,1.3412,3.2,-58.713,53.287
1170,2.5291,-4.4068,0.4982,11.2696,-69.1478,51.687
1175,2.6824,-4.2919,-0.2299,21.6348,-78.4696,48.9739
1180,3.0273,-3.9087,-1.7627,34.1565,-85.7043,48.2783
1185,3.0656,-3.3722,-3.7937,47.7913,-90.2261,48.6957
1190,2.9507,-2.3375,-5.9013,59.3391,-91.9652,50.2957
1195,2.7591,-1.2646,-8.3155,66.5739,-90.1565,53.5652
1200,3.0273,-0.4598,-10.768,68.3826,-84.5217,59.7565
1205,4.0236,0.2299,-14.2168,63.7913,-74.3652,67.687
1210,5.2499,0.6898,-16.7843,51.2,-59.1304,74.6435
1215,6.6294,0.5748,-18.4704,29.7739,-33.9478,79.2348
1220,8.8137,-0.4215,-19.6966,-6.0522,-8.0,78.5391
1225,11.5727,-2.8357,-19.3901,-43.9652,21.9826,71.3739
1230,15.0982,-6.936,-16.6693,-89.3217,52.1739,54.5391
1235,18.3938,-12.9139,-12.5307,-136.9739,73.113,23.3043
1240,19.0069,-20.463,-6.3612,-181.0783,71.8609,-27.9652
1245,15.9796,-27.6289,-1.916,-207.7913,39.9304,-94.9565
1250,12.3391,-31.8059,-1.9927,-207.7913,-10.087,-156.7304
1255,8.2389,-35.8295,-7.1659,-188.7304,-48.2087,-193.1826
1260,4.905,-37.9371,-14.3318,-172.5217,-45.8435,-200.487
1265,0.5365,-37.0941,-19.3901,-165.2174,19.3391,-185.1826
1270,-5.4798,-33.9135,-21.6127,-144.9043,103.1652,-158.2609
1275,-11.6494,-30.4646,-20.8079,-97.9478,174.4,-122.2957
1280,-16.4777,-27.1308,-19.3901,-20.7304,201.2522,-85.4957
1285,-18.547,-23.8736,-18.3554,71.2348,181.9826,-55.0261
1290,-17.5507,-21.4977,-17.0525,158.1217,136.8348,-29.7739
1295,-14.9832,-18.8919,-14.5617,226.9913,85.2174,-6.6783
1300,-12.5307,-16.631,-11.9559,275.4783,34.9217,13.9826
1305,-10.3465,-14.1019,-9.5418,304.6261,-10.7826,29.7043
1310,-8.3538,-11.2662,-7.8557,316.8,-48.3478,40.2087
1315,-5.9396,-7.8557,-6.5145,314.7826,-74.5043,46.1913
1320,-2.7207,-4.7134,-5.3648,298.5043,-90.3652,46.1217
1325,1.0346,-1.8777,-4.9816,276.1043,-94.4696,41.6696
1330,3.4871,-0.4982,-5.3265,242.2957,-95.513,35.4783
1335,5.4032,0.3066,-5.5564,194.5043,-95.1652,28.5217
1340,6.2079,0.5748,-6.3229,133.4261,-93.8435,22.887
1345,6.3612,-0.115,-6.3995,60.5913,-92.1739,19.5478
1350,6.6677,-1.4562,-6.1313,-17.9478,-92.0348,17.2522
1355,6.7444,-3.0273,-5.5948,-94.2609,-93.5652,13.5652
1360,6.7444,-5.2116,-5.1349,-160.6957,-94.1217,8.4174
1365,6.8593,-7.5874,-4.6368,-211.8957,-89.8783,3.3391
1370,7.0509,-9.5801,-4.062,-244.313,-77.5652,-0.487
1375,7.5108,-11.8793,-3.2572,-257.1826,-62.887,-2.5739
1380,7.5874,-13.9103,-2.7207,-247.4435,-46.4696,-3.4783
1385,7.7024,-15.4814,-2.0693,-223.0957,-29.8435,-2.8522
1390,7.7024,-16.8609,-1.8777,-190.6783,-14.6783,1.113
1395,7.3575,-17.7423,-1.916,-155.8957,-1.5304,7.7913
1400,6.8977,-18.4321,-2.1076,-123.2,9.1826,16.6957
1405,6.3995,-18.777,-2.1076,-94.2609,17.6696,26.713
1410,5.6714,-18.7386,-2.2609,-68.7304,24.2783,37.0087
1415,5.0966,-18.6237,-2.3375,-45.4261,29.7739,46.4696
1420,4.2919,-18.2405,-2.9123,-23.5826,35.0609,55.4435
1425,3.6021,-17.6657,-3.3722,1.5304,38.3304,60.0348
1430,2.989,-17.0525,-3.832,22.1217,40.9043,62.2609
1435,2.4525,-16.1329,-4.2152,42.1565,43.4783,61.8435
1440,1.8394,-14.9832,-4.4835,60.5913,46.4696,60.0348
1445,1.2646,-13.6804,-4.4068,77.2174,50.1565,57.5304
1450,1.0346,-12.7607,-4.5601,91.8957,54.1217,55.1652
1455,0.6898,-11.3811,-4.4452,104.7652,58.6435,52.8
1460,0.0,-9.8866,-4.1769,115.8957,63.3739,51.2696
1465,-0.1916,-8.3921,-3.5255,125.287,68.3826,51.4783
1470,-0.2682,-6.9743,-2.7591,133.287,73.1826,52.5217
1475,-0.3832,-5.5564,-2.2226,140.6609,78.6087,53.0783
1480,-0.4215,-4.2536,-1.2646,145.2522,82.7826,53.9826
1485,-0.4598,-2.7207,0.0,149.8435,86.2609,54.4
1490,-0.3066,-1.8777,0.3449,155.687,88.4174,55.5826
1495,-0.2682,-0.7664,0.8047,159.7913,88.6957,56.7652
1500,-0.0766,-0.1916,1.1496,158.6783,87.7217,58.6435
1505,0.0383,0.2682,1.4179,151.7913,85.5652,59.9652
1510,0.115,0.5748,1.3029,139.1304,82.3652,60.1043
1515,0.0383,0.8047,1.4179,121.6,78.5391,57.7391
1520,0.2299,0.8814,1.3412,100.5217,74.5739,52.7304
1525,0.2299,0.9197,0.958,72.6957,70.5391,46.4696
1530,0.4598,0.8814,0.7281,49.2522,68.1739,39.2348
1535,0.6131,0.7281,0.4982,26.5739,67.7565,30.887
1540,1.0346,0.4215,-0.0766,5.6348,69.287,22.1913
1545,1.3412,0.0,-0.6898,-12.7304,72.4174,12.8696
1550,1.5711,-0.7664,-1.2263,-28.4522,77.0783,3.9652
1555,1.3029,-1.4945,-1.3412,-41.1826,82.2261,-3.7565
1560,1.1113,-2.5291,-1.7627,-51.4783,87.1652,-9.3913
1565,0.7281,-3.2572,-1.8777,-58.713,91.1304,-13.7043
1570,0.4215,-4.0236,-1.7244,-62.4696,93.4957,-16.6261
1575,-0.0766,-4.9816,-1.4179,-62.6783,93.7739,-19.5478
1580,-0.4598,-6.0929,-0.9963,-58.4348,91.7565,-20.9391
1585,-1.0346,-7.0126,-0.4598,-51.0609,88.0,-21.7739
1590,-1.6478,-7.8173,-0.0383,-40.4174,81.8783,-21.4261
1595,-2.1459,-8.6604,0.4215,-26.8522,73.8783,-20.7304
1600,-2.4908,-9.1586,0.6131,-11.2,64.6957,-19.0609
1605,-2.874,-9.5034,0.6131,5.7739,55.3739,-16.8348
1610,-3.0656,-9.5801,0.3832,22.9565,47.3043,-12.9391
1615,-3.4871,-9.6184,0.0383,38.7478,41.4609,-8.2087
1620,-3.7937,-9.3502,-0.4598,52.1739,37.8435,-2.4348
1625,-4.2152,-9.0053,-1.073,62.0522,35.5478,4.8696
1630,-4.6751,-8.5071,-2.031,67.2,33.0435,11.5478
1635,-5.2499,-8.0856,-4.062,63.5826,29.9826,18.2261
1640,-5.8247,-7.8173,-6.6677,48.2783,23.0261,25.6
1645,-6.0929,-7.8173,-8.6221,18.2957,9.5304,32.9739
1650,-5.978,-8.3538,-10.3465,-24.0696,-11.1304,40.8348
1655,-4.9816,-10.2315,-11.2662,-72.9043,-35.5478,49.1826
1660,-3.0656,-12.6074,-10.5764,-119.7217,-55.9304,57.7391
1665,-0.2299,-15.6347,-9.0436,-155.7565,-65.8087,64.0696
1670,2.4908,-18.1255,-6.7061,-172.2435,-63.7913,66.713
1675,3.8704,-20.2714,-4.4835,-163.7565,-53.0087,65.8783
1680,3.8704,-21.3061,-3.1423,-130.5043,-34.2957,64.5565
1685,3.8704,-21.2678,-2.6824,-69.8435,-19.0609,64.1391
1690,3.9087,-20.463,-3.1039,-15.0957,-8.3478,63.7913
1695,4.1386,-18.8153,-3.947,32.487,-3.7565,61.7739
1700,4.5218,-17.1292,-4.4068,68.4522,-4.313,58.1565
1705,5.2116,-15.3664,-4.4835,93.5652,-7.3043,51.7565
1710,5.8247,-13.642,-4.5984,109.8435,-10.1565,42.8522
1715,6.3612,-12.0709,-4.5601,118.7478,-10.5043,31.3043
1720,6.7827,-10.5764,-4.5218,120.9739,-7.513,19.4087
1725,6.6677,-9.7717,-4.3685,117.3565,-0.9043,8.0
1730,6.6294,-8.5454,-3.7937,108.7304,9.1826,-2.9217
1735,5.9013,-7.7407,-3.5638,92.6609,23.2348,-10.2261
1740,4.8667,-7.1276,-3.1039,75.4783,35.0609,-15.2348
1745,3.6404,-6.5911,-2.7974,56.2087,45.7043,-18.8522
1750,2.5291,-6.2845,-2.4142,36.3826,54.0522,-20.4522
1755,1.6861,-6.2462,-2.1459,17.8087,58.9913,-21.7739
1760,1.1113,-6.3995,-1.9543,1.2522,60.5913,-22.9565
1765,0.6898,-6.5145,-1.916,-13.1478,59.0609,-24.2783
1770,0.3066,-6.7061,-2.031,-25.9478,55.7913,-24.2783
1775,0.1533,-7.0893,-2.1076,-37.4957,51.8957,-23.4435
1780,-0.115,-7.5108,-2.2226,-47.7913,48.0696,-20.2435
1785,-0.4598,-7.779,-2.3375,-58.7826,44.2435,-16.7652
1790,-0.8047,-8.4305,-2.5291,-66.713,41.6,-12.2435
1795,-1.1879,-9.0053,-2.6441,-73.8087,39.0957,-7.8609
1800,-1.5328,-9.3885,-2.874,-79.9304,36.5913,-3.4783
1805,-1.7244,-9.81,-2.9507,-84.7304,33.8783,0.0696
1810,-2.031,-10.1932,-3.0273,-87.8609,31.0261,2.8522
1815,-2.1076,-10.3082,-3.0273,-88.487,27.7565,4.1739
1820,-2.0693,-10.653,-3.1806,-86.1217,23.6522,4.6609
1825,-2.1076,-10.768,-3.1039,-80.6957,18.5043,4.313
1830,-1.9927,-10.768,-3.1039,-72.0696,12.5217,3.9652
1835,-1.9927,-10.5381,-3.2955,-60.9391,4.5913,2.9913
1840,-2.031,-10.3848,-3.4488,-44.9391,-2.1565,2.2261
1845,-1.9927,-10.2698,-3.5255,-30.887,-8.5565,1.2522
1850,-1.7244,-10.0782,-3.5638,-17.0435,-14.5391,0.8348
1855,-1.6478,-9.6184,-3.3339,-3.4783,-19.6174,0.6261
1860,-1.6095,-9.2735,-3.1423,8.9739,-23.5826,1.113
1865,-1.4945,-8.7754,-3.1039,19.687,-26.3652,1.4609
1870,-1.4179,-8.2772,-3.1423,28.313,-27.9652,2.2261
1875,-1.3795,-7.8173,-3.2572,33.6696,-28.7304,2.7826
1880,-1.1879,-7.5108,-2.9507,35.8261,-28.8,3.3391
1885,-1.0346,-7.2425,-2.7974,34.5739,-28.5217,3.2
1890,-0.9197,-6.936,-2.6058,29.0087,-27.8261,2.9913
1895,-0.6898,-6.7827,-2.9507,21.6348,-27.1304,2.1565
1900,-0.6898,-6.7827,-2.7974,12.5913,-26.3652,1.4609
1905,-0.6514,-6.6677,-2.7207,2.4348,-25.6,0.2783
1910,-0.6898,-6.8977,-2.6441,-8.0,-24.8348,-0.487
1915,-0.5748,-7.2042,-2.6824,-17.7391,-24.2783,-1.3217
1920,-0.5365,-7.5108,-2.4908,-26.4348,-24.2087,-1.5304
1925,-0.4598,-7.894,-2.0693,-33.3913,-24.7652,-1.5304
1930,-0.3449,-8.4688,-2.031,-38.1217,-25.7391,-0.6957
1935,-0.1916,-8.852,-1.9543,-40.487,-26.9913,0.1391
1940,-0.0383,-9.5418,-1.8011,-40.3478,-28.7304,2.087
1945,-0.1533,-9.8483,-1.916,-37.913,-30.5391,3.4087
1950,-0.0383,-10.1932,-1.916,-33.9478,-32.9739,5.4957
1955,-0.0383,-10.3082,-2.031,-29.0783,-35.687,7.513
1960,0.0383,-10.4231,-2.1843,-23.3739,-38.4696,10.2261
1965,0.0383,-10.4998,-2.1843,-17.1826,-41.3217,12.9391
1970,0.1533,-10.5381,-2.2609,-10.7826,-43.8957,16.0696
1975,0.2299,-10.653,-2.3759,-4.4522,-46.1217,18.713
1980,0.115,-10.653,-2.2226,1.8087,-48.0696,21.4261
1985,0.2299,-10.6914,-2.2226,7.8609,-49.4609,23.3739
1990,0.3066,-10.7297,-2.3375,13.3565,-50.0174,25.6
1995,0.2682,-10.8446,-2.3375,18.9913,-49.5304,26.2261
2000,0.2682,-10.8446,-2.2226,22.4696,-48.5565,26.5043
2005,0.0766,-10.768,-2.1843,24.7652,-47.1652,26.087
2010,-0.115,-10.653,-2.1459,26.1565,-45.4957,25.6696
2015,0.0,-10.5381,-2.031,26.9913,-43.4087,24.3478
2020,0.0766,-10.3082,-1.8394,27.687,-40.9739,22.4696
2025,0.115,-10.0016,-1.5711,28.1739,-37.7739,19.7565
2030,0.1916,-9.7334,-1.5328,28.6609,-34.9913,17.0435
2035,0.1533,-9.2352,-1.3795,28.7304,-32.5565,14.0522
2040,0.0,-9.1202,-1.5328,27.8261,-30.6783,10.9913
2045,-0.115,-8.4688,-1.6478,24.5565,-29.1478,8.2783
2050,0.0766,-8.1622,-1.9543,19.3391,-28.313,6.1217
2055,0.0383,-7.894,-2.031,11.6174,-27.9652,3.4783
2060,0.0,-7.5491,-2.1459,1.9478,-27.687,1.3913
2065,-0.2299,-7.4725,-2.3759,-9.2522,-27.8261,-0.6957
2070,-0.3832,-7.4341,-2.2226,-21.1478,-28.8,-2.1565
2075,-0.4598,-7.5491,-2.2992,-32.6957,-30.2609,-3.9652
2080,-0.6898,-7.6257,-2.1843,-43.687,-32.2783,-5.287
2085,-0.843,-7.9706,-1.9543,-53.7739,-34.1565,-6.9565
2090,-0.8814,-8.2389,-2.0693,-62.5391,-35.7565,-8.4174
2095,-1.1879,-8.6604,-1.8777,-69.4957,-37.1478,-10.2957
2100,-1.2263,-9.1586,-1.7244,-75.3391,-37.3565,-11.5478
2105,-1.4562,-9.5418,-1.5328,-77.7739,-36.3826,-13.0783
2110,-1.2263,-10.0399,-1.4562,-77.7739,-34.0174,-13.7043
2115,-1.1879,-10.5764,-1.4179,-75.5478,-30.887,-14.8174
2120,-1.1879,-10.8063,-1.3029,-71.7913,-27.0609,-15.2348
2125,-1.073,-11.0746,-1.5711,-66.5043,-23.3739,-15.7913
2130,-1.0346,-11.3811,-1.8394,-60.1043,-20.1739,-15.5826
2135,-0.958,-11.6494,-1.8777,-53.4261,-17.6,-15.0261
2140,-0.8047,-11.726,-1.916,-45.9826,-16.1391,-13.7739
2145,-0.6514,-11.6111,-1.9543,-38.3304,-15.7217,-12.1739
2150,-0.4598,-11.4195,-2.0693,-28.0348,-16.487,-10.5043
2155,-0.2299,-11.3045,-2.031,-19.2696,-17.8783,-8.9739
2160,-0.2299,-11.1129,-2.1459,-10.5043,-19.4783,-7.2348
2165,-0.0766,-10.8446,-2.0693,-2.1565,-20.7304,-6.0522
2170,0.1916,-10.6147,-1.9543,5.0087,-21.4261,-4.8
2175,0.2682,-10.2698,-2.031,10.4348,-21.7043,-4.0348
2180,0.3449,-10.0016,-2.1459,13.4261,-21.4261,-3.2
2185,0.6131,-9.81,-2.1459,14.4,-20.8,-2.7826
2190,0.8047,-9.4651,-2.0693,13.5652,-19.8957,-2.5739
2195,0.9963,-9.2735,-2.1459,11.2696,-18.2261,-3.0609
2200,0.9963,-9.2352,-2.1459,7.1652,-15.7217,-3.4087
2205,1.1496,-9.0819,-2.2226,2.713,-13.2174,-4.3826
2210,1.3412,-9.0436,-2.1843,-2.2957,-10.713,-5.2174
2215,1.3029,-9.1586,-2.3375,-7.7913,-8.2783,-6.4
2220,1.5328,-9.0819,-2.3375,-13.0783,-5.9826,-7.2348
2225,1.4945,-9.2735,-2.3759,-18.1565,-3.5478,-8.487
2230,1.6478,-9.4651,-2.5291,-22.5391,-0.9739,-9.1826
2235,1.5711,-9.5034,-2.5675,-26.2261,1.6,-9.8783
2240,1.4945,-9.6184,-2.7974,-28.9391,4.5913,-10.087
2245,1.4179,-9.6184,-3.0273,-30.7478,8.2087,-10.4348
2250,1.2263,-9.5801,-3.3722,-31.7217,13.287,-10.1565
2255,1.1113,-9.5418,-3.947,-32.0696,18.1565,-9.7391
2260,0.958,-9.3885,-4.1769,-32.4174,23.0957,-8.9739
2265,0.9197,-9.1969,-4.5218,-32.9043,28.1739,-8.487
2270,0.8047,-9.0436,-4.6368,-33.6,33.3217,-7.1652
2275,0.843,-8.9286,-4.6368,-34.2957,38.6087,-5.7739
2280,0.8814,-8.7754,-4.6368,-34.6435,43.9652,-3.8261
2285,1.0346,-8.6221,-4.7134,-34.5739,49.4609,-1.7391
2290,1.2263,-8.4688,-4.5601,-34.0174,54.7478,0.8348
2295,1.4945,-8.2772,-4.1769,-32.8348,59.8261,2.713
2300,1.6861,-8.0856,-3.7937,-30.7478,64.6261,5.0087
2305,1.8011,-8.0089,-3.2572,-27.4783,70.2609,6.6087
2310,1.9543,-8.0089,-3.0273,-24.2783,74.2261,8.3478
2315,2.0693,-8.0856,-2.4525,-21.0783,77.1478,9.3913
2320,2.1076,-8.2389,-2.1459,-18.5043,78.6783,10.5739
2325,2.1843,-8.4688,-2.031,-16.2783,78.8174,11.5478
2330,2.031,-8.6221,-1.5328,-14.8174,78.6783,12.8696
2335,1.916,-9.0819,-1.4945,-14.1913,78.4,13.913
2340,1.7244,-9.5034,-1.3795,-14.1913,77.7043,14.887
2345,1.3795,-9.695,-1.4179,-15.0957,76.1739,15.1652
2350,1.1496,-10.0782,-1.4945,-16.8348,74.0174,15.7217
2355,0.6898,-10.3465,-1.5711,-19.5478,70.6783,15.7913
2360,0.4215,-10.7297,-1.8011,-22.2609,67.2696,16.2087
2365,-0.115,-10.9979,-1.6478,-24.7652,63.7217,16.2087
2370,0.0383,-11.2662,-1.4945,-26.6435,59.8957,16.3478
2375,-0.6131,-11.6111,-1.6095,-27.3391,55.9304,15.1652
2380,-0.9197,-11.9176,-1.6095,-26.713,52.313,14.2609
2385,-1.2646,-11.9943,-1.4945,-24.9043,48.7652,13.0783
2390,-1.6095,-12.1859,-1.4945,-22.0522,45.6348,12.0348
2395,-1.8777,-12.3008,-1.4945,-18.3652,42.5739,10.087
2400,-2.1843,-12.1475,-1.5328,-14.0522,40.0696,8.2087
2405,-2.2609,-12.1859,-1.3412,-9.4609,37.287,5.0087
2410,-2.3759,-11.841,-1.3029,-3.9652,35.4087,2.087
2415,-2.4525,-11.6877,-1.4179,0.2087,33.9478,-1.3217
2420,-2.0693,-11.3811,-1.6095,3.7565,32.487,-4.5913
2425,-1.9927,-10.9213,-1.6095,6.0522,31.1652,-8.2087
2430,-1.8394,-10.5764,-1.6861,7.0957,30.1217,-11.3391
2435,-1.6478,-10.4614,-2.0693,7.0261,29.0087,-14.7478
2440,-1.4945,-10.1166,-2.031,5.9826,27.8957,-18.087
2445,-1.2646,-10.0016,-1.9927,4.4522,26.6435,-21.6348
2450,-1.1496,-10.0399,-2.0693,3.3391,25.4609,-24.6957
2455,-1.0346,-9.925,-1.9927,2.5043,24.1391,-28.2435
2460,-0.9197,-9.8483,-1.7627,2.9217,22.6087,-30.6783
2465,-0.843,-9.6184,-1.6478,4.3826,21.2174,-32.9043
2470,-0.4982,-9.6567,-1.4945,6.6087,20.1043,-34.2957
2475,-0.4215,-9.6184,-1.7627,9.6,19.3391,-35.3391
2480,-0.3832,-9.3885,-1.5711,12.9391,18.9913,-35.687
2485,-0.0766,-9.2352,-1.6861,16.1391,18.9913,-35.9652
2490,0.115,-9.1202,-1.5711,18.713,19.2696,-35.9652
2495,0.2299,-8.737,-1.6095,20.313,19.8261,-36.0348
2500,0.4215,-8.7754,-1.8011,20.5913,20.3826,-35.687
2505,0.4982,-8.5454,-1.6095,19.8261,20.8,-35.6174
2510,0.6898,-8.3538,-1.7244,18.2957,20.9391,-35.2
2515,0.5748,-8.2772,-1.4945,15.3043,20.5217,-35.0609
2520,0.8047,-8.2772,-1.4562,12.5217,19.6174,-34.713
2525,0.7281,-8.0856,-1.1113,9.5304,18.3652,-34.713
2530,0.8814,-8.1239,-1.073,6.1913,16.5565,-34.4348
2535,0.8814,-8.1622,-0.9197,2.9913,14.4,-34.2261
2540,0.843,-8.1622,-0.8814,-0.2087,11.9652,-33.6696
2545,0.9963,-8.1622,-0.7281,-3.2,9.3913,-33.4609
2550,1.0346,-8.3155,-0.6514,-5.8435,7.0261,-33.113
2555,0.9197,-8.4305,-0.7281,-8.0696,5.2174,-33.0435
2560,1.0346,-8.5454,-0.4982,-9.8087,3.7565,-32.4174
2565,0.9963,-8.737,-0.4215,-11.1304,2.087,-31.9304
2570,0.9963,-8.8903,-0.3066,-11.4783,0.9739,-31.1652
2575,0.9963,-9.0819,-0.4215,-11.3391,-0.1391,-30.4
2580,1.073,-9.2352,-0.3066,-10.7826,-0.9043,-29.1478
2585,0.9963,-9.5034,-0.4982,-9.7391,-1.6,-27.8957
2590,1.1496,-9.5418,-0.4982,-8.1391,-2.1565,-26.4348
2595,1.3029,-9.5801,-0.4215,-5.8435,-2.713,-25.6
2600,1.073,-9.7717,-0.4982,-2.8522,-3.8957,-25.113
2605,0.9963,-9.9633,-0.6514,0.5565,-4.6609,-23.7217
2610,1.1113,-9.9633,-0.5748,4.4522,-5.7739,-21.7043
2615,1.073,-10.0782,-0.4215,8.6957,-8.0,-20.0348
2620,0.9963,-10.0399,-0.6131,14.4,-10.5739,-18.9217
2625,0.8814,-9.9633,-0.6514,19.6174,-13.2174,-17.8783
2630,0.7664,-9.9633,-0.4982,25.6,-15.9304,-16.3478
2635,0.4215,-9.8866,-0.5365,32.0,-18.6435,-14.4
2640,0.3832,-9.7334,-0.3449,38.887,-20.8696,-11.9652
2645,0.5365,-9.6184,-0.3066,45.7043,-22.6783,-9.5304
2650,0.3449,-9.4268,-0.5748,51.7565,-23.8609,-6.887
2655,0.2682,-9.0819,-0.4215,57.0435,-24.2087,-4.3826
2660,0.5365,-8.8903,-0.7281,61.0087,-23.6522,-1.3913
2665,0.3832,-8.5838,-0.9197,63.513,-22.7478,1.3913
2670,0.4598,-8.1622,-1.1496,63.5826,-21.287,3.8957
2675,0.5365,-7.894,-1.3795,61.0087,-19.7565,6.2609
2680,0.5365,-7.779,-1.3795,56.7652,-18.3652,8.4174
2685,0.843,-7.6257,-1.4945,50.9913,-16.7652,10.087
2690,0.8814,-7.5491,-1.5328,44.313,-15.1652,11.6174
2695,1.1113,-7.8173,-1.3412,37.5652,-13.287,12.1739
2700,1.4562,-8.0089,-1.1113,30.9565,-10.9217,12.2435
2705,1.7244,-8.2772,-1.073,24.6957,-8.2783,11.4783
2710,1.9543,-8.5454,-0.6898,18.9913,-5.2174,10.1565
2715,1.9543,-8.9286,-0.4215,13.0783,-2.2261,6.8174
2720,2.1843,-9.2735,-0.3066,5.913,1.113,3.2
2725,2.3759,-9.6184,-0.1916,0.0696,3.4783,-1.1826
2730,2.5291,-9.9633,0.0766,-5.0783,4.9391,-5.3565
2735,2.4908,-10.1166,0.2682,-9.4609,5.4957,-9.6
2740,2.4908,-10.3465,0.3832,-12.4522,5.5652,-13.0087
2745,2.4525,-10.4998,0.6514,-13.8435,5.4261,-16.0
2750,2.2992,-10.6147,0.6131,-13.6348,5.7043,-18.0174
2755,1.9927,-10.768,0.958,-11.9652,6.1913,-19.3391
2760,1.7244,-11.0363,0.958,-8.6957,6.7478,-19.6174
2765,1.3029,-11.1895,1.1879,-3.7565,7.1652,-19.4783
2770,0.8814,-11.3811,0.843,2.4348,6.9565,-17.9478
2775,0.6131,-11.6111,0.8047,11.4783,6.6087,-16.1391
2780,0.5748,-11.7643,0.115,18.5739,6.3304,-14.0522
2785,0.6898,-11.7643,-0.6514,22.6783,5.913,-12.6609
2790,0.7664,-11.726,-1.5328,21.4957,5.2174,-12.1043
2795,0.8047,-11.6494,-1.9543,14.4696,4.1739,-12.5913
2800,0.6898,-11.841,-2.1076,2.9913,2.2261,-13.4957
2805,0.4982,-12.1475,-1.4945,-9.6696,0.2087,-14.4696
2810,0.4982,-12.5691,-0.8814,-19.9652,-0.9043,-15.3739
2815,0.6898,-13.0672,-0.3066,-25.4609,-0.487,-17.3217
2820,0.6898,-13.6804,0.0383,-25.8783,1.5304,-20.5913
2825,0.843,-13.9103,-0.115,-22.0522,4.5913,-23.9304
2830,0.9963,-14.1402,-0.5365,-17.8783,6.7478,-27.2696
2835,1.3412,-13.9486,-1.1496,-14.9565,8.6261,-30.3304
2840,1.916,-13.7953,-1.916,-13.9826,10.2957,-33.0435
2845,2.2992,-13.5654,-2.2609,-14.5391,12.0348,-35.4783
2850,2.7207,-13.2588,-2.7591,-15.6522,14.1217,-37.4261
2855,2.874,-13.1439,-2.7974,-16.1391,16.2783,-38.6783
2860,2.9123,-13.1055,-2.8357,-15.3739,17.8087,-38.887
2865,2.7974,-13.2205,-2.6441,-12.7304,18.5739,-38.8174
2870,2.4525,-12.8373,-2.874,-8.6261,18.0174,-37.8435
2875,2.2609,-12.684,-2.7591,-2.9217,15.8609,-36.1043
2880,1.9927,-12.4541,-2.7974,4.8,13.2174,-34.0174
2885,1.9543,-12.3008,-3.1039,11.4087,10.5043,-31.6522
2890,1.8394,-11.9559,-3.3339,17.5304,8.4174,-29.1478
2895,2.1459,-11.726,-3.7937,22.6087,6.9565,-26.6435
2900,1.5328,-11.1895,-3.7937,26.3652,5.7043,-25.3913
2905,1.1879,-10.5764,-3.9853,29.2174,4.9391,-24.2087
2910,0.9197,-10.1549,-4.1003,31.4435,4.1043,-21.4957
2915,0.6898,-9.6184,-4.2919,33.1826,2.1565,-18.3652
2920,0.7281,-9.0053,-4.4835,33.9478,-1.113,-15.0957
2925,0.7281,-8.3155,-4.7134,33.4609,-5.0783,-11.4087
2930,0.958,-7.8173,-5.02,31.0957,-9.7391,-8.2783
2935,1.1113,-7.3192,-5.4032,27.2,-13.0783,-5.7739
2940,1.3029,-6.9743,-5.3648,22.1217,-16.2087,-3.687
2945,1.1879,-6.4761,-4.9816,16.2783,-19.5478,-1.9478
2950,0.9963,-6.2462,-4.7517,11.0609,-23.7913,-0.2087
2955,0.7664,-6.0546,-4.4452,7.6522,-28.9391,0.9043
2960,0.6131,-5.7864,-4.1769,6.3304,-34.2957,1.7391
2965,0.3832,-5.9013,-3.5638,6.887,-39.5826,2.2261
2970,0.1916,-5.978,-3.5638,8.9043,-43.7565,2.9913
2975,0.115,-6.3995,-3.5255,10.9913,-47.3043,3.8957
2980,0.3832,-6.7444,-3.8704,11.8957,-51.2,4.313
2985,0.6131,-6.8593,-4.062,10.2957,-53.7739,4.1043
2990,0.8814,-7.1659,-4.1386,6.6087,-54.5391,4.1739
2995,1.0346,-7.5874,-4.3685,1.7391,-53.0087,5.0087
