timestamp,accX,accY,accZ,gyroX,gyroY,gyroZ
0,-1.1496,-4.7134,-7.2042,37.5652,-0.5565,-4.1739
5,-1.5711,-4.5984,-6.821,30.7478,-1.2522,-2.1565
10,-1.9927,-4.7517,-6.1313,22.4696,-2.7826,-0.2783
15,-2.3759,-5.0966,-5.5564,13.5652,-5.0087,1.5304
20,-2.4908,-5.6331,-4.9433,4.5217,-7.5826,3.5478
25,-2.4142,-6.1696,-4.79,-3.8261,-10.1565,5.4957
30,-2.1459,-6.7827,-4.6751,-11.2,-12.3826,7.3043
35,-1.7244,-7.3575,-4.6368,-17.4609,-13.6348,8.9739
40,-1.4179,-7.7407,-4.6751,-22.7478,-13.4261,10.4348
45,-0.9963,-8.2005,-4.9816,-27.4783,-12.2435,11.7565
50,-0.7281,-8.3921,-5.2882,-31.6522,-10.1565,12.8696
55,-0.4598,-8.852,-5.4798,-35.5478,-7.3043,13.9826
60,-0.1916,-8.9286,-5.6331,-39.3043,-3.8957,14.9565
65,0.0,-9.0436,-5.7097,-43.2696,-0.2087,16.0
70,0.115,-9.0436,-5.9013,-47.2348,3.8261,17.113
75,0.3832,-9.3118,-6.0546,-50.713,8.0,18.1565
80,0.7281,-9.3118,-6.0929,-53.4957,11.687,19.2
85,0.843,-9.2735,-6.2079,-55.1652,14.6783,20.0348
90,1.1113,-9.3885,-6.2079,-55.5826,17.113,21.1478
95,1.2263,-9.4268,-6.2845,-54.4,18.8522,22.0522
100,1.3795,-9.4651,-6.0546,-51.8261,19.687,22.9565
105,1.3795,-9.5034,-6.0929,-47.7913,20.0348,23.7913
110,1.4179,-9.5034,-5.978,-42.2261,19.8957,24.4174
115,1.4945,-9.5418,-6.0163,-34.9913,19.2696,24.9739
120,1.3029,-9.4651,-5.863,-26.4348,18.5739,25.8087
125,1.0346,-9.3118,-5.6331,-17.0435,17.8087,26.8522
130,0.8814,-9.1586,-5.4032,-6.4696,17.0435,28.4522
135,0.6898,-9.0436,-5.3648,4.6609,15.8609,30.4
140,0.4598,-8.737,-5.2499,14.8174,14.4,32.6261
145,0.5748,-8.5838,-5.02,23.4435,13.0087,34.1565
150,0.5365,-8.3155,-4.9433,30.6783,11.8957,35.1304
155,0.2682,-8.0089,-4.79,36.7304,11.4087,36.1043
160,0.2299,-7.7407,-4.6751,41.3217,11.5478,37.0087
165,0.0766,-7.3958,-4.5218,44.2435,12.313,37.9826
170,-0.115,-7.1659,-4.4835,45.4261,13.1478,39.0261
175,-0.2682,-6.936,-4.6368,44.5913,13.913,40.0696
180,-0.4982,-6.6677,-4.3302,41.6,14.7478,40.9043
185,-0.5365,-6.5911,-4.4068,36.6609,15.6522,41.3913
190,-0.5365,-6.0929,-4.3302,30.0522,16.3478,41.6696
195,-0.6898,-6.1696,-4.1003,21.1478,17.113,41.7391
200,-0.5365,-6.2845,-3.9087,13.6348,18.0174,41.3913
205,-0.5748,-6.3995,-3.8704,6.1913,18.9913,40.9739
210,-0.6131,-6.4761,-3.9853,-1.3217,20.0348,40.2783
215,-0.6131,-6.6294,-3.9087,-8.8348,21.2174,39.2348
220,-0.5365,-6.6677,-4.0236,-16.2783,22.6087,38.1217
225,-0.7281,-6.8977,-4.1003,-23.0261,24.1391,37.0087
230,-0.6898,-7.0126,-4.2152,-29.287,25.4609,35.8957
235,-0.6131,-7.0893,-4.2536,-34.6435,26.713,34.9913
240,-0.6898,-7.0893,-4.2919,-38.887,28.0348,34.5739
245,-0.6131,-7.2425,-4.2919,-41.9478,29.6348,34.5043
250,-0.6131,-7.3192,-4.1769,-43.9652,32.0696,34.5043
255,-0.6131,-7.5874,-4.1003,-45.0783,35.3391,34.8522
260,-0.4982,-7.8557,-4.2152,-45.4261,38.9565,35.6174
265,-0.5365,-8.0473,-4.0236,-44.9391,42.3652,36.2435
270,-0.3066,-8.3921,-3.832,-43.9652,44.9391,36.9391
275,-0.4215,-8.5454,-3.7171,-42.2261,46.8174,37.8435
280,-0.2299,-8.852,-3.7937,-39.8609,47.3043,38.6087
285,-0.115,-8.9286,-3.6021,-37.0087,46.8174,39.0261
290,0.0,-9.2735,-3.5255,-34.1565,45.287,39.5826
295,-0.0766,-9.3502,-3.7937,-30.7478,43.1304,39.7217
300,-0.2682,-9.4651,-3.9853,-26.9217,40.0696,39.2348
305,-0.3066,-9.5418,-4.2919,-22.9565,36.5217,38.4696
310,-0.2299,-9.4651,-4.4835,-19.687,33.4609,37.8435
315,-0.1916,-9.5034,-4.7517,-17.3913,32.4174,37.8435
320,-0.0383,-9.5801,-4.8667,-15.9304,34.6435,38.5391
325,-0.0766,-9.6184,-4.9816,-14.5391,39.3043,38.9565
330,-0.2682,-9.7334,-4.6751,-13.2174,44.7304,38.6783
335,-0.4215,-9.5418,-4.5601,-11.7565,48.6261,37.913
340,-0.5365,-9.4651,-4.5984,-10.0174,49.3913,36.8696
345,-0.6514,-9.0819,-4.7134,-8.0,47.3043,35.4783
350,-0.9197,-9.0053,-5.0966,-6.4,43.8957,33.8783
355,-0.9197,-8.4688,-5.0966,-6.1913,40.4174,32.5565
360,-0.958,-8.2005,-5.2882,-7.7217,37.9826,31.6522
365,-0.9963,-8.0089,-5.4032,-10.9913,36.6609,31.3043
370,-1.1113,-7.8557,-5.2116,-15.3043,36.2435,31.3043
375,-1.0346,-7.8557,-5.1349,-19.2,36.4522,31.6522
380,-1.1496,-7.894,-4.905,-21.7739,37.2174,32.2783
385,-1.0346,-7.8557,-4.7517,-22.4696,37.9826,32.9043
390,-0.8814,-7.6257,-4.6368,-21.7739,38.2609,33.6
395,-0.6131,-7.5874,-4.6751,-20.8,38.0522,34.1565
400,-0.6131,-7.3575,-5.0583,-20.8696,37.6348,34.2261
405,-0.4982,-7.2425,-5.02,-22.2609,37.1478,33.9478
410,-0.2682,-7.3575,-5.02,-25.3913,36.9391,33.0435
415,0.1916,-7.4725,-4.79,-30.1217,36.5217,31.7913
420,0.2682,-7.6641,-4.7517,-35.687,35.4087,29.8435
425,0.3832,-7.9706,-4.5218,-42.0174,33.3913,27.2696
430,0.4598,-8.2389,-4.2152,-48.9043,30.4,24.0
435,0.4982,-8.737,-3.9087,-55.513,26.3652,19.9652
440,0.3066,-9.2735,-3.7937,-61.4957,21.7043,15.3043
445,0.2299,-9.695,-3.832,-67.4783,16.487,10.5043
450,-0.0766,-10.1166,-3.5638,-72.9739,10.7826,5.4261
455,-0.3832,-10.5764,-3.7171,-77.5652,5.1478,0.2783
460,-0.6514,-10.8063,-3.5638,-81.0435,0.2783,-4.7304
465,-1.1113,-10.9979,-3.4105,-82.3652,-3.687,-8.9043
470,-1.4945,-10.9979,-3.2189,-80.6957,-6.887,-12.5913
475,-1.8011,-11.1512,-3.1423,-75.7565,-9.3913,-15.8609
480,-1.916,-11.3045,-2.989,-67.7565,-10.8522,-18.9913
485,-2.031,-11.1129,-3.0273,-56.9043,-11.8261,-22.2609
490,-1.9543,-10.9979,-2.9123,-44.313,-12.7304,-25.9478
495,-1.8011,-10.768,-2.9507,-31.3739,-13.6348,-29.5652
500,-1.6478,-10.3082,-3.0273,-19.3391,-14.887,-33.0435
505,-1.6478,-9.7717,-3.2955,-9.1826,-16.7652,-36.5913
510,-1.6095,-9.1202,-3.5255,-0.8348,-19.2,-40.1391
515,-1.5711,-8.5071,-4.062,5.5652,-22.1913,-43.3391
520,-1.7244,-7.779,-4.3302,10.1565,-25.6,-46.3304
525,-1.6861,-7.2425,-4.6751,12.7304,-28.8696,-48.9043
530,-1.8011,-6.6294,-4.905,14.1913,-31.6522,-51.2696
535,-1.9543,-6.1696,-5.1732,14.7478,-33.8783,-53.0783
540,-2.4908,-5.748,-5.6714,14.1913,-36.0348,-54.1217
545,-3.0273,-5.2116,-6.0163,11.4087,-38.1217,-54.4
550,-3.4871,-4.7517,-6.2845,6.3304,-40.9043,-53.7739
555,-3.9087,-4.4068,-6.4761,-1.3913,-44.313,-52.5913
560,-3.9853,-4.1769,-6.6677,-11.9652,-47.513,-51.0609
565,-4.2152,-4.062,-6.6294,-24.9739,-49.5304,-48.8348
570,-4.062,-3.7171,-6.5528,-38.5391,-50.3652,-45.7739
575,-3.9087,-3.5638,-6.2462,-50.8522,-50.087,-42.5739
580,-3.5255,-3.3722,-5.7864,-60.4522,-49.4609,-39.9304
585,-3.2955,-3.3339,-5.2882,-66.2261,-48.6957,-37.2174
590,-2.3759,-3.4488,-5.0966,-67.4087,-47.3739,-32.9043
595,-0.843,-3.5638,-5.1349,-64.2783,-44.5913,-27.8261
600,0.8814,-3.7171,-5.5181,-57.3913,-39.6522,-23.5826
605,2.2226,-3.7554,-5.7864,-49.3913,-31.3739,-20.9391
610,3.2189,-3.9087,-6.2462,-41.3913,-18.9913,-18.0174
615,3.9853,-4.2919,-6.4761,-35.7565,-4.5913,-14.7478
620,4.5601,-4.905,-6.3229,-34.2261,8.487,-12.313
625,4.5601,-5.9013,-5.6714,-37.3565,17.5304,-12.1739
630,4.4452,-7.0126,-4.7517,-43.8957,21.4957,-13.913
635,4.4068,-8.3538,-4.1769,-53.0087,20.4522,-17.6696
640,4.2919,-9.6567,-4.3302,-63.8609,14.5391,-23.2348
645,4.1003,-10.8063,-5.6331,-75.7565,4.5913,-30.0522
650,3.9087,-11.4578,-7.7407,-88.7652,-7.0261,-36.9391
655,2.9507,-11.8027,-9.8483,-101.7043,-18.2261,-44.0348
660,1.8011,-11.9559,-11.2662,-113.0435,-29.1478,-51.4087
665,0.3066,-11.726,-11.7643,-121.4609,-39.3043,-56.8348
670,-1.073,-11.3811,-11.6111,-125.4261,-48.5565,-59.7565
675,-2.6058,-10.6914,-11.2279,-123.6174,-56.6261,-60.2435
680,-3.5638,-10.2315,-10.4998,-117.2174,-62.8174,-58.2957
685,-4.5984,-9.8866,-9.4268,-107.2696,-66.3652,-53.8435
690,-5.2499,-9.8866,-8.5071,-94.4,-66.7826,-46.6087
695,-5.6331,-10.0399,-7.7407,-79.3043,-64.487,-37.287
700,-5.9396,-10.5381,-7.0509,-62.2609,-60.3826,-27.2696
705,-5.9396,-11.0363,-7.0126,-44.2435,-55.3043,-18.0174
710,-5.6331,-11.6111,-7.0126,-27.4783,-50.5043,-11.5478
715,-4.9433,-12.3008,-7.5874,-13.6348,-48.0,-10.1565
720,-4.062,-12.6074,-8.2005,-3.687,-49.2522,-16.3478
725,-3.5638,-12.7223,-9.3118,2.2261,-53.8435,-29.7043
730,-3.1039,-12.6074,-10.3848,3.687,-59.8957,-47.3043
735,-2.6441,-12.0709,-11.0746,1.3913,-65.8783,-65.6
740,-2.6824,-11.4578,-11.3045,-2.713,-70.4696,-83.0609
745,-1.9543,-11.2279,-11.6877,-7.4435,-72.7652,-97.1826
750,-1.4945,-10.7297,-11.7643,-13.0087,-73.7391,-110.9565
755,-1.3029,-10.6147,-11.4961,-21.7739,-73.3913,-123.6174
760,-0.8047,-10.9979,-10.883,-34.1565,-70.6783,-132.1739
765,-0.5365,-11.726,-10.2315,-49.7391,-65.113,-136.7652
770,0.0383,-13.0289,-9.4268,-66.9217,-56.5565,-139.3391
775,0.6131,-14.6,-8.6604,-83.687,-47.1652,-140.7304
780,1.3029,-16.3245,-8.1239,-99.2696,-39.3043,-141.4957
785,1.8011,-17.8189,-7.6641,-111.8609,-34.5043,-141.913
790,2.5291,-19.0835,-7.8557,-119.7217,-33.8087,-142.1217
795,3.1039,-19.8882,-7.7407,-120.9739,-37.3565,-140.8
800,3.832,-20.1948,-7.8173,-114.087,-44.1043,-138.3652
805,4.5984,-20.1182,-8.2005,-98.6435,-52.6609,-134.1217
810,5.5181,-19.3901,-8.2389,-76.4522,-60.4522,-127.7217
815,6.0929,-18.3554,-8.2005,-49.6696,-65.1826,-120.3478
820,6.5911,-16.8226,-7.9323,-21.0087,-64.487,-112.1391
825,6.8593,-15.2898,-7.5108,7.513,-58.9217,-102.6087
830,6.8977,-13.6037,-6.5528,33.7391,-50.5739,-92.5913
835,7.0509,-12.1859,-5.8247,58.6435,-41.8783,-83.2
840,6.7444,-10.653,-5.5181,81.7391,-35.2696,-75.2
845,6.7061,-9.4268,-5.1349,101.9826,-31.3043,-68.8
850,6.5911,-8.4305,-4.9433,118.6783,-29.8435,-64.487
855,6.4761,-7.2809,-4.5601,132.1739,-30.2609,-61.4957
860,6.2462,-6.2079,-4.1769,143.1652,-31.8609,-58.9217
865,5.8247,-5.1732,-3.3339,152.6957,-34.5739,-55.5826
870,5.4032,-4.5218,-2.7207,161.5304,-37.0783,-52.3826
875,4.5601,-3.832,-2.2992,169.3217,-38.2609,-48.6261
880,3.6404,-3.2572,-2.1459,174.3304,-38.1217,-44.5217
885,2.4525,-2.7591,-2.1076,175.2348,-37.9826,-40.7652
890,1.073,-2.4525,-1.2646,171.2696,-38.9565,-36.5217
895,-0.5748,-2.2609,-0.4215,163.7565,-41.7391,-30.887
900,-2.1459,-2.2226,0.7281,156.2435,-44.5913,-24.0696
905,-3.2955,-2.2609,1.9543,151.3043,-47.0957,-16.3478
910,-4.1769,-2.3759,2.4908,150.2609,-48.4174,-8.487
915,-4.4452,-2.5675,2.9507,152.2783,-48.0696,-0.6957
920,-4.2536,-2.4908,2.6058,156.2435,-45.9826,5.5652
925,-3.9853,-2.0693,1.6861,160.1391,-41.7391,9.8783
930,-3.6404,-1.4179,0.4215,163.8261,-36.0348,12.1739
935,-3.6787,-0.2682,-1.2263,165.8435,-30.1913,11.687
940,-3.4105,1.1496,-2.9123,165.5652,-26.8522,9.7391
945,-3.6404,2.2609,-5.6331,160.6261,-27.4087,7.3043
950,-3.2955,3.2955,-8.2772,150.3304,-30.4696,5.2174
955,-2.989,4.7134,-11.1895,135.1652,-34.0174,3.9652
960,-2.2992,5.7097,-13.6804,114.1565,-35.3391,3.5478
965,-1.2646,6.2845,-15.7113,81.7391,-31.9304,3.7565
970,-0.4598,6.0546,-16.5544,35.2696,-24.1391,5.287
975,0.843,5.3648,-15.8646,-19.687,-13.4261,7.2348
980,2.6824,4.062,-14.4851,-74.2957,-2.0174,4.6609
985,3.9853,2.2992,-12.684,-120.4174,6.2609,-5.7043
990,4.4068,0.6131,-12.3008,-154.0174,7.3739,-21.0783
995,4.1769,-0.8814,-12.9523,-178.5739,-4.3826,-37.6348
1000,3.5638,-2.3759,-14.6384,-201.6696,-28.5217,-52.9391
1005,2.874,-4.3302,-16.4394,-227.8261,-54.6087,-64.2783
1010,2.989,-6.7827,-18.1255,-259.4087,-69.4957,-70.2609
1015,4.0236,-9.9633,-20.3098,-300.8,-67.7565,-75.687
1020,5.4798,-14.4851,-21.8809,-357.4261,-49.4609,-83.4087
1025,6.0929,-18.0105,-23.3754,-429.9826,-18.087,-92.1739
1030,3.2572,-19.3901,-21.536,-500.7304,21.5652,-94.1217
1035,-2.7591,-20.3098,-16.8609,-530.5739,59.8261,-77.913
1040,-7.4725,-23.8352,-12.5307,-494.4,78.5391,-53.0087
1045,-11.2662,-25.368,-12.1092,-402.087,68.313,-42.9217
1050,-13.2588,-25.5213,-14.1785,-288.3478,35.2,-42.1565
1055,-12.7223,-23.682,-16.9376,-180.5217,-8.1391,-39.4435
1060,-8.8903,-20.8079,-19.2368,-86.8174,-51.8261,-34.0174
1065,-5.978,-17.4357,-21.1911,-3.2696,-84.9391,-29.7043
1070,-4.4835,-14.6,-21.9575,71.513,-99.3391,-24.7652
1075,-3.7171,-12.4158,-21.8426,136.7652,-97.0435,-17.5304
1080,-3.2572,-10.4998,-20.6163,189.1478,-86.6087,-6.8174
1085,-2.6824,-9.1586,-18.8919,226.1565,-76.6609,6.3304
1090,-1.7244,-7.779,-17.1292,247.4435,-70.1217,18.713
1095,-0.6514,-6.5145,-15.4431,255.513,-66.2957,26.1565
1100,-0.2682,-5.1732,-13.9869,253.9826,-63.6522,27.1304
1105,0.115,-4.1003,-12.7607,245.7043,-61.0087,23.7217
1110,0.2299,-3.2189,-11.8793,230.0522,-57.8783,19.5478
1115,0.4215,-3.0273,-11.0363,206.1913,-54.1217,16.3478
1120,0.8814,-3.7554,-10.1932,174.6783,-49.1826,15.3739
1125,1.4179,-4.5984,-9.1969,138.1565,-43.0609,16.8348
1130,1.9927,-5.8247,-8.2772,101.0783,-35.7565,18.087
1135,2.7591,-7.0126,-7.5874,67.8261,-27.2,16.9739
1140,3.3722,-8.1622,-6.6677,42.1565,-19.4783,14.2609
1145,3.7171,-9.2352,-5.9396,25.113,-15.1652,12.8
1150,4.7134,-9.8483,-5.0583,16.0696,-14.4,13.4957
1155,4.3302,-10.4998,-4.9433,14.5391,-16.6957,14.6783
1160,4.2152,-10.768,-4.9433,17.8087,-20.5913,18.4348
1165,4.5601,-10.9596,-5.4798,21.2174,-24.2783,22.9565
1170,4.4835,-10.5381,-6.0163,20.4522,-24.7652,24.4174
1175,4.1386,-10.0016,-6.3995,15.3043,-20.9391,24.6957
1180,3.4871,-9.5034,-6.7827,5.4261,-14.3304,26.1565
1185,3.0273,-8.9286,-6.7827,-8.2087,-5.4261,29.2174
1190,2.1459,-8.3155,-6.4378,-23.513,4.6609,31.6522
1195,1.4562,-7.6257,-6.2079,-36.2435,13.913,32.9043
1200,0.6898,-7.1659,-6.4378,-46.5391,20.5913,34.5043
1205,0.0766,-6.5145,-6.7444,-55.9304,24.2087,36.1739
1210,0.0,-5.748,-7.0893,-64.3478,24.6261,36.8
1215,0.115,-5.2499,-7.1276,-71.513,22.4696,34.713
1220,-0.115,-5.02,-7.0893,-76.3826,19.6174,31.9304
1225,-0.5748,-5.0583,-6.5911,-77.4957,16.487,30.3304
1230,-0.8047,-5.4415,-6.3995,-74.0174,12.9391,30.1913
1235,-0.958,-6.0546,-6.0546,-66.2957,9.6696,32.2087
1240,-0.8047,-6.821,-5.7864,-54.0522,7.5826,35.9652
1245,-0.843,-7.5491,-5.4032,-37.8435,7.2348,40.6261
1250,-0.958,-8.3538,-5.1349,-18.3652,8.2087,45.7043
1255,-0.9963,-8.9286,-4.7134,2.8522,10.0174,51.4783
1260,-1.2646,-9.3502,-4.3685,25.2522,12.5217,57.3913
1265,-1.2263,-9.4268,-4.0236,48.1391,15.8609,63.5826
1270,-1.1879,-9.3118,-3.6787,71.3043,20.3826,68.4522
1275,-1.3412,-9.1586,-3.0656,94.6087,26.2957,71.9304
1280,-1.1879,-8.5071,-2.4525,117.913,32.6957,74.5739
1285,-0.6131,-8.0089,-2.5291,140.2435,39.6522,76.9391
1290,-0.2299,-7.5491,-2.0693,160.9739,46.7478,78.5391
1295,-0.0383,-6.936,-1.8777,178.5739,52.9391,77.7739
1300,-0.1533,-6.3229,-1.8394,192.3478,58.087,76.5913
1305,0.115,-5.5948,-1.6861,202.713,62.6087,75.7565
1310,0.4598,-4.8284,-1.6095,209.1826,65.6696,75.0609
1315,0.9963,-4.062,-1.4945,211.4783,67.9652,74.2261
1320,1.6478,-3.2572,-1.7244,209.7391,71.2348,72.2783
1325,2.1843,-2.4525,-1.6095,204.4522,76.313,68.2435
1330,2.874,-2.0693,-1.4562,195.7565,82.7826,62.4
1335,3.2955,-1.5711,-1.5328,183.7217,90.1565,55.0957
1340,3.4105,-1.2646,-1.2646,169.8783,97.5304,46.887
1345,3.3722,-1.1879,-1.1496,155.8261,104.0696,38.5391
1350,3.3722,-1.073,-1.3029,140.9391,107.9652,31.0957
1355,3.0273,-1.1879,-1.5711,124.3826,107.1304,22.9565
1360,2.2609,-0.958,-1.9927,106.4348,100.8,13.7043
1365,1.8011,-1.0346,-2.4525,86.7478,89.3217,4.2435
1370,1.3029,-0.7281,-3.5255,64.3478,74.087,-4.1739
1375,0.5365,-0.5748,-4.5218,39.7217,57.9478,-11.6174
1380,-0.4215,-0.4982,-5.5564,12.9391,43.3391,-15.3739
1385,-0.9963,-0.6898,-6.5911,-14.5391,32.9043,-16.1391
1390,-1.8011,-1.0346,-7.2042,-43.3391,26.4348,-16.5565
1395,-2.4142,-1.7244,-7.6257,-71.8609,26.0174,-14.887
1400,-2.9507,-3.1039,-7.3192,-99.687,34.087,-8.4174
1405,-3.8704,-4.79,-7.0893,-124.2435,48.3478,1.2522
1410,-4.5218,-6.9743,-6.6294,-143.8609,64.0,13.7043
1415,-4.8284,-8.9286,-5.6714,-157.913,76.6609,26.713
1420,-5.0583,-10.6914,-4.9816,-164.9391,83.0609,37.2174
1425,-5.02,-12.4924,-4.3685,-165.2174,82.9217,44.5913
1430,-5.02,-13.9103,-3.9087,-157.9826,77.6348,48.3478
1435,-4.79,-15.2132,-3.6021,-144.487,67.687,50.5739
1440,-4.2152,-16.2095,-3.6404,-126.8174,53.3565,54.2609
1445,-3.2189,-16.8609,-3.9087,-104.2783,35.5478,57.3913
1450,-2.3375,-16.8609,-4.5218,-77.7739,16.6261,58.4348
1455,-0.7664,-16.2861,-5.0966,-49.0435,-0.0696,57.6
1460,0.5748,-15.2898,-5.6714,-19.2,-11.7565,54.4
1465,2.031,-13.9869,-5.9013,11.7565,-16.9043,49.113
1470,3.3722,-12.4924,-6.0546,43.1304,-15.0261,43.3391
1475,3.947,-11.4195,-6.3612,73.6696,-7.3739,36.8696
1480,3.7937,-10.3082,-6.5145,102.1217,3.8261,29.6348
1485,3.3339,-9.3885,-6.821,126.4696,15.5826,22.4696
1490,2.989,-8.5071,-7.8173,144.0,26.0174,16.5565
1495,2.4908,-7.8173,-9.3885,152.487,34.0174,12.0348
1500,2.3375,-7.0893,-10.8446,150.4,39.9304,7.513
1505,1.7627,-6.2462,-12.4158,137.8087,44.8,2.1565
1510,1.1113,-5.2882,-13.8336,116.1739,49.4609,-4.8
1515,0.115,-4.5984,-14.6,88.487,54.6783,-12.1739
1520,-1.1113,-4.2536,-15.0599,57.6,60.9391,-17.3913
1525,-2.4142,-4.6368,-14.6767,25.3217,68.313,-17.6
1530,-3.0273,-6.2079,-13.757,-6.7478,75.9652,-10.8522
1535,-2.6441,-8.2005,-12.3775,-35.9652,81.8087,1.1826
1540,-1.5328,-10.5381,-10.2315,-57.8783,83.687,14.8174
1545,-1.1113,-12.3008,-8.1622,-66.3652,81.8087,26.087
1550,-0.8814,-13.9869,-6.2079,-57.8783,77.3565,34.5739
1555,-0.6131,-14.7916,-4.5984,-35.4087,71.0261,40.6957
1560,-0.3066,-14.9066,-3.6787,-2.9913,63.0957,44.1043
1565,0.4215,-14.2552,-3.9853,31.8609,54.0522,45.6348
1570,1.1113,-12.9523,-4.9433,59.4087,44.5913,44.6609
1575,1.4945,-11.4961,-6.2845,74.2261,36.8,41.3913
1580,1.7627,-9.6184,-7.1276,75.6174,32.0696,38.5391
1585,1.3795,-8.2389,-7.7407,66.4348,29.9826,35.4783
1590,0.7664,-7.2809,-8.2005,50.713,30.4696,32.3478
1595,0.5748,-6.7444,-8.2772,33.1826,33.0435,29.287
1600,0.115,-6.3995,-8.0856,17.4609,36.5913,26.3652
1605,0.0,-6.5528,-7.894,5.287,40.4174,24.0
1610,0.0383,-7.0126,-7.5874,-2.3652,44.8,22.1913
1615,0.1533,-7.6257,-7.1276,-5.7043,49.4609,20.0348
1620,0.2682,-8.0856,-6.7444,-5.1478,54.6087,16.7652
1625,0.1916,-8.5838,-6.1696,-1.3913,59.6174,12.1739
1630,0.0766,-8.737,-5.9013,5.1478,63.513,6.1913
1635,-0.1533,-8.8903,-5.7864,13.287,65.4609,0.0696
1640,-0.1916,-9.0819,-5.7097,24.0,65.3217,-6.4
1645,-0.4982,-9.2352,-5.4798,32.487,63.513,-12.8
1650,-0.1533,-9.3118,-5.748,40.0696,61.0087,-18.9217
1655,-0.0383,-9.2735,-5.9013,45.4261,58.1565,-25.8783
1660,-0.115,-9.1202,-6.0929,47.1652,55.5826,-31.3739
1665,-0.115,-8.967,-6.3612,45.5652,53.4261,-34.9217
1670,-0.1533,-8.8903,-6.6294,41.6696,51.8261,-37.0783
1675,-0.4215,-8.6604,-6.7444,36.1739,51.1304,-38.4696
1680,-0.5748,-8.2772,-6.7061,29.3565,50.7826,-39.3739
1685,-0.6131,-7.9323,-6.8593,22.2609,50.6435,-39.6522
1690,-0.7664,-8.0089,-6.5528,15.6522,50.1565,-39.5826
1695,-1.0346,-7.1659,-6.6294,10.2261,49.2522,-38.9565
1700,-1.2263,-6.8977,-6.821,5.7739,47.8609,-37.7739
1705,-1.3029,-6.4761,-6.2845,1.8783,45.4261,-35.6174
1710,-1.3412,-6.2079,-5.863,-0.2087,42.3652,-33.8087
1715,-1.3412,-5.978,-5.6714,0.0,38.4696,-32.0696
1720,-1.2646,-5.9013,-5.3265,2.087,33.6696,-29.5652
1725,-1.073,-5.9013,-5.0966,5.287,28.313,-26.713
1730,-0.843,-6.0163,-4.6751,9.5304,22.6087,-24.0
1735,-0.6131,-6.0163,-4.4835,13.7739,17.0435,-21.5652
1740,-0.2299,-6.3229,-4.3685,17.6696,11.7565,-19.7565
1745,0.0,-6.3229,-4.1769,20.8696,7.1652,-18.4348
1750,0.3066,-6.3612,-4.1003,22.5391,3.2,-17.4609
1755,0.6131,-6.4761,-4.2919,22.1913,-0.2087,-16.5565
1760,0.7664,-6.5528,-4.4835,19.8957,-3.1304,-15.9304
1765,0.8814,-6.6677,-4.4452,16.2087,-5.6348,-15.513
1770,0.9963,-6.936,-4.5218,11.4783,-7.6522,-15.5826
1775,1.1113,-7.0509,-4.4068,5.8435,-9.0435,-15.8609
1780,0.9963,-7.1276,-4.5218,-0.8348,-10.2957,-16.2087
1785,0.958,-7.3575,-4.5218,-7.9304,-11.4087,-16.487
1790,0.958,-7.6641,-4.5984,-15.4435,-12.5913,-16.8348
1795,0.8814,-7.8173,-4.4068,-22.3304,-13.0783,-17.113
1800,0.7664,-8.1239,-4.0236,-27.6174,-13.4261,-17.113
1805,0.9197,-8.5454,-3.9087,-30.6783,-13.3565,-17.2522
1810,0.9963,-8.852,-3.5638,-30.8174,-13.0087,-17.3913
1815,0.843,-9.1586,-3.3722,-28.313,-13.0087,-17.4609
1820,0.9963,-9.4268,-3.3339,-23.7217,-13.7043,-17.1826
1825,0.843,-9.4268,-3.6021,-18.0174,-14.9565,-16.6261
1830,0.8814,-9.3502,-3.947,-12.2435,-16.487,-15.6522
1835,0.958,-9.1586,-4.1003,-7.0957,-17.2522,-14.0522
1840,0.958,-9.1202,-4.3302,-3.1304,-16.8348,-12.2435
1845,0.8047,-8.852,-4.5601,0.3478,-15.5826,-10.2957
1850,0.6131,-8.5071,-4.4452,3.4087,-14.1913,-8.1391
1855,0.4215,-8.5071,-4.3302,6.3304,-13.7043,-6.0522
1860,0.3066,-8.3921,-4.1386,9.3217,-14.6087,-3.8261
1865,0.1916,-8.5071,-3.832,11.8957,-16.9739,-1.3913
1870,0.0766,-8.5454,-3.6787,13.8435,-19.8261,0.9739
1875,0.115,-8.852,-3.7554,14.5391,-22.9565,3.2
1880,0.0383,-8.9286,-3.832,14.0522,-25.3217,5.2174
1885,0.0,-9.3502,-3.832,12.1739,-26.9913,6.9565
1890,0.115,-9.6184,-3.9087,8.8348,-27.7565,8.1391
1895,0.3449,-9.925,-3.7554,4.8696,-27.687,8.9043
1900,0.3066,-10.3465,-3.8704,0.6957,-26.7826,9.113
1905,0.4982,-10.6147,-4.1386,-2.713,-25.4609,8.7652
1910,0.7281,-10.9596,-3.7554,-5.1478,-23.8609,7.9304
1915,0.8814,-11.1512,-4.2919,-6.5391,-21.9826,6.4
1920,1.0346,-11.3045,-4.3685,-6.6783,-20.0348,4.0348
1925,1.1879,-11.4195,-4.4452,-5.8435,-18.2957,1.3217
1930,1.3795,-11.3811,-4.4452,-3.687,-16.9043,-1.6696
1935,1.3029,-11.3428,-4.2536,-0.5565,-16.1391,-4.8
1940,1.2263,-11.1895,-4.0236,3.8957,-16.0696,-7.7913
1945,1.0346,-10.9596,-3.7554,9.3217,-16.7652,-10.2957
1950,1.1113,-10.8446,-3.5638,15.6522,-18.2261,-12.5217
1955,0.7281,-10.3848,-3.4105,22.5391,-19.8957,-14.1913
1960,0.8047,-9.8866,-3.0656,29.3565,-21.4261,-15.1652
1965,0.9197,-9.8483,-3.0656,35.7565,-22.5391,-15.4435
1970,0.9197,-9.4268,-3.2572,40.8348,-23.2348,-14.887
1975,1.073,-9.1969,-3.3722,43.6174,-23.513,-13.7043
1980,0.843,-8.967,-4.0236,43.1304,-23.4435,-12.6609
1985,0.6514,-8.6987,-4.79,38.3304,-23.0957,-11.4087
1990,0.6898,-8.5454,-5.5948,29.1478,-22.1913,-9.6696
1995,0.8047,-8.6987,-6.0929,15.4435,-20.4522,-7.7217
2000,1.1113,-9.0053,-6.4761,-1.6,-17.5304,-6.1217
2005,1.3795,-9.5034,-6.5528,-19.4783,-13.6348,-5.287
2010,1.6861,-10.0399,-6.5145,-35.7565,-9.4609,-4.8
2015,1.8777,-10.768,-6.3995,-48.7652,-5.6348,-4.3826
2020,1.8011,-11.3045,-6.2079,-57.2522,-2.6435,-4.0348
2025,2.1076,-11.9559,-5.978,-60.8,-0.8348,-4.1043
2030,2.1843,-12.4541,-6.0929,-58.8522,0.0,-4.7304
2035,2.3759,-12.5691,-6.0163,-52.2435,0.2087,-5.8435
2040,2.6058,-12.7223,-6.1696,-41.4609,0.487,-7.0261
2045,2.9123,-12.3008,-6.1313,-28.1043,1.7391,-8.0696
2050,2.7974,-11.726,-6.3229,-13.7739,4.4522,-8.6957
2055,2.5675,-11.2279,-6.4761,-0.8348,8.0,-8.9043
2060,2.2226,-10.4998,-6.6677,9.7391,11.6174,-8.6261
2065,1.8777,-9.9633,-6.5528,16.7652,14.0522,-8.0696
2070,1.4179,-9.4651,-6.7444,20.3826,14.8174,-7.7913
2075,1.1496,-9.1969,-6.7061,21.1478,14.1217,-7.3739
2080,0.5748,-8.737,-6.6294,20.3826,12.1739,-6.6783
2085,0.115,-8.3538,-6.6294,19.1304,9.3217,-5.5652
2090,-0.4982,-8.2005,-6.3995,18.5739,5.9826,-3.9652
2095,-0.7664,-7.894,-6.2845,18.8522,2.3652,-1.9478
2100,-1.2263,-7.894,-5.9396,20.1739,-1.3217,0.487
2105,-1.7244,-7.6257,-5.748,22.3304,-4.7304,3.2
2110,-2.0693,-7.5108,-5.6714,25.1826,-7.513,5.913
2115,-2.4525,-7.3192,-5.6331,28.313,-9.7391,8.6261
2120,-2.8357,-7.0893,-5.4032,31.4435,-11.4783,11.6174
2125,-2.8357,-7.2042,-5.1349,33.6696,-13.0087,14.1217
2130,-2.9507,-6.8977,-5.0966,34.9913,-14.8174,16.3478
2135,-2.989,-6.7827,-5.1349,34.9913,-16.7652,18.4348
2140,-2.9507,-6.5528,-5.0583,33.113,-18.9217,20.1739
2145,-2.7591,-6.5145,-5.02,29.2174,-21.0783,21.7043
2150,-2.2609,-6.5528,-5.0583,22.887,-22.6783,22.6087
2155,-1.7627,-6.5528,-5.1349,13.9826,-23.3739,22.9565
2160,-1.3029,-6.8593,-5.2116,3.1304,-23.3739,22.8174
2165,-0.7281,-6.936,-5.2882,-9.0435,-22.8174,22.0522
2170,-0.3449,-7.1659,-5.4415,-21.7739,-22.1913,20.8696
2175,-0.0766,-7.5108,-5.2499,-33.8783,-21.6348,19.4783
2180,0.3832,-7.779,-5.2499,-44.4522,-21.0087,17.9478
2185,0.5365,-8.1239,-5.2882,-52.9391,-20.1739,16.4174
2190,0.5365,-8.4305,-4.9816,-58.9913,-18.9913,15.0261
2195,0.4982,-8.852,-4.8284,-61.9826,-17.7391,13.7739
2200,0.3832,-9.0053,-4.6368,-62.2609,-16.5565,12.9391
2205,0.3832,-9.3118,-4.4835,-60.313,-15.3739,12.3826
2210,0.3066,-9.5034,-4.4835,-56.6957,-14.4696,12.313
2215,-0.0383,-9.5801,-4.4835,-52.0348,-13.8435,12.6609
2220,0.0383,-9.6567,-4.5984,-47.0957,-13.6348,13.4957
2225,-0.1533,-9.9633,-4.5601,-42.2957,-13.7043,14.7478
2230,-0.115,-9.925,-4.6368,-37.7739,-14.2609,16.2783
2235,-0.3066,-10.2315,-4.905,-33.9478,-15.2348,18.087
2240,-0.5365,-10.2698,-5.0583,-30.3304,-16.487,19.9652
2245,-0.5748,-10.3848,-5.1732,-26.713,-17.9478,22.1217
2250,-0.5748,-10.5381,-4.905,-22.6087,-19.4783,24.2783
2255,-0.6131,-10.5764,-4.7134,-16.3478,-20.5913,26.2261
2260,-0.6131,-10.7297,-4.6368,-8.2087,-21.4957,28.0348
2265,-0.7664,-10.8446,-4.2152,1.3217,-22.1913,29.913
2270,-0.6898,-10.6914,-4.2152,11.4087,-22.8174,31.5826
2275,-0.5748,-10.4998,-3.9087,21.7043,-23.3739,32.9043
2280,-0.6131,-10.1932,-3.8704,31.513,-23.513,34.0174
2285,-0.6131,-9.9633,-3.7554,40.5565,-23.2348,34.9217
2290,-0.6131,-9.5801,-3.7171,48.9739,-22.2609,35.6174
2295,-0.7281,-9.1969,-3.6787,56.0,-21.1478,35.9652
2300,-0.6514,-8.8903,-3.5638,61.2174,-19.5478,36.1739
2305,-0.843,-8.4688,-3.7937,64.487,-18.0174,35.9652
2310,-0.9963,-8.0473,-3.832,65.2522,-16.487,35.4783
2315,-1.073,-7.6641,-3.7171,63.3739,-15.1652,34.8522
2320,-0.9963,-7.4725,-3.7171,59.2,-14.2609,34.087
2325,-1.1496,-7.2809,-3.6021,53.1478,-13.5652,33.1826
2330,-0.9963,-7.2042,-3.4105,45.913,-13.2174,32.0
2335,-0.9197,-7.2042,-3.3339,38.3304,-12.9391,30.7478
2340,-1.4562,-7.6257,-3.0656,30.6783,-12.4522,29.6348
2345,-0.7281,-7.3575,-2.9507,23.5826,-11.4087,28.5913
2350,-0.5748,-7.5491,-2.8357,17.1826,-9.8783,27.2696
2355,-0.5365,-7.7024,-2.6441,11.8957,-7.9304,26.2261
2360,-0.4215,-7.8173,-2.4525,7.8609,-5.913,25.4609
2365,-0.3066,-7.8557,-2.4142,5.0783,-3.7565,24.7652
2370,-0.2682,-8.1239,-2.2992,3.2696,-1.7391,24.2087
2375,-0.3449,-8.1622,-2.1843,2.0174,0.2087,23.5826
2380,-0.3066,-8.1239,-2.2609,1.3217,1.6,23.1652
2385,-0.1533,-8.2772,-2.2226,1.113,2.7826,22.5391
2390,-0.2299,-8.3155,-2.2609,1.113,4.0348,21.8435
2395,-0.3832,-8.2389,-2.2226,1.3913,5.0783,21.1478
2400,-0.4215,-8.3538,-2.1843,1.6696,6.4,20.4522
2405,-0.5365,-8.3921,-2.2226,2.4348,8.0,19.8261
2410,-0.6131,-8.6221,-2.1076,3.2696,10.087,19.1304
2415,-0.6131,-8.6604,-1.8394,4.5913,12.4522,18.2261
2420,-0.5748,-8.7754,-1.916,6.1913,14.9565,17.1826
2425,-0.6131,-8.737,-1.7244,8.0696,17.7391,15.513
2430,-0.6131,-8.6604,-1.8777,10.4348,20.313,13.913
2435,-0.6131,-8.737,-1.8777,12.8696,22.4696,12.1043
2440,-0.8047,-8.6604,-2.0693,14.9565,23.9304,10.1565
2445,-0.8814,-8.7754,-2.031,16.6957,24.7652,8.3478
2450,-0.9197,-8.7754,-2.1459,17.3913,25.113,6.7478
2455,-0.9963,-8.6604,-2.4142,16.5565,25.6696,5.4261
2460,-0.8814,-8.5838,-2.8357,14.1913,26.8522,4.0348
2465,-0.8814,-8.737,-3.1423,10.1565,28.3826,2.7826
2470,-0.8047,-8.7754,-3.5255,4.9391,30.1217,1.1826
2475,-0.958,-8.6987,-3.6404,-0.6261,31.7217,-0.0696
2480,-1.0346,-8.737,-3.7554,-6.1217,33.0435,-1.113
2485,-0.9963,-8.8137,-3.7171,-10.8522,33.8087,-2.1565
2490,-0.9963,-8.967,-3.7937,-14.9565,33.9478,-2.9217
2495,-1.0346,-9.1202,-3.6404,-17.9478,33.3217,-3.4783
2500,-1.1496,-9.2735,-3.7171,-20.1739,32.1391,-3.8957
2505,-1.3412,-9.4651,-3.4871,-21.5652,30.2609,-4.1739
2510,-1.6478,-9.695,-3.3339,-21.8435,27.8261,-3.8957
2515,-1.8011,-10.0399,-3.3722,-21.4261,25.2522,-2.9913
2520,-1.9543,-10.6147,-3.1806,-20.6609,22.7478,-1.9478
2525,-2.1843,-10.9979,-3.0273,-19.6174,20.5913,-0.6261
2530,-2.4908,-11.4195,-2.7974,-18.087,18.8522,1.2522
2535,-2.4908,-11.9559,-2.6441,-15.7217,17.4609,3.2696
2540,-2.5675,-12.3775,-2.3375,-12.1739,16.2783,5.4261
2545,-2.6824,-12.7607,-2.1459,-7.4435,14.887,7.513
2550,-2.5675,-13.1055,-2.1459,-1.6696,13.4261,9.8087
2555,-2.6441,-13.1055,-2.4525,5.0087,12.0348,12.2435
2560,-2.5675,-13.2971,-2.2992,12.3826,10.6435,14.0522
2565,-2.4525,-13.2971,-2.5675,20.1739,9.6696,15.0957
2570,-2.4142,-13.1822,-2.5675,27.8261,8.6261,15.7913
2575,-2.2992,-12.8756,-3.1423,34.2957,7.5826,16.2783
2580,-2.4525,-12.4541,-3.7171,38.6783,6.8174,16.4174
2585,-2.4908,-12.1859,-4.6368,40.0,6.4,16.3478
2590,-2.4908,-11.8027,-5.02,37.4957,6.2609,16.2087
2595,-2.1843,-11.5727,-5.748,30.8174,6.6087,16.0696
2600,-2.0693,-11.3428,-6.0546,21.2174,7.5826,15.2348
2605,-1.916,-11.3811,-6.1313,11.2696,8.7652,13.8435
2610,-2.2226,-11.7643,-6.4378,2.2261,10.0174,12.5217
2615,-2.4908,-12.2242,-6.3612,-5.0783,10.4348,12.0348
2620,-2.2226,-12.7223,-5.978,-9.4609,9.0435,11.9652
2625,-1.8394,-13.2205,-5.7097,-9.6696,6.4,11.4783
2630,-1.3795,-13.6037,-5.4032,-4.9391,3.6174,10.2957
2635,-1.1496,-13.5271,-5.3265,4.3826,1.6,8.5565
2640,-1.0346,-13.1055,-5.2116,17.1826,-0.4174,6.4
2645,-0.8814,-12.6457,-5.4415,31.2348,-2.8522,3.6174
2650,-0.7281,-11.7643,-5.8247,44.0348,-5.2174,0.7652
2655,-0.4598,-10.5764,-6.1696,54.887,-6.8174,-1.8087
2660,-0.3449,-9.3885,-6.7061,62.2609,-6.8174,-4.7304
2665,-0.0383,-7.894,-7.0126,65.113,-5.8435,-8.0
2670,-0.1916,-6.821,-7.1276,62.887,-4.3826,-10.5739
2675,-0.3832,-5.8247,-6.936,55.8609,-2.7826,-11.8261
2680,-0.4215,-5.2499,-6.6294,44.8696,-1.2522,-11.4087
2685,-0.4215,-5.2116,-6.2845,31.3043,0.0,-10.3652
2690,-0.2299,-5.5564,-6.4378,16.2783,0.6957,-9.6696
2695,-0.0766,-6.0546,-6.4761,1.1826,1.6,-9.3913
2700,0.0766,-6.8593,-6.4761,-12.6609,3.4783,-9.6
2705,0.115,-7.2425,-6.0163,-23.0261,6.0522,-10.087
2710,0.1533,-7.9323,-5.4798,-28.6609,8.0,-10.6435
2715,0.1533,-8.1622,-5.02,-29.9826,8.6261,-10.9913
2720,0.1916,-8.4688,-4.9433,-27.687,7.513,-11.687
2725,0.0383,-8.5454,-4.9816,-24.3478,5.287,-12.313
2730,0.0383,-8.6604,-5.02,-21.7043,2.9913,-13.1478
2735,-0.0766,-8.6221,-5.2882,-21.3565,1.3217,-14.2609
2740,0.0383,-8.9286,-5.3648,-23.7913,0.6957,-15.2348
2745,-0.0383,-9.1202,-5.4798,-28.313,0.9739,-16.8348
2750,-0.0383,-9.4651,-5.4415,-33.8783,1.4609,-18.5043
2755,0.1533,-9.81,-5.2116,-39.0957,2.087,-20.313
2760,0.0,-9.9633,-5.2116,-42.9913,2.4348,-22.1913
2765,-0.115,-10.2315,-5.02,-45.5652,2.4348,-24.2087
2770,-0.1916,-10.3082,-5.02,-46.6783,2.2957,-26.2957
2775,0.0383,-10.3465,-4.7517,-46.0522,2.2261,-28.3826
2780,0.115,-10.1549,-4.8667,-43.687,2.6435,-30.2609
2785,0.2682,-9.8483,-4.8284,-39.9304,3.4087,-31.8609
2790,0.1533,-9.5034,-4.6751,-34.9217,4.1043,-33.0435
2795,0.2682,-9.2735,-4.6368,-29.3565,4.8,-34.087
2800,0.3832,-8.8903,-4.5218,-23.5826,5.7043,-34.8522
2805,0.3066,-8.5071,-4.3685,-17.9478,6.6087,-35.4783
2810,0.3449,-8.2005,-4.2919,-12.3826,7.4435,-36.1739
2815,0.2682,-7.8557,-3.947,-7.0261,8.1391,-36.9391
2820,0.2682,-7.3958,-3.832,-2.087,8.7652,-37.4261
2825,0.3832,-7.1276,-3.6787,1.4609,9.3913,-37.913
2830,0.3449,-6.8977,-3.6787,3.687,10.3652,-38.4696
2835,0.4215,-6.6294,-3.6021,4.3826,11.8957,-38.4
2840,0.3832,-6.5528,-3.7171,3.1304,13.913,-37.9826
2845,0.3832,-6.5528,-3.4488,0.0696,15.8609,-37.2174
2850,0.3449,-6.5145,-3.3339,-4.9391,17.5304,-36.1739
2855,0.3832,-6.5528,-3.1806,-11.0609,18.2957,-35.0609
2860,0.4598,-6.5145,-3.1806,-17.9478,18.1565,-33.8783
2865,0.4982,-6.7061,-3.1423,-24.8348,17.1826,-32.6261
2870,0.5365,-6.7827,-3.0656,-31.9304,16.0,-31.4435
2875,0.5748,-6.9743,-2.874,-38.2609,14.6087,-29.8435
2880,0.6514,-7.4725,-2.6441,-44.313,12.8696,-28.3826
2885,0.4982,-7.5874,-2.874,-49.6696,10.6435,-27.0609
2890,0.4215,-7.8557,-2.989,-54.0522,8.4174,-25.7391
2895,0.3832,-8.0856,-2.8357,-57.2522,6.4,-24.6957
2900,0.3449,-8.3155,-2.7974,-59.3391,4.9391,-23.8609
2905,0.3449,-8.5838,-2.7591,-60.1043,4.1043,-23.3043
2910,0.3832,-8.8137,-2.4908,-59.8261,3.3391,-22.887
2915,0.3832,-9.0053,-2.5675,-58.9217,1.8783,-22.4696
2920,0.3066,-9.1586,-2.6824,-57.8087,-0.3478,-22.3304
2925,0.3832,-9.3118,-2.9123,-56.6957,-3.1304,-22.1217
2930,0.5365,-9.5801,-3.2189,-55.9304,-5.9826,-21.8435
2935,0.6131,-9.5418,-3.6404,-54.8174,-8.487,-21.4261
2940,0.7281,-9.7334,-3.7554,-52.8,-10.0174,-21.0087
2945,0.7664,-9.7334,-3.5255,-49.3217,-10.9217,-20.2435
2950,0.7664,-9.81,-3.4105,-43.4783,-11.2696,-19.2
2955,0.6898,-9.7717,-3.3339,-35.4783,-11.687,-18.3652
2960,0.7281,-9.5801,-3.2955,-26.087,-11.9652,-17.5304
2965,0.6898,-9.3885,-3.3722,-16.4174,-12.3826,-16.8348
2970,0.5365,-9.0436,-3.3339,-7.513,-12.7304,-16.0
2975,0.5748,-8.737,-3.3339,-0.2783,-13.2174,-15.3043
2980,0.3832,-8.3155,-3.2572,5.287,-13.8435,-14.7478
2985,0.2682,-8.1622,-2.9507,9.1826,-14.7478,-14.0522
2990,0.0766,-8.1239,-3.1806,11.8957,-15.8609,-12.8
2995,0.2299,-7.7407,-2.4908,13.1478,-17.3217,-11.4087
