timestamp,accX,accY,accZ,gyroX,gyroY,gyroZ
0,0.958,-9.7717,0.4598,-1.2522,3.9652,0.487
5,1.1496,-9.7334,0.4982,-0.9739,4.0348,0.5565
10,1.1496,-9.7334,0.7281,-0.8348,4.1043,0.6957
15,1.1496,-9.7717,0.5365,-0.5565,3.9652,0.6957
20,1.1113,-9.7717,0.6131,-0.487,3.9652,0.7652
25,1.1113,-9.695,0.5748,-0.2087,3.9652,0.8348
30,1.073,-9.6184,0.4982,-0.1391,4.0348,0.9739
35,1.1879,-9.695,0.4982,-0.1391,4.0348,0.8348
40,1.0346,-9.6184,0.6514,-0.2087,3.8957,1.0435
45,1.0346,-9.6567,0.4982,-0.3478,3.8957,0.6261
50,0.9963,-9.5034,0.4215,-0.3478,3.7565,0.5565
55,0.8814,-9.5801,0.4215,-0.3478,3.6174,0.4174
60,1.073,-9.6567,0.4982,-0.3478,3.5478,0.3478
65,1.0346,-9.6567,0.6131,-0.4174,3.4783,0.1391
70,0.8814,-9.5418,0.5748,-0.4174,3.3391,0.1391
75,1.073,-9.6567,0.4982,-0.5565,3.2,-0.0696
80,0.9963,-9.6567,0.5365,-0.487,3.1304,0.0696
85,0.9197,-9.6184,0.5748,-0.4174,3.0609,-0.0696
90,1.0346,-9.6567,0.3832,-0.4174,3.1304,0.0696
95,0.8814,-9.5418,0.6131,-0.2783,3.1304,0.0
100,0.8047,-9.5801,0.4982,-0.3478,3.0609,0.1391
105,0.8814,-9.5801,0.6514,-0.3478,3.0609,0.0
110,0.9197,-9.6184,0.5748,-0.4174,2.9913,0.1391
115,1.0346,-9.695,0.4598,-0.3478,2.9217,0.1391
120,0.9197,-9.6184,0.5365,-0.2783,2.7826,0.4174
125,0.9963,-9.7334,0.3832,-0.1391,2.5739,0.2783
130,0.9197,-9.695,0.4215,-0.0696,2.5739,0.4174
135,1.0346,-9.6567,0.6898,-0.0696,2.5043,0.2783
140,1.073,-9.7717,0.5365,0.0696,2.2957,0.5565
145,1.073,-9.6567,0.6131,0.0,2.0174,0.4174
150,0.9197,-9.7334,0.4598,0.2087,1.9478,0.5565
155,0.958,-9.6567,0.4982,0.2783,1.8087,0.487
160,0.9963,-9.81,0.4982,0.4174,1.7391,0.6957
165,0.9963,-9.7334,0.6131,0.6261,1.6,0.487
170,0.843,-9.6567,0.4982,0.6261,1.4609,0.6261
175,0.9963,-9.695,0.5748,0.6261,1.3217,0.487
180,0.9963,-9.7334,0.4598,0.7652,1.2522,0.7652
185,1.0346,-9.6567,0.5748,0.9739,1.2522,0.6261
190,1.1496,-9.81,0.4598,1.113,1.3913,0.7652
195,1.1879,-9.695,0.4598,1.0435,1.4609,0.5565
200,1.0346,-9.7334,0.3832,1.113,1.6,0.7652
205,1.1113,-9.7334,0.5748,1.113,1.7391,0.5565
210,1.0346,-9.695,0.5365,1.0435,1.8087,0.6261
215,1.1113,-9.695,0.6131,1.0435,1.8087,0.3478
220,1.1496,-9.6567,0.3832,1.0435,1.9478,0.487
225,1.1496,-9.695,0.4982,0.9739,2.087,0.2783
230,1.1496,-9.7717,0.4982,0.9043,2.2261,0.3478
235,0.9963,-9.5801,0.4215,0.8348,2.5739,0.0696
240,1.2263,-9.81,0.3832,0.8348,2.713,0.0696
245,1.2263,-9.6184,0.4598,0.6957,2.9217,-0.2087
250,1.1113,-9.695,0.3832,0.487,3.2,-0.1391
255,1.2263,-9.7717,0.5365,0.2783,3.3391,-0.487
260,1.0346,-9.6567,0.5365,0.1391,3.4087,-0.487
265,1.0346,-9.7334,0.5365,0.0,3.6174,-0.7652
270,1.073,-9.7334,0.4982,-0.2087,3.5478,-0.7652
275,1.0346,-9.7334,0.5748,-0.2087,3.4087,-0.9043
280,1.0346,-9.7334,0.4598,-0.2087,3.3391,-0.8348
285,0.958,-9.7334,0.5365,-0.1391,3.3391,-0.9043
290,1.073,-9.81,0.4598,-0.2087,3.1304,-0.5565
295,0.958,-9.695,0.4598,-0.1391,3.1304,-0.5565
300,0.958,-9.6567,0.6131,-0.0696,2.9913,-0.2783
305,0.8814,-9.6184,0.4982,-0.2087,2.9217,-0.3478
310,0.843,-9.5801,0.4982,-0.2087,2.8522,-0.1391
315,0.8814,-9.7717,0.5748,-0.1391,2.713,-0.2087
320,1.0346,-9.695,0.6131,0.1391,2.5043,-0.1391
325,0.958,-9.7717,0.6514,0.3478,2.5043,-0.2087
330,0.9963,-9.7334,0.6131,0.5565,2.4348,0.0
335,0.9963,-9.7717,0.7664,0.6261,2.5043,-0.0696
340,0.9963,-9.7334,0.4215,0.6957,2.5739,0.2087
345,0.9963,-9.7717,0.5748,0.8348,2.6435,0.2087
350,1.1496,-9.6567,0.6131,0.7652,2.6435,0.487
355,1.073,-9.6184,0.5748,0.7652,2.6435,0.4174
360,1.073,-9.7717,0.5365,0.7652,2.6435,0.5565
365,1.073,-9.6184,0.5365,0.7652,2.6435,0.5565
370,1.073,-9.6184,0.4982,0.9043,2.5739,0.6261
375,0.9963,-9.5801,0.5365,0.9043,2.5739,0.5565
380,1.0346,-9.4651,0.5365,0.9043,2.5739,0.6957
385,1.1879,-9.5801,0.5748,0.9739,2.6435,0.5565
390,0.9963,-9.6184,0.6898,1.113,2.713,0.6261
395,1.073,-9.6184,0.7281,1.0435,2.6435,0.5565
400,0.958,-9.695,0.6898,0.9739,2.5739,0.5565
405,1.073,-9.5801,0.6898,0.9043,2.713,0.487
410,1.0346,-9.6184,0.4982,0.7652,2.713,0.487
415,1.1113,-9.6184,0.5748,0.6261,2.7826,0.4174
420,0.958,-9.6184,0.7281,0.487,2.7826,0.4174
425,1.1113,-9.695,0.8047,0.4174,2.7826,0.3478
430,1.0346,-9.4651,0.4982,0.2783,2.9217,0.3478
435,1.0346,-9.695,0.5748,0.0696,2.7826,0.3478
440,0.9197,-9.6567,0.6131,-0.4174,2.8522,0.2783
445,1.0346,-9.7717,0.5365,-0.6957,2.9913,0.1391
450,1.073,-9.7334,0.6131,-0.9739,2.9217,0.0
455,1.0346,-9.8483,0.6131,-1.1826,2.9913,-0.3478
460,0.9963,-9.8483,0.6898,-1.1826,2.8522,-0.4174
465,0.958,-9.7334,0.6131,-1.113,2.8522,-0.5565
470,1.1113,-9.8483,0.5748,-0.9739,2.9217,-0.487
475,1.073,-9.81,0.5748,-0.8348,2.9217,-0.5565
480,1.0346,-9.8483,0.4598,-0.6261,3.0609,-0.487
485,1.1496,-9.695,0.4215,-0.487,3.1304,-0.4174
490,1.0346,-9.7334,0.5748,-0.4174,3.1304,-0.4174
495,1.073,-9.695,0.6898,-0.3478,3.2,-0.3478
500,1.1879,-9.6184,0.4982,-0.487,3.3391,-0.2087
505,1.073,-9.6184,0.6131,-0.4174,3.3391,-0.2087
510,1.1879,-9.6567,0.6514,-0.5565,3.4783,-0.2087
515,1.1496,-9.695,0.5748,-0.6957,3.4783,-0.2087
520,0.958,-9.5801,0.7281,-0.7652,3.5478,-0.2087
525,1.1113,-9.6567,0.6131,-0.7652,3.5478,-0.1391
530,1.1113,-9.5801,0.6131,-0.8348,3.5478,-0.3478
535,0.9963,-9.5801,0.4982,-0.9739,3.5478,-0.1391
540,1.073,-9.5801,0.5365,-0.9043,3.6174,-0.2783
545,1.0346,-9.5418,0.5748,-0.9739,3.7565,-0.2087
550,1.073,-9.6184,0.6131,-0.9043,3.7565,-0.3478
555,1.2263,-9.6567,0.6514,-0.7652,3.687,-0.2087
560,1.0346,-9.7334,0.6514,-0.6261,3.687,-0.2783
565,1.1113,-9.6567,0.6514,-0.487,3.7565,-0.2783
570,1.0346,-9.695,0.5365,-0.4174,3.687,-0.487
575,1.0346,-9.6184,0.6514,-0.487,3.6174,-0.487
580,1.0346,-9.6567,0.5748,-0.487,3.5478,-0.6957
585,1.1113,-9.7334,0.7281,-0.4174,3.4087,-0.7652
590,1.1113,-9.81,0.4982,-0.2087,3.5478,-0.6957
595,1.0346,-9.6567,0.6514,-0.2087,3.5478,-0.6957
600,0.9963,-9.695,0.4598,-0.2087,3.687,-0.7652
605,0.9963,-9.5801,0.7664,-0.1391,3.7565,-0.5565
610,0.9963,-9.6567,0.6131,-0.0696,3.8261,-0.6261
615,1.0346,-9.695,0.6131,-0.0696,3.8957,-0.4174
620,0.958,-9.7334,0.4215,0.0,3.8957,-0.3478
625,1.1496,-9.6567,0.4598,0.0,4.1739,-0.0696
630,1.0346,-9.695,0.4982,0.0696,4.1739,-0.1391
635,1.073,-9.6567,0.4982,0.0,4.1043,-0.0696
640,1.0346,-9.6184,0.5748,-0.1391,4.1739,-0.0696
645,1.1113,-9.6567,0.6514,-0.2087,4.2435,0.0696
650,0.9963,-9.5801,0.5748,-0.1391,4.313,-0.1391
655,1.073,-9.7334,0.6131,-0.1391,4.1739,0.0696
660,0.958,-9.7334,0.5365,-0.2087,4.0348,-0.1391
665,1.0346,-9.6184,0.5365,-0.2783,3.8957,0.0
670,1.0346,-9.6567,0.6898,-0.2783,3.8261,-0.1391
675,0.958,-9.5034,0.5748,-0.4174,3.687,-0.1391
680,1.073,-9.6184,0.6131,-0.487,3.6174,-0.3478
685,1.1113,-9.6567,0.6898,-0.5565,3.4783,-0.2783
690,0.9963,-9.5801,0.4598,-0.5565,3.4783,-0.3478
695,0.9963,-9.695,0.5748,-0.6261,3.4087,-0.1391
700,1.1496,-9.6184,0.7664,-0.5565,3.4783,-0.2783
705,1.0346,-9.695,0.5748,-0.6261,3.5478,-0.1391
710,0.9963,-9.6567,0.7281,-0.6261,3.5478,-0.2783
715,1.073,-9.695,0.7664,-0.487,3.687,-0.0696
720,1.1113,-9.7717,0.5748,-0.3478,3.7565,-0.1391
725,1.2263,-9.7334,0.6514,-0.0696,3.7565,0.0696
730,1.1879,-9.6567,0.6898,-0.0696,3.8957,0.0
735,0.9963,-9.695,0.6514,0.1391,3.8957,0.2087
740,1.073,-9.7334,0.6898,0.0696,3.8261,0.0
745,1.073,-9.6184,0.4982,0.2783,3.8957,0.2087
750,1.073,-9.695,0.6514,0.2783,3.8261,0.1391
755,1.1113,-9.6184,0.6514,0.2783,3.8261,0.3478
760,1.1113,-9.7334,0.4982,0.2783,3.8261,0.1391
765,1.1113,-9.7334,0.4598,0.2783,3.687,0.2783
770,1.073,-9.695,0.5748,0.0696,3.6174,0.0
775,1.1496,-9.7334,0.6898,-0.1391,3.4783,0.1391
780,0.9963,-9.6567,0.4215,-0.2783,3.4087,-0.1391
785,1.1496,-9.695,0.5365,-0.4174,3.4087,0.0
790,0.9963,-9.5801,0.4598,-0.487,3.3391,-0.2783
795,0.9963,-9.7334,0.6131,-0.6957,3.3391,-0.2087
800,0.958,-9.7334,0.5365,-0.8348,3.4783,-0.487
805,0.9963,-9.6184,0.6514,-0.9043,3.4087,-0.2783
810,1.0346,-9.6567,0.5748,-0.9043,3.4783,-0.4174
815,0.9963,-9.6567,0.6131,-0.9043,3.3391,-0.1391
820,1.0346,-9.6567,0.4598,-0.9739,3.4087,-0.1391
825,1.0346,-9.6567,0.6514,-0.9739,3.6174,0.0696
830,1.073,-9.7717,0.7281,-1.0435,3.6174,0.0
835,1.1113,-9.7334,0.6898,-0.9739,3.6174,0.1391
840,0.9963,-9.695,0.5365,-1.1826,3.5478,0.0
845,0.958,-9.6184,0.5365,-1.3217,3.4783,0.0696
850,1.0346,-9.6184,0.6131,-1.3913,3.4783,-0.0696
855,1.073,-9.695,0.5365,-1.4609,3.5478,0.0696
860,1.073,-9.7334,0.6131,-1.3913,3.5478,-0.1391
865,0.9963,-9.6567,0.7281,-1.3217,3.6174,-0.0696
870,1.1113,-9.695,0.5748,-1.1826,3.687,-0.1391
875,1.073,-9.7717,0.5748,-1.113,3.6174,0.0696
880,1.1879,-9.7717,0.6514,-1.0435,3.7565,-0.0696
885,1.1113,-9.6567,0.6514,-0.9043,3.7565,0.0
890,1.1879,-9.695,0.6514,-0.7652,3.687,-0.0696
895,1.1113,-9.6567,0.4598,-0.6261,3.8261,-0.0696
900,1.0346,-9.5801,0.6898,-0.487,3.8261,-0.2783
905,1.1113,-9.695,0.5748,-0.3478,3.8261,-0.0696
910,0.958,-9.6567,0.6131,-0.1391,3.8957,-0.2087
915,0.958,-9.6184,0.6514,0.0696,4.0348,-0.2087
920,0.9963,-9.6567,0.6131,0.2087,4.1043,-0.2087
925,1.0346,-9.8866,0.6131,0.2783,4.2435,-0.1391
930,1.0346,-9.7334,0.6131,0.3478,4.1739,-0.2783
935,0.9197,-9.7717,0.5365,0.3478,4.2435,-0.1391
940,1.073,-9.7717,0.5365,0.2087,4.2435,-0.2087
945,0.9963,-9.7717,0.3449,0.2087,4.313,-0.0696
950,0.9963,-9.6184,0.4215,0.2087,4.313,0.0
955,0.958,-9.6184,0.6514,0.2087,4.313,0.0696
960,1.073,-9.6567,0.6131,0.2087,4.3826,0.0
965,1.1113,-9.7334,0.5365,0.1391,4.3826,0.0696
970,1.073,-9.5801,0.4982,0.2087,4.3826,0.1391
975,1.0346,-9.695,0.4982,0.1391,4.313,0.1391
980,0.9963,-9.7334,0.4982,0.0696,4.2435,0.1391
985,1.1113,-9.6567,0.6514,0.0696,4.2435,0.2087
990,0.958,-9.5801,0.6898,0.0696,4.1739,0.1391
995,0.9963,-9.6567,0.6514,0.1391,4.1043,0.2087
1000,1.1113,-9.6184,0.6131,0.1391,4.0348,0.1391
1005,1.073,-9.7334,0.8814,0.2087,4.0348,0.2087
1010,1.1113,-9.5801,0.6514,0.1391,4.1043,0.2087
1015,1.0346,-9.695,0.6898,0.2087,4.1043,0.2783
1020,1.073,-9.695,0.5748,0.2783,4.0348,0.2783
1025,1.0346,-9.5418,0.5748,0.3478,4.1043,0.3478
1030,0.958,-9.695,0.6514,0.2783,4.1043,0.5565
1035,1.0346,-9.695,0.5748,0.4174,4.1739,0.5565
1040,1.073,-9.695,0.6898,0.3478,4.2435,0.6261
1045,1.0346,-9.6184,0.6514,0.2783,4.2435,0.6957
1050,1.073,-9.7717,0.5748,0.2087,4.2435,0.6957
1055,1.073,-9.81,0.6514,0.2783,4.313,0.6957
1060,1.073,-9.81,0.5748,0.2087,4.2435,0.8348
1065,1.073,-9.81,0.5365,0.2783,4.1739,0.8348
1070,1.1113,-9.7334,0.6131,0.1391,4.1739,1.0435
1075,1.0346,-9.7334,0.6131,0.2087,4.1739,1.0435
1080,0.9963,-9.6567,0.6514,0.0,4.1043,1.2522
1085,1.1113,-9.7334,0.5365,-0.2087,3.8957,1.113
1090,0.8814,-9.6184,0.5748,-0.3478,3.687,1.1826
1095,1.1113,-9.7334,0.6514,-0.2783,3.5478,1.0435
1100,1.073,-9.6567,0.5365,-0.487,3.5478,1.113
1105,1.1496,-9.7717,0.5365,-0.5565,3.4783,0.9043
1110,1.1496,-9.7717,0.4598,-0.6957,3.4087,0.9043
1115,0.9963,-9.6567,0.5365,-0.8348,3.3391,0.6261
1120,1.073,-9.695,0.6131,-0.9739,3.3391,0.6261
1125,1.1113,-9.5801,0.4215,-1.113,3.2696,0.4174
1130,0.9963,-9.6184,0.6131,-1.2522,3.4087,0.2783
1135,1.1496,-9.7717,0.6514,-1.3913,3.5478,0.0
1140,1.073,-9.6567,0.4982,-1.3913,3.3391,-0.1391
1145,0.9963,-9.6184,0.5365,-1.3913,3.2696,-0.4174
1150,1.0346,-9.6567,0.6514,-1.3913,3.3391,-0.2783
1155,0.9963,-9.5801,0.4982,-1.2522,3.2696,-0.4174
1160,0.9963,-9.6567,0.6131,-1.2522,3.2696,-0.3478
1165,0.9963,-9.6184,0.6131,-1.0435,3.1304,-0.4174
1170,0.958,-9.6184,0.7664,-1.113,3.2696,-0.2783
1175,0.9197,-9.6184,0.6898,-1.113,3.3391,-0.4174
1180,0.958,-9.6567,0.7281,-1.113,3.3391,-0.2087
1185,1.1113,-9.7717,0.7281,-1.113,3.3391,-0.2783
1190,1.1113,-9.6184,0.6514,-1.113,3.4783,-0.1391
1195,0.958,-9.6184,0.6514,-1.0435,3.4087,-0.2087
1200,0.9963,-9.695,0.6131,-1.0435,3.5478,-0.0696
1205,1.1113,-9.7334,0.6514,-1.113,3.687,-0.1391
1210,1.0346,-9.695,0.6131,-1.113,3.6174,0.0696
1215,0.9963,-9.5801,0.6514,-1.1826,3.687,-0.1391
1220,1.073,-9.695,0.6131,-1.2522,3.8261,-0.0696
1225,0.9963,-9.695,0.5748,-1.113,3.8957,-0.2087
1230,0.9963,-9.6184,0.6514,-1.113,4.0348,-0.0696
1235,0.9963,-9.6184,0.7281,-1.113,4.0348,-0.2783
1240,1.0346,-9.7717,0.7281,-0.9043,4.1043,0.0
1245,1.073,-9.6184,0.6131,-0.8348,4.0348,-0.2087
1250,0.9963,-9.695,0.5748,-0.7652,4.1043,0.0
1255,0.9963,-9.5801,0.7281,-0.9043,4.1043,-0.1391
1260,1.1113,-9.6184,0.6131,-0.9739,4.0348,-0.0696
1265,0.9963,-9.5801,0.6898,-1.0435,3.8261,-0.3478
1270,1.1113,-9.6184,0.8047,-1.0435,3.7565,-0.2783
1275,0.9963,-9.7334,0.6898,-1.0435,3.7565,-0.5565
1280,1.073,-9.695,0.5365,-0.9739,3.8261,-0.4174
1285,1.073,-9.6567,0.5365,-0.9739,3.7565,-0.487
1290,1.073,-9.695,0.5748,-0.9739,3.8957,-0.3478
1295,1.0346,-9.7717,0.7281,-1.0435,3.8261,-0.5565
1300,1.073,-9.695,0.5365,-1.113,3.8957,-0.4174
1305,1.0346,-9.6184,0.6898,-1.113,3.9652,-0.487
1310,1.0346,-9.6184,0.6514,-1.0435,3.9652,-0.2783
1315,1.0346,-9.695,0.6514,-1.0435,3.8957,-0.3478
1320,1.0346,-9.7717,0.5748,-0.9739,4.0348,0.0
1325,0.9963,-9.81,0.6514,-0.9043,4.0348,-0.2087
1330,1.073,-9.7334,0.6898,-0.9043,4.1739,0.0696
1335,0.9963,-9.6567,0.5748,-0.9739,4.0348,-0.0696
1340,1.0346,-9.6567,0.6898,-1.0435,4.0348,0.2087
1345,1.073,-9.81,0.6131,-1.0435,4.1043,0.0
1350,1.0346,-9.5418,0.6131,-1.113,4.1043,0.2087
1355,1.1879,-9.6567,0.5748,-1.113,4.0348,0.0
1360,1.1113,-9.7334,0.4598,-1.1826,3.9652,0.2087
1365,1.1879,-9.695,0.6514,-1.3217,3.8957,0.0
1370,1.073,-9.6567,0.6514,-1.3913,3.8957,0.1391
1375,1.1496,-9.5418,0.4598,-1.3217,3.8957,-0.0696
1380,1.1113,-9.6567,0.6514,-1.3913,3.8957,0.0696
1385,0.958,-9.5418,0.7281,-1.3913,3.9652,-0.0696
1390,0.9963,-9.695,0.6131,-1.2522,3.7565,0.0
1395,0.9963,-9.6184,0.7281,-1.3217,3.7565,-0.2087
1400,1.0346,-9.7334,0.7664,-1.2522,3.5478,-0.1391
1405,1.073,-9.7334,0.6898,-1.113,3.4783,-0.2783
1410,0.958,-9.6184,0.6514,-1.0435,3.3391,-0.2087
1415,0.9963,-9.695,0.7281,-0.8348,3.2696,-0.3478
1420,1.0346,-9.6184,0.5365,-0.8348,3.1304,-0.1391
1425,1.0346,-9.7334,0.6131,-0.7652,3.0609,-0.2783
1430,0.958,-9.6567,0.7281,-0.6261,3.1304,-0.0696
1435,0.8814,-9.695,0.6898,-0.6261,3.2,-0.1391
1440,0.9963,-9.695,0.6898,-0.6957,3.2696,-0.0696
1445,0.9963,-9.695,0.5748,-0.8348,3.4087,-0.1391
1450,1.1113,-9.695,0.5365,-1.0435,3.6174,0.0696
1455,1.073,-9.5418,0.6131,-1.1826,3.7565,-0.0696
1460,0.9963,-9.695,0.6898,-1.3913,3.8261,-0.0696
1465,1.0346,-9.7334,0.5748,-1.6696,4.1043,-0.2087
1470,1.1496,-9.695,0.7281,-1.9478,4.2435,-0.2087
1475,1.073,-9.6567,0.6514,-2.087,4.4522,-0.2783
1480,0.8814,-9.6184,0.6131,-2.2957,4.7304,-0.2783
1485,1.0346,-9.695,0.6514,-2.3652,4.9391,-0.4174
1490,1.1496,-9.7717,0.6514,-2.3652,5.1478,-0.4174
1495,0.9963,-9.695,0.4982,-2.4348,5.287,-0.4174
1500,1.0346,-9.7334,0.7281,-2.4348,5.3565,-0.3478
1505,0.9197,-9.695,0.4598,-2.3652,5.4261,-0.3478
1510,1.073,-9.7334,0.5748,-2.2957,5.5652,-0.3478
1515,0.958,-9.6567,0.5748,-2.2957,5.5652,-0.3478
1520,0.9963,-9.695,0.6898,-2.2261,5.6348,-0.2087
1525,1.0346,-9.7334,0.6514,-2.2261,5.4957,-0.2087
1530,1.073,-9.6184,0.5365,-2.087,5.4261,-0.2783
1535,1.0346,-9.6184,0.6131,-2.2261,5.3565,-0.487
1540,1.0346,-9.7334,0.5748,-2.2261,5.1478,-0.3478
1545,1.073,-9.5801,0.4982,-2.2261,5.2174,-0.4174
1550,1.1879,-9.6184,0.5365,-2.2261,5.0087,-0.4174
1555,0.958,-9.5801,0.7281,-2.2957,4.9391,-0.3478
1560,1.073,-9.6567,0.6898,-2.2957,4.8696,-0.4174
1565,1.0346,-9.5801,0.6514,-2.087,4.7304,-0.3478
1570,1.073,-9.5801,0.5365,-2.087,4.6609,-0.3478
1575,1.1496,-9.5418,0.4982,-2.1565,4.5913,-0.3478
1580,1.1496,-9.5418,0.6131,-2.2261,4.5913,-0.4174
1585,0.958,-9.4651,0.4982,-2.2957,4.6609,-0.4174
1590,1.0346,-9.5801,0.6131,-2.2957,4.5913,-0.5565
1595,1.1496,-9.7717,0.6131,-2.2957,4.6609,-0.6957
1600,1.0346,-9.5801,0.6131,-2.2261,4.6609,-0.6957
1605,1.0346,-9.695,0.6898,-2.087,4.7304,-0.6957
1610,1.1496,-9.695,0.6131,-1.9478,4.7304,-0.7652
1615,1.073,-9.6567,0.7281,-1.6696,4.8,-0.6957
1620,1.1113,-9.8483,0.6514,-1.6696,4.9391,-0.5565
1625,0.958,-9.7334,0.6131,-1.4609,4.9391,-0.2783
1630,1.1113,-9.8866,0.5365,-1.3217,5.0783,-0.2783
1635,1.1113,-9.695,0.5748,-1.2522,5.0087,-0.2783
1640,1.1496,-9.695,0.5748,-1.113,5.1478,-0.2087
1645,0.9963,-9.695,0.6131,-1.0435,5.0783,-0.0696
1650,1.1879,-9.6567,0.5748,-0.9043,5.0087,-0.1391
1655,1.073,-9.5034,0.7664,-0.9043,4.9391,0.0
1660,1.0346,-9.6567,0.5365,-0.9043,4.7304,-0.0696
1665,1.073,-9.695,0.4215,-0.9739,4.8,0.0696
1670,1.1113,-9.6567,0.5748,-1.0435,4.6609,0.0
1675,1.1113,-9.5418,0.5748,-1.1826,4.5913,0.0696
1680,1.1496,-9.6567,0.5748,-1.113,4.3826,0.0
1685,1.073,-9.6567,0.5748,-1.113,4.4522,0.0
1690,1.0346,-9.6567,0.6514,-1.113,4.313,-0.0696
1695,1.073,-9.6184,0.4982,-0.9739,4.2435,0.2783
1700,1.1496,-9.695,0.6131,-1.113,4.2435,0.1391
1705,1.1113,-9.5801,0.4982,-0.9739,4.1739,0.2783
1710,1.073,-9.5801,0.4598,-1.1826,4.1043,0.2783
1715,1.1496,-9.6567,0.4982,-1.113,4.2435,0.4174
1720,0.9963,-9.5034,0.5748,-0.9739,4.1043,0.3478
1725,1.073,-9.6567,0.6898,-0.9739,3.9652,0.4174
1730,1.1496,-9.7334,0.6898,-1.0435,3.9652,0.3478
1735,1.1113,-9.7334,0.5748,-0.9043,3.8957,0.4174
1740,1.0346,-9.5418,0.4982,-0.9739,3.9652,0.2783
1745,0.9963,-9.6567,0.5365,-0.9043,3.9652,0.3478
1750,1.0346,-9.6567,0.5365,-0.8348,3.9652,0.2087
1755,1.1496,-9.7334,0.6131,-0.6261,4.0348,0.4174
1760,1.1496,-9.7334,0.4598,-0.6261,4.1043,0.2087
1765,1.1113,-9.7334,0.4982,-0.2783,4.2435,0.2783
1770,1.073,-9.7334,0.6131,-0.2087,4.2435,0.2783
1775,1.1113,-9.7334,0.5748,-0.0696,4.1739,0.487
1780,1.0346,-9.6184,0.5748,0.2087,4.1739,0.4174
1785,1.073,-9.695,0.6898,0.2783,4.2435,0.487
1790,0.958,-9.6184,0.5748,0.487,4.1739,0.3478
1795,0.9963,-9.695,0.6131,0.5565,4.2435,0.5565
1800,0.9197,-9.6184,0.5748,0.487,4.2435,0.487
1805,1.0346,-9.6184,0.6131,0.6261,4.1739,0.5565
1810,0.8814,-9.7334,0.6131,0.5565,4.1739,0.2783
1815,0.843,-9.5801,0.5748,0.487,4.1043,0.487
1820,1.0346,-9.695,0.5365,0.487,4.1043,0.3478
1825,1.0346,-9.695,0.6514,0.4174,4.0348,0.4174
1830,0.9197,-9.6184,0.4598,0.3478,4.1043,0.2087
1835,1.073,-9.6184,0.4598,0.2783,4.0348,0.4174
1840,0.9963,-9.6184,0.5365,0.1391,3.8957,0.1391
1845,0.9197,-9.6184,0.5748,0.1391,3.9652,0.2783
1850,0.9963,-9.7334,0.5365,0.1391,4.1043,0.1391
1855,0.958,-9.7717,0.6131,0.4174,4.1739,0.2783
1860,0.843,-9.695,0.6131,0.5565,4.313,0.0696
1865,0.958,-9.6567,0.5748,0.6261,4.4522,0.2783
1870,0.9963,-9.7717,0.5748,0.6261,4.5913,0.1391
1875,0.8814,-9.6184,0.6131,0.6261,4.5913,0.2783
1880,0.958,-9.7334,0.5365,0.5565,4.5913,0.1391
1885,0.9963,-9.695,0.4215,0.487,4.5913,0.0696
1890,0.958,-9.6567,0.5748,0.2783,4.4522,-0.1391
1895,0.9963,-9.6184,0.5365,0.0,4.4522,-0.1391
1900,0.958,-9.695,0.4598,-0.2783,4.3826,-0.3478
1905,0.9963,-9.6567,0.6131,-0.5565,4.313,-0.4174
1910,0.9197,-9.6184,0.6898,-0.7652,4.1043,-0.6957
1915,0.958,-9.7334,0.4982,-0.9739,3.9652,-0.487
1920,0.8814,-9.6184,0.5748,-0.9739,4.0348,-0.5565
1925,0.958,-9.7717,0.5365,-1.1826,4.0348,-0.4174
1930,0.9963,-9.695,0.5365,-1.2522,4.1043,-0.5565
1935,0.843,-9.695,0.5365,-1.2522,4.1043,-0.4174
1940,0.958,-9.5418,0.4215,-1.3913,3.9652,-0.5565
1945,0.958,-9.6567,0.5748,-1.5304,3.9652,-0.487
1950,0.958,-9.6567,0.6131,-1.6,3.8957,-0.5565
1955,0.9963,-9.6567,0.4982,-1.6696,3.8957,-0.487
1960,1.0346,-9.6567,0.4982,-1.8087,3.7565,-0.6957
1965,1.0346,-9.7717,0.6514,-1.8783,3.4783,-0.6261
1970,0.9963,-9.7717,0.3832,-2.0174,3.3391,-0.6957
1975,0.843,-9.695,0.3832,-1.8783,3.2696,-0.5565
1980,0.8814,-9.6567,0.5365,-2.0174,3.1304,-0.5565
1985,0.9963,-9.6567,0.4598,-2.1565,3.1304,-0.2783
1990,0.9963,-9.6567,0.5365,-2.5043,2.9913,-0.3478
1995,0.9963,-9.6184,0.4598,-2.8522,2.9217,-0.2087
2000,1.0346,-9.6567,0.4982,-3.2696,2.8522,-0.2783
2005,0.958,-9.695,0.4982,-3.7565,2.713,-0.2783
2010,0.8814,-9.6184,0.5365,-4.1043,2.6435,-0.3478
2015,0.8814,-9.5801,0.4982,-4.3826,2.5739,-0.2783
2020,0.8814,-9.6184,0.4982,-4.6609,2.713,-0.3478
2025,0.958,-9.695,0.5748,-4.7304,2.7826,-0.2783
2030,0.9197,-9.6184,0.4982,-4.7304,2.9217,-0.2783
2035,1.0346,-9.695,0.5748,-4.8,3.2,-0.0696
2040,0.8814,-9.5418,0.4215,-4.9391,3.2696,-0.1391
2045,0.958,-9.6184,0.3832,-5.2174,3.4087,0.0
2050,0.958,-9.6184,0.4982,-5.5652,3.5478,-0.1391
2055,0.9197,-9.5034,0.5365,-6.1217,3.5478,-0.2087
2060,0.9197,-9.6567,0.5365,-6.5391,3.4783,-0.3478
2065,0.8814,-9.5418,0.4215,-7.0261,3.4087,-0.487
2070,0.958,-9.5801,0.3832,-7.4435,3.1304,-0.7652
2075,1.073,-9.695,0.6131,-7.7217,2.9217,-0.9739
2080,0.958,-9.6184,0.5748,-7.8609,2.8522,-1.113
2085,1.0346,-9.6184,0.4215,-7.8609,2.6435,-1.2522
2090,1.0346,-9.6184,0.4598,-7.8609,2.3652,-1.3217
2095,1.073,-9.6567,0.4982,-7.7913,2.2261,-1.3217
2100,1.0346,-9.6567,0.5365,-7.7913,2.1565,-1.2522
2105,0.9963,-9.6567,0.5365,-7.7913,2.2261,-1.113
2110,0.958,-9.5801,0.5365,-7.7217,2.1565,-0.9043
2115,1.1113,-9.6567,0.4982,-7.9304,2.0174,-0.6957
2120,1.0346,-9.7334,0.4982,-8.2783,1.8783,-0.7652
2125,1.073,-9.5418,0.5365,-8.7652,1.8087,-0.6957
2130,1.0346,-9.5801,0.4982,-9.2522,1.7391,-0.9739
2135,0.958,-9.5418,0.3832,-9.8783,1.5304,-1.113
2140,1.0346,-9.5418,0.4598,-10.713,1.3217,-1.113
2145,0.9963,-9.6184,0.3066,-11.6174,1.1826,-1.4609
2150,0.958,-9.5801,0.3449,-12.7304,1.2522,-1.4609
2155,0.9963,-9.5801,0.4598,-13.7043,1.2522,-1.4609
2160,1.1113,-9.695,0.3449,-14.7478,1.5304,-1.2522
2165,1.073,-9.6567,0.3449,-15.7217,1.7391,-0.9739
2170,1.1113,-9.6184,0.4215,-17.0435,1.8783,-0.6261
2175,1.1496,-9.695,0.4215,-17.9478,1.8783,-0.4174
2180,1.1879,-9.7334,0.3832,-18.8522,1.8783,-0.1391
2185,1.0346,-9.4651,0.2299,-19.4783,1.8087,-0.1391
2190,1.1113,-9.5034,0.3449,-20.0348,1.6696,-0.2087
2195,1.0346,-9.5034,0.3066,-20.6609,1.4609,-0.6261
2200,1.1113,-9.3502,0.3066,-21.0783,1.2522,-0.9043
2205,1.1879,-9.3885,0.2682,-21.7739,1.0435,-1.3217
2210,1.1113,-9.4268,0.115,-22.7478,0.6957,-1.8087
2215,1.1496,-9.3502,0.2299,-23.7217,0.2783,-2.2957
2220,1.1113,-9.3885,0.1916,-24.6957,-0.0696,-2.5043
2225,1.2646,-9.4268,0.1533,-25.7391,-0.3478,-2.9217
2230,1.1496,-9.4268,0.1916,-26.5739,-0.6261,-3.1304
2235,1.1879,-9.1586,0.2682,-27.4783,-0.9739,-3.4783
2240,1.1496,-9.2352,0.115,-28.3826,-1.1826,-3.4783
2245,1.1496,-9.2735,0.3066,-29.1478,-1.3913,-3.9652
2250,1.2263,-9.1969,0.3066,-29.8435,-1.4609,-4.2435
2255,1.1496,-9.1586,0.115,-30.5391,-1.6696,-4.7304
2260,1.073,-9.2352,0.3066,-31.0957,-1.7391,-4.8696
2265,1.1113,-9.1202,0.3066,-31.5826,-1.8087,-4.9391
2270,1.1113,-9.1586,0.3066,-32.0,-2.1565,-4.7304
2275,1.0346,-9.1202,0.2682,-32.4174,-2.713,-4.8696
2280,1.1879,-9.1969,0.3066,-32.8348,-3.2696,-4.4522
2285,1.1113,-9.0053,0.3066,-33.4609,-4.1043,-4.1739
2290,1.0346,-9.0436,0.4215,-34.3652,-4.8696,-3.7565
2295,1.0346,-9.0053,0.3832,-35.5478,-5.7043,-3.7565
2300,0.958,-9.1202,0.3066,-36.5913,-6.6783,-3.8261
2305,1.0346,-9.1586,0.4598,-37.3565,-7.3043,-4.1043
2310,0.8814,-9.1586,0.6898,-37.8435,-7.7913,-4.313
2315,0.9197,-9.1969,0.7664,-38.1913,-8.4174,-4.8696
2320,0.843,-9.1202,0.7281,-38.3304,-9.1826,-5.0783
2325,0.6898,-9.3885,0.7281,-38.1217,-10.1565,-5.5652
2330,0.6131,-9.3502,0.7281,-37.913,-11.1304,-5.7739
2335,0.6514,-9.4268,0.6898,-37.913,-11.9652,-6.0522
2340,0.4598,-9.3118,0.5748,-38.1217,-12.5913,-5.7739
2345,0.1916,-9.5034,0.4982,-38.5391,-13.0783,-5.9826
2350,0.1916,-9.6567,0.5365,-38.6087,-12.9391,-5.3565
2355,0.2299,-9.695,0.3066,-39.0261,-12.7304,-4.6609
2360,0.1533,-9.5034,0.3832,-39.6522,-12.313,-3.687
2365,0.0766,-9.6184,0.3449,-40.487,-11.6174,-2.8522
2370,0.4215,-9.8866,0.3832,-42.0174,-11.4783,-1.7391
2375,0.4598,-10.0016,0.3449,-44.3826,-10.9217,-1.8087
2380,0.5748,-10.1932,0.2682,-47.9304,-10.6435,-1.9478
2385,0.3449,-10.1549,0.3066,-53.0783,-10.5043,-2.3652
2390,1.4945,-10.9213,0.3066,-61.4261,-10.7826,-2.1565
2395,1.3795,-10.883,0.4215,-69.9826,-9.4609,-4.8696
2400,1.7627,-10.9979,0.3066,-79.0957,-7.8609,-7.6522
2405,2.0693,-11.0363,0.0766,-88.3478,-4.8696,-10.8522
2410,2.2226,-11.2279,-0.2682,-96.9739,-0.487,-13.8435
2415,2.6441,-11.841,-0.3832,-104.6261,4.1043,-16.6261
2420,2.2992,-12.2242,-0.3449,-110.3304,9.2522,-19.5478
2425,1.5711,-12.4541,-0.4598,-114.3652,12.9391,-21.8435
2430,0.8047,-12.5691,-0.3449,-117.7043,14.0522,-22.8174
2435,0.4982,-12.9523,-0.2682,-122.3652,12.0348,-24.6261
2440,0.0383,-13.2588,-0.0766,-127.0261,8.7652,-26.5739
2445,0.0766,-13.757,-0.2299,-131.5478,4.4522,-28.8
2450,-0.1916,-14.0252,-0.7281,-134.9565,1.2522,-31.7913
2455,0.0383,-14.9449,-1.6095,-136.3478,0.1391,-33.6
2460,0.3066,-15.558,-2.1459,-135.0261,0.9739,-33.8087
2465,0.6514,-16.631,-3.7171,-131.4087,2.1565,-32.7652
2470,1.8394,-17.4357,-5.0583,-127.0957,1.6,-29.6348
2475,2.6441,-18.1638,-5.978,-123.9652,-0.4174,-25.6696
2480,4.5218,-19.4284,-6.0929,-122.4348,-4.9391,-20.5217
2485,4.5984,-19.8499,-5.3648,-117.9826,-7.7913,-18.1565
2490,4.5601,-20.1182,-5.4032,-110.9565,-10.6435,-15.1652
2495,4.8667,-20.0032,-1.6478,-103.3739,-11.687,-10.9913
2500,4.062,-19.735,-5.863,-98.0174,-11.4087,-6.2609
2505,3.5255,-19.2368,-6.1696,-95.0261,-11.4087,-3.6174
2510,2.3375,-18.662,-6.3995,-93.8435,-10.1565,-2.1565
2515,3.2955,-17.8956,-5.978,-95.7913,-9.1826,-3.2696
2520,3.1039,-17.2825,-5.4798,-96.9043,-9.3217,-2.6435
2525,3.4871,-16.631,-5.5181,-98.7826,-10.713,-3.2
2530,3.0273,-16.0562,-4.9816,-100.3826,-13.5652,-2.4348
2535,2.7207,-15.558,-5.02,-102.4,-17.113,-2.3652
2540,2.6058,-15.0216,-5.02,-104.9043,-21.7043,-2.2957
2545,2.5291,-14.6767,-5.0583,-106.6435,-26.5043,-2.713
2550,2.4525,-13.872,-5.4415,-106.713,-31.1652,-3.6174
2555,2.989,-13.6037,-5.5948,-105.7391,-34.9913,-4.5913
2560,2.9123,-13.1822,-5.5564,-103.7913,-37.4957,-5.7739
2565,3.4871,-12.9139,-5.7097,-101.2174,-38.0522,-7.1652
2570,3.6787,-12.5307,-5.7097,-95.9304,-37.7739,-9.4609
2575,3.4871,-12.3775,-5.5181,-89.9478,-36.4522,-11.4783
2580,3.1039,-12.1859,-5.1349,-82.9217,-34.5043,-12.1739
2585,2.6058,-11.8027,-4.8284,-75.5478,-32.9739,-12.6609
2590,2.5291,-10.9979,-5.02,-68.313,-30.9565,-11.7565
2595,2.031,-10.3465,-5.0583,-61.7043,-29.6348,-12.1739
2600,1.7244,-9.925,-4.905,-55.8609,-29.3565,-12.6609
2605,1.8394,-9.6184,-4.9433,-51.7565,-30.3304,-12.8696
2610,1.6095,-9.5801,-5.0583,-48.7652,-31.9304,-12.8696
2615,4.3685,-12.1475,-5.1349,-46.4696,-33.7391,-12.9391
2620,1.9543,-10.1549,-5.1349,-46.8174,-35.0609,-13.7043
2625,2.2609,-10.0399,-5.4798,-47.7913,-35.4087,-14.1217
2630,2.6441,-10.3465,-5.6714,-49.113,-34.2957,-14.7478
2635,2.3375,-10.653,-5.4415,-50.0174,-32.0,-15.2348
2640,2.7207,-10.9596,-5.5181,-50.2957,-29.7739,-15.3043
2645,2.4142,-11.3045,-5.3265,-49.8087,-27.0609,-15.1652
2650,2.4142,-11.5344,-5.2116,-48.2783,-23.9304,-15.1652
2655,2.5291,-12.0709,-4.8284,-45.3565,-20.9391,-14.6087
2660,2.6441,-12.5307,-4.4452,-40.4174,-17.7391,-14.1913
2665,2.6824,-12.8756,-4.062,-35.8261,-14.1913,-14.0522
2670,2.1843,-13.0289,-4.062,-30.4696,-10.8522,-14.4
2675,2.3375,-13.3355,-3.947,-24.6261,-7.6522,-12.5217
2680,1.6478,-14.0636,-4.0236,-19.687,-4.9391,-11.4783
2685,2.5291,-13.6037,-4.4068,-9.1826,-3.7565,-8.0
2690,2.874,-13.757,-3.3722,-2.2957,-1.5304,-6.1913
2695,2.6058,-13.7187,-3.2955,3.7565,1.113,-4.1739
2700,3.1423,-13.3738,-3.2955,9.8783,3.3391,-2.5739
2705,2.6824,-12.799,-3.6021,17.113,6.3304,-0.9739
2710,2.6824,-12.1859,-3.0656,23.0957,8.3478,1.4609
2715,2.2992,-11.8027,-3.7554,26.7826,8.7652,5.2174
2720,2.1076,-10.9979,-4.5218,27.1304,8.6957,9.1826
2725,2.2609,-10.4614,-4.4835,24.0696,9.7391,12.1043
2730,1.8011,-9.8866,-4.7134,18.9217,10.9217,14.5391
2735,1.4945,-9.5034,-4.4835,14.2609,11.2696,17.6696
2740,1.1879,-9.4268,-4.6751,9.9478,10.9913,21.0783
2745,0.958,-9.0819,-4.5218,4.5913,10.5739,23.8609
2750,1.1496,-8.8903,-4.5601,-0.9043,10.087,26.1565
2755,0.8814,-8.5838,-4.1769,-5.7043,10.4348,27.5478
2760,0.5748,-8.967,-4.2536,-9.6,11.4087,27.9652
2765,0.4598,-8.3538,-3.7171,-11.687,11.687,28.5913
2770,0.1916,-8.4305,-3.0656,-10.5043,11.8261,28.6609
2775,0.3066,-8.4688,-2.9123,-6.2609,12.1043,28.3826
2780,0.1533,-8.2005,-2.9123,-0.9739,12.7304,26.7826
2785,0.3066,-7.9706,-2.4908,5.2174,13.4261,25.1826
2790,0.4982,-7.8173,-2.3375,13.4957,13.0783,23.2348
2795,0.8814,-7.7407,-2.3375,23.513,12.1739,20.5217
2800,1.1879,-7.2042,-2.1843,32.6957,11.4087,18.0174
2805,0.8814,-6.5528,-2.5675,40.2783,12.1739,15.6522
2810,0.5748,-6.2079,-2.9507,45.3565,15.7913,15.2348
2815,0.5365,-5.863,-2.4525,48.1391,19.2,16.7652
2820,0.5365,-5.9013,-1.9543,53.7739,16.8348,17.1826
2825,0.7664,-5.5948,-2.5291,60.7304,12.8,16.0
2830,0.8047,-5.3265,-3.2572,65.2522,11.4783,14.0522
2835,0.5748,-5.2882,-3.5638,65.5304,12.0348,13.9826
2840,0.3832,-5.02,-3.4105,61.5652,13.0783,14.4
2845,0.3066,-4.905,-3.3339,57.6696,12.8696,15.6522
2850,0.4598,-4.8284,-3.2572,54.4696,11.8261,17.2522
2855,0.4598,-4.7134,-3.2189,51.8261,11.0609,18.3652
2860,0.4598,-4.5601,-2.3759,52.7304,10.1565,19.0609
2865,0.5748,-4.7134,-1.8394,57.5304,7.7913,20.2435
2870,0.6131,-4.3685,-1.9927,66.3652,4.8696,20.8
2875,0.7281,-4.4835,-2.2992,76.1043,2.0174,21.9826
2880,0.843,-3.8704,-2.1076,84.3826,1.113,22.6087
2885,0.6514,-3.4105,-1.4562,92.3826,-2.5739,24.9739
2890,0.5748,-3.3722,-1.8011,99.8261,-7.7217,28.313
2895,0.6514,-3.3339,-1.9927,106.9913,-10.7826,31.5826
2900,0.4982,-3.1423,-2.0693,109.9826,-9.3913,33.113
2905,0.6514,-3.0273,-2.1843,110.6087,-6.887,35.2
2910,0.4982,-3.0656,-2.3759,110.4696,-3.2,37.3565
2915,0.7281,-3.4488,-2.7591,108.2435,2.0174,39.7217
2920,1.3029,-3.5255,-2.989,102.2609,8.5565,39.3739
2925,1.1113,-3.6404,-3.4105,93.7043,13.5652,37.2174
2930,0.8047,-3.7554,-2.9123,80.6957,15.513,33.8783
2935,0.4982,-3.6404,-3.2189,71.0957,14.7478,33.3217
2940,0.4982,-3.7171,-2.7974,64.6957,12.6609,33.6696
2945,0.6131,-4.1769,-2.8357,61.0783,11.2,33.1826
2950,0.6514,-4.1769,-2.874,58.2261,9.4609,29.9826
2955,0.4598,-4.062,-3.1039,55.5826,7.4435,27.0609
2960,0.4215,-4.062,-3.0656,54.2609,5.287,25.8783
2965,0.4598,-4.1769,-2.989,53.0087,3.8957,25.8087
2970,0.4598,-4.0236,-2.7974,51.8957,3.6174,24.0696
2975,0.2682,-3.947,-2.9507,51.3391,4.1043,20.5913
2980,0.2682,-3.9853,-3.1423,51.5478,5.287,18.087
2985,0.3066,-4.062,-3.4105,50.713,7.513,17.0435
2990,0.3449,-4.0236,-3.5255,48.487,9.8783,15.7913
2995,0.1533,-3.8704,-3.4488,45.7739,11.1304,14.6087
