timestamp,accX,accY,accZ,gyroX,gyroY,gyroZ
0,0.1533,-9.81,0.1533,0.5565,5.7739,-0.2783
5,0.2682,-9.8866,0.1533,0.5565,5.6348,-0.2783
10,0.1533,-9.7717,0.1916,0.7652,5.4957,-0.4174
15,0.1533,-9.81,0.1533,0.9043,5.3565,-0.4174
20,0.1533,-9.7717,0.2682,1.0435,5.1478,-0.4174
25,0.1533,-9.7334,0.1916,1.113,5.0783,-0.5565
30,0.1916,-9.8483,0.0766,1.1826,4.8696,-0.487
35,0.115,-9.81,0.2682,1.3217,4.8,-0.4174
40,0.1533,-9.81,-0.0383,1.5304,4.8,-0.5565
45,0.0766,-9.7334,0.0766,1.6696,4.8,-0.4174
50,0.1533,-9.8483,0.1533,1.8087,4.8,-0.4174
55,0.0766,-9.8483,-0.0383,1.8783,4.8696,-0.4174
60,0.0383,-9.7717,0.0766,1.8087,4.8696,-0.2783
65,0.0766,-9.81,0.2299,1.6696,4.8696,-0.2783
70,0.115,-10.0782,0.1533,1.6,4.9391,-0.1391
75,0.1916,-9.81,0.0383,1.4609,5.0783,-0.0696
80,0.0766,-9.7334,-0.0383,1.3217,5.0783,0.0
85,0.115,-9.8483,0.0383,1.113,5.0783,0.0696
90,0.115,-9.7717,-0.0766,0.9739,5.2174,0.0
95,0.115,-9.7334,0.0383,0.7652,5.287,-0.0696
100,0.115,-9.8866,0.1533,0.6957,5.287,0.0
105,0.0766,-9.8866,0.0383,0.5565,5.2174,-0.0696
110,0.2682,-9.8866,0.0383,0.6957,5.0783,-0.0696
115,0.115,-9.81,0.0,0.9739,5.0783,-0.2783
120,0.2682,-9.8483,0.1533,1.2522,5.0783,-0.2783
125,0.2299,-9.7334,0.115,1.5304,5.0087,-0.2087
130,0.2682,-9.81,0.1533,1.8783,5.0087,0.1391
135,0.1533,-9.81,-0.0383,2.0174,5.0783,-0.0696
140,0.1916,-9.695,0.1916,2.087,4.9391,-0.2087
145,0.1533,-9.695,0.115,2.0174,5.0087,-0.2087
150,0.1916,-9.7717,-0.0383,1.8783,5.0783,-0.0696
155,0.1533,-9.695,0.0766,1.8087,4.9391,-0.0696
160,0.1916,-9.7334,0.1916,1.6696,5.0087,-0.0696
165,0.1916,-9.695,0.0766,1.4609,4.8696,-0.1391
170,0.2682,-9.6567,0.115,1.0435,4.8696,-0.0696
175,0.1916,-9.7334,0.0383,0.7652,5.0783,0.0
180,0.2682,-9.4651,0.4598,0.4174,5.2174,0.0696
185,0.3066,-9.81,0.1916,0.487,5.1478,0.4174
190,0.1916,-9.81,0.2299,0.3478,5.287,0.2087
195,0.0383,-9.7717,0.1533,0.4174,5.287,0.1391
200,0.115,-9.7334,0.1533,0.3478,5.2174,0.1391
205,0.115,-9.81,0.1533,0.2783,5.1478,0.1391
210,0.1533,-9.81,0.1916,0.2087,5.0087,0.0696
215,0.2682,-9.81,0.3066,0.1391,4.9391,0.0
220,0.1533,-9.7334,0.2682,0.0696,5.0087,0.0
225,0.2299,-9.7717,0.2682,0.0696,4.9391,0.0
230,0.1916,-9.7334,0.2299,0.0696,4.9391,0.0
235,0.2682,-9.9633,0.2299,0.2783,4.9391,-0.0696
240,0.0383,-9.81,0.115,0.2783,4.9391,-0.1391
245,0.1916,-9.7717,0.1916,0.487,4.9391,-0.1391
250,0.1533,-9.7334,0.3066,0.6957,4.8696,-0.0696
255,0.1533,-9.81,0.1916,1.0435,4.9391,0.0
260,0.1916,-9.7717,0.1533,1.0435,4.8696,-0.2783
265,0.115,-9.81,0.2682,1.1826,4.8,-0.3478
270,0.1533,-9.7717,0.115,1.2522,4.8,-0.487
275,0.1916,-9.81,0.2299,1.6696,4.6609,-0.4174
280,0.1533,-9.7334,0.2299,1.9478,4.7304,-0.6261
285,0.1916,-9.7717,0.3066,2.2957,4.8696,-0.487
290,0.1916,-9.695,0.3449,2.713,4.9391,-0.6957
295,0.1533,-9.7717,0.3066,3.0609,4.9391,-0.5565
300,0.1533,-9.8483,0.2682,3.3391,5.0087,-0.2087
305,0.1533,-9.925,0.2682,3.6174,5.0783,-0.2087
310,0.2682,-9.7717,0.1916,3.8261,5.0087,0.0
315,0.1916,-9.8866,0.2299,4.2435,5.0087,0.487
320,0.1533,-9.925,0.115,4.3826,5.0087,0.4174
325,0.1533,-9.81,0.0383,4.1043,5.1478,0.3478
330,0.1533,-9.7717,0.1916,3.7565,5.287,0.3478
335,0.2299,-9.81,0.115,3.4087,5.287,0.2087
340,0.115,-9.81,0.2299,3.1304,5.3565,0.1391
345,0.1533,-9.7334,0.2299,3.2,5.287,0.0696
350,0.2682,-9.81,0.2682,3.4087,5.4261,-0.1391
355,0.1916,-9.925,0.2682,3.4783,5.287,-0.2087
360,0.1916,-9.695,0.1916,3.3391,5.1478,-0.1391
365,0.2299,-9.6567,0.1916,3.3391,5.0087,-0.2783
370,0.2682,-9.7717,0.1533,3.2696,4.8,0.2087
375,0.2299,-9.7334,0.115,2.9913,4.5913,0.1391
380,0.3449,-9.8483,0.115,2.6435,4.5217,0.0696
385,0.1533,-9.7717,0.1916,2.3652,4.5913,0.0
390,0.2682,-9.8483,0.3066,2.087,4.6609,0.0
395,0.115,-9.7334,0.2682,1.8087,4.5217,-0.0696
400,0.115,-9.6567,0.2299,1.5304,4.4522,0.0
405,0.1916,-9.81,0.1916,1.3217,4.5217,0.0
410,0.0766,-9.7717,0.2682,1.1826,4.5217,0.0
415,0.2299,-9.7717,0.3832,1.1826,4.5217,0.0
420,0.0383,-9.7717,0.2299,1.3913,4.5913,-0.0696
425,0.0766,-9.7717,0.2682,1.4609,4.4522,-0.2087
430,0.0766,-9.7334,0.2682,1.4609,4.313,-0.2087
435,0.0766,-9.7717,0.2299,1.6,4.3826,-0.3478
440,0.1916,-9.7717,0.2299,1.6,4.5217,-0.3478
445,0.115,-9.7334,0.115,1.3913,4.5913,-0.3478
450,0.1916,-9.7717,0.1533,1.3913,4.7304,-0.2783
455,0.0766,-9.6567,0.2299,1.3217,4.9391,-0.5565
460,0.115,-9.7334,0.1533,1.4609,5.0087,-0.4174
465,0.0383,-9.7717,0.3449,1.6,5.2174,-0.2087
470,0.1533,-9.7717,0.3449,1.8783,5.287,-0.1391
475,0.1916,-10.0016,0.3832,2.5043,5.287,0.2087
480,0.115,-9.81,0.3449,2.7826,5.2174,-0.0696
485,0.0766,-9.925,0.2682,2.9217,5.2174,-0.0696
490,0.2682,-9.7334,0.4215,3.1304,4.9391,0.0696
495,0.1916,-9.7717,0.2682,3.1304,4.8,-0.0696
500,0.2299,-9.7717,0.2682,3.1304,4.7304,0.0
505,0.1916,-9.81,0.4215,3.1304,4.7304,0.1391
510,0.2299,-9.7717,0.2682,3.2,4.8,0.1391
515,0.0766,-9.7334,0.4215,2.8522,4.9391,-0.2087
520,0.2682,-9.7717,0.3449,2.6435,4.9391,-0.2783
525,0.115,-9.81,0.4215,2.4348,4.9391,-0.2783
530,0.1533,-9.81,0.3832,2.2261,5.0783,-0.2783
535,0.3066,-9.81,0.3832,2.1565,5.2174,-0.4174
540,0.2299,-9.7717,0.3449,2.087,5.287,-0.487
545,0.2682,-9.81,0.3449,2.087,5.3565,-0.4174
550,0.1916,-9.81,0.3066,1.9478,5.287,-0.3478
555,0.2682,-9.8483,0.7281,1.8783,5.2174,-0.2783
560,0.2299,-9.7334,0.4215,1.6696,5.2174,-0.2783
565,0.0766,-9.7717,0.3449,1.4609,5.1478,-0.3478
570,0.2299,-9.695,0.2682,1.2522,4.9391,-0.4174
575,0.0766,-9.7717,0.3832,1.113,4.7304,-0.487
580,0.2299,-9.7334,0.4598,0.7652,4.5913,-0.487
585,0.2299,-9.695,0.1916,0.6957,4.5913,-0.5565
590,0.2682,-9.7334,0.2299,0.6261,4.5217,-0.5565
595,0.1533,-9.8483,0.3066,0.6957,4.6609,-0.2783
600,0.3449,-9.8483,0.2682,0.6261,4.6609,-0.487
605,0.1916,-9.8483,0.115,0.4174,4.7304,-0.4174
610,0.1533,-9.695,0.3449,0.2783,4.7304,-0.2783
615,0.2299,-9.8866,0.3449,0.0696,5.0087,-0.1391
620,0.1916,-9.7334,0.2299,0.0,5.0783,-0.0696
625,0.2299,-9.7717,0.3832,-0.0696,5.0087,-0.0696
630,0.1916,-9.81,0.3449,-0.0696,4.9391,0.0
635,0.115,-9.81,0.5365,-0.0696,4.9391,0.0
640,0.2299,-9.695,0.3449,0.0696,4.9391,-0.0696
645,0.1533,-9.7717,0.3832,0.2087,5.0087,-0.1391
650,0.2682,-9.8483,0.2682,0.2783,5.0783,-0.1391
655,0.1916,-9.7717,0.3449,0.1391,5.1478,-0.2087
660,0.1533,-9.81,0.3066,0.2087,5.1478,-0.2087
665,0.1916,-9.8483,0.5748,0.0696,5.0087,-0.2087
670,0.1916,-9.695,0.4982,0.0,5.0087,-0.1391
675,0.1916,-9.8483,0.3449,-0.1391,5.0087,-0.1391
680,0.1916,-9.7717,0.3832,-0.1391,4.9391,-0.0696
685,0.1533,-9.7717,0.3832,-0.0696,5.0087,-0.2087
690,0.1533,-9.8866,0.4982,0.0696,5.1478,-0.0696
695,0.2299,-9.8483,0.3066,0.1391,5.1478,-0.1391
700,0.2299,-9.81,0.4215,0.2783,5.2174,-0.2087
705,0.2682,-9.8483,0.4215,0.487,5.1478,-0.1391
710,0.2682,-9.7717,0.4215,0.5565,5.1478,-0.1391
715,0.1916,-9.81,0.4982,0.6957,5.1478,0.0
720,0.115,-9.6567,0.3832,0.6261,5.0783,0.0
725,0.0,-9.81,-0.0383,0.6261,4.9391,-0.0696
730,0.2682,-9.7717,0.4982,0.487,4.8696,-0.1391
735,0.1916,-9.81,0.4215,0.487,4.8696,-0.3478
740,0.2299,-9.7717,0.3449,0.3478,4.9391,-0.0696
745,0.115,-9.7717,0.2299,0.2087,5.0087,0.0
750,0.0766,-9.6184,0.4215,0.0696,5.1478,-0.0696
755,0.1533,-9.925,0.3449,0.1391,5.1478,-0.1391
760,0.115,-9.7717,0.4215,0.1391,5.287,-0.1391
765,0.1533,-9.695,0.4215,0.2087,5.287,-0.2087
770,0.1533,-9.8483,0.3832,0.2783,5.287,-0.2087
775,0.1533,-9.7717,0.3449,0.3478,5.287,-0.2783
780,0.1916,-9.7334,0.4598,0.2783,5.2174,-0.2783
785,0.0766,-9.5801,0.3066,0.2087,5.0783,-0.2087
790,0.1916,-9.81,0.5365,0.0696,5.1478,-0.2087
795,0.115,-9.695,0.3449,-0.1391,5.0783,-0.2087
800,0.2299,-9.81,0.2682,0.0,5.0783,0.2087
805,0.1533,-9.81,0.3832,0.0696,5.0783,-0.1391
810,0.1533,-9.695,0.2682,0.0,5.0783,-0.2087
815,0.3066,-9.8483,0.5365,-0.0696,5.0783,-0.2087
820,0.1916,-9.7717,0.3066,-0.1391,5.0783,-0.2087
825,0.1916,-9.81,0.3832,-0.2087,5.0783,-0.2783
830,0.1533,-9.7334,0.3449,-0.2087,4.9391,-0.2087
835,0.0766,-9.7334,0.115,-0.0696,5.0783,-0.4174
840,0.1533,-9.7334,0.4598,-0.1391,5.0087,-0.3478
845,0.115,-9.7717,0.3832,0.0,5.0783,-0.1391
850,0.1916,-9.7717,0.3449,-0.1391,5.0783,-0.2087
855,0.2299,-9.6567,0.4598,-0.2087,5.0783,0.0
860,0.1533,-9.695,0.3832,-0.2087,5.0783,-0.2087
865,0.2299,-9.7717,0.4215,-0.2783,5.0087,-0.2087
870,0.1916,-9.7334,0.4215,-0.2783,5.0783,-0.2783
875,0.115,-9.8866,0.4215,-0.2783,5.2174,-0.2783
880,0.0766,-9.7334,0.3832,-0.3478,5.3565,-0.3478
885,0.1916,-9.7334,0.4215,-0.4174,5.4957,-0.3478
890,0.2682,-9.8866,0.4598,-0.3478,5.5652,-0.2783
895,0.2299,-9.81,0.4982,-0.4174,5.4957,-0.2783
900,0.1916,-9.695,0.3449,-0.3478,5.4957,-0.2783
905,0.1533,-9.81,0.3832,-0.0696,5.4957,0.0
910,0.115,-9.695,0.2682,0.0,5.4957,-0.2783
915,0.2682,-9.81,0.5365,-0.0696,5.5652,-0.2783
920,0.0383,-9.7334,0.4982,-0.0696,5.5652,-0.3478
925,0.115,-9.7717,0.5365,0.0,5.4261,-0.2783
930,0.1916,-9.6567,0.3066,0.0,5.4957,-0.2087
935,0.1916,-9.7717,0.3832,-0.1391,5.4261,-0.2783
940,0.1533,-9.695,0.5365,-0.1391,5.5652,-0.2087
945,0.1916,-9.7717,0.4598,-0.2087,5.5652,-0.1391
950,0.1533,-9.7717,0.3832,-0.2087,5.5652,0.0
955,0.115,-9.7334,0.3066,-0.1391,5.5652,-0.0696
960,0.1533,-9.8483,0.4598,-0.1391,5.5652,0.2783
965,0.1916,-9.7717,0.4215,0.0,5.4957,0.4174
970,0.2299,-9.81,0.3832,-0.2087,5.3565,0.3478
975,0.1533,-9.81,0.2682,-0.2783,5.3565,0.1391
980,0.1533,-9.8483,0.4982,-0.2783,5.3565,-0.0696
985,0.2299,-9.9633,0.4598,0.0,5.5652,-0.0696
990,0.2682,-9.8866,0.4215,0.487,5.5652,0.0
995,0.1916,-9.9633,0.4215,1.6696,5.5652,-0.4174
1000,0.1916,-9.9633,0.3066,3.1304,5.6348,-0.2783
1005,0.2299,-9.8866,0.3832,5.0783,5.5652,-0.2087
1010,0.2299,-9.925,0.3066,6.5391,5.5652,0.0696
1015,0.1533,-9.7717,0.3066,7.2348,5.5652,-0.2783
1020,0.1916,-9.8483,0.4598,7.8609,5.4957,-0.0696
1025,0.0766,-9.7717,0.3832,7.8609,5.1478,-0.1391
1030,0.115,-9.695,0.5748,7.4435,5.0783,-0.3478
1035,0.2682,-9.7717,0.4982,7.0957,5.0783,-0.0696
1040,0.1533,-9.7717,0.5365,6.4,5.1478,-0.1391
1045,0.0766,-9.7334,0.4215,5.5652,5.1478,-0.2783
1050,0.115,-9.695,0.4598,4.9391,5.0783,-0.2087
1055,0.1533,-9.695,0.4215,4.1739,5.1478,-0.2783
1060,0.115,-9.695,0.5748,3.6174,5.287,-0.1391
1065,0.115,-9.8483,0.4982,3.2696,5.4261,0.0
1070,0.0,-9.7717,0.5365,2.713,5.4261,-0.2087
1075,0.1533,-9.8483,0.6131,2.2261,5.4957,-0.3478
1080,0.0766,-9.695,0.4215,2.087,5.287,-0.3478
1085,0.0766,-9.7717,0.5365,1.8783,5.1478,-0.4174
1090,0.0,-9.7717,0.4215,1.6696,4.8,-0.487
1095,0.0383,-9.7334,0.4598,1.3913,4.5217,-0.487
1100,0.0383,-9.6567,0.4215,1.0435,4.3826,-0.487
1105,0.115,-9.81,0.3449,0.7652,4.2435,-0.5565
1110,0.0766,-9.7334,0.6131,0.6957,4.4522,-0.5565
1115,0.2682,-9.7334,0.4982,0.8348,4.5913,-0.2783
1120,0.1916,-9.8483,0.5365,0.9043,4.7304,-0.487
1125,0.2682,-9.925,0.6514,0.8348,4.8,-0.5565
1130,0.115,-9.8483,0.4598,0.8348,4.6609,-0.487
1135,0.1916,-9.81,0.5748,0.6261,4.5913,-0.487
1140,0.1533,-9.8483,0.5748,0.487,4.5217,-0.5565
1145,0.2299,-9.7717,0.4982,0.1391,4.3826,-0.5565
1150,0.1916,-9.8866,0.5748,-0.2087,4.5913,-0.5565
1155,0.0766,-9.695,0.5365,-0.5565,4.7304,-0.6261
1160,0.115,-9.6184,0.5748,-0.9043,4.8,-0.6261
1165,0.1533,-9.6567,0.5365,-1.1826,4.9391,-0.6261
1170,0.2299,-9.81,0.5365,-1.4609,5.1478,-0.6261
1175,0.1533,-9.7717,0.6131,-1.6,5.2174,-0.6957
1180,0.1533,-9.6567,0.5748,-1.8087,5.287,-0.6957
1185,0.1533,-9.7717,0.4982,-1.8087,5.287,-0.7652
1190,0.115,-9.81,0.6131,-1.8087,5.1478,-0.6957
1195,0.1916,-9.6567,0.6514,-1.7391,4.9391,-0.6261
1200,0.2299,-9.7717,0.4598,-1.8783,4.7304,-0.6261
1205,0.2682,-9.7334,0.6514,-1.9478,4.5913,-0.5565
1210,0.1916,-9.695,0.4982,-2.0174,4.4522,-0.6261
1215,0.1916,-9.8483,0.6514,-2.087,4.2435,-0.6261
1220,0.1916,-9.8483,0.5748,-2.2957,4.0348,-0.487
1225,0.115,-9.81,0.5365,-2.5043,3.9652,-0.487
1230,0.2299,-9.695,0.6131,-2.8522,3.8957,-0.487
1235,0.1916,-9.695,0.5365,-2.9217,3.9652,-0.3478
1240,0.0766,-9.7717,0.5748,-2.8522,3.8957,-0.4174
1245,0.2299,-9.7334,0.5365,-2.9217,3.9652,-0.3478
1250,0.2299,-9.81,0.3832,-2.9217,4.0348,-0.4174
1255,0.1916,-9.695,0.4982,-2.9217,4.1043,-0.4174
1260,0.0766,-9.7334,0.4598,-3.0609,4.1043,-0.4174
1265,0.1533,-9.6567,0.4982,-3.0609,4.1739,-0.4174
1270,0.1533,-9.7717,0.4598,-3.1304,4.1739,-0.4174
1275,0.2682,-9.7717,0.5365,-3.1304,4.2435,-0.3478
1280,0.1533,-9.8483,0.5748,-3.2,4.3826,-0.4174
1285,0.3066,-9.8483,0.3832,-3.2,4.4522,-0.2783
1290,0.1916,-9.81,0.5748,-3.0609,4.5217,-0.3478
1295,0.1533,-9.7334,0.4215,-3.0609,4.5217,-0.2087
1300,0.1533,-9.81,0.4982,-3.0609,4.3826,-0.1391
1305,0.1916,-9.925,0.4598,-3.0609,4.1739,-0.2087
1310,0.115,-9.7717,0.6131,-3.0609,4.1043,-0.2783
1315,0.115,-9.8866,0.5365,-3.0609,4.1739,-0.2783
1320,0.1533,-9.81,0.5748,-2.9913,4.1043,-0.3478
1325,0.2299,-9.7717,0.4598,-2.9217,4.1043,-0.4174
1330,0.115,-9.7334,0.4982,-2.9217,4.1739,-0.4174
1335,0.115,-9.81,0.4215,-2.9913,4.2435,-0.487
1340,0.115,-9.7334,0.4215,-2.9913,4.2435,-0.6261
1345,0.2299,-9.6567,0.3832,-3.2,4.313,-0.487
1350,0.0766,-9.7334,0.4215,-3.1304,4.5217,-0.487
1355,0.1533,-9.7334,0.3066,-3.3391,4.5217,-0.487
1360,0.2299,-9.7717,0.3832,-3.3391,4.5217,-0.3478
1365,0.1533,-9.81,0.4215,-3.4087,4.5217,-0.3478
1370,0.4215,-9.7334,0.5365,-3.6174,4.5217,-0.487
1375,0.115,-9.6567,0.4598,-3.7565,4.5913,-0.4174
1380,0.0766,-9.7717,0.4982,-3.8957,4.5913,-0.487
1385,0.115,-9.81,0.3832,-4.0348,4.5217,-0.5565
1390,0.2299,-9.8866,0.4598,-3.9652,4.6609,-0.6261
1395,0.1916,-9.81,0.4215,-4.0348,4.7304,-0.5565
1400,0.115,-9.8483,0.4598,-4.0348,4.7304,-0.6261
1405,0.115,-9.7717,0.4598,-4.2435,4.8,-0.5565
1410,0.115,-9.7334,0.4215,-4.313,4.8696,-0.5565
1415,0.0766,-9.81,0.4215,-4.5217,4.8696,-0.5565
1420,0.115,-9.7717,0.4982,-4.6609,5.0087,-0.6261
1425,0.1916,-9.7717,0.4598,-4.8,4.9391,-0.6957
1430,0.1916,-9.7717,0.4982,-4.8,4.9391,-0.7652
1435,0.3066,-9.8483,0.3449,-4.9391,5.0087,-0.8348
1440,0.1533,-9.695,0.3832,-5.0087,5.0087,-0.8348
1445,0.1533,-9.695,0.4598,-5.0087,5.1478,-0.9043
1450,0.1916,-9.81,0.5365,-5.1478,5.2174,-1.0435
1455,0.0766,-9.6567,0.5365,-5.1478,5.2174,-0.9043
1460,0.1916,-9.7717,0.4598,-5.2174,5.0783,-0.9043
1465,0.3066,-9.7334,0.4598,-5.287,5.0783,-0.8348
1470,0.1916,-9.6567,0.3449,-5.4957,5.0087,-1.0435
1475,0.1533,-9.8483,0.3832,-5.4957,4.9391,-0.9739
1480,0.2299,-9.7717,0.3449,-5.7043,4.8,-0.9043
1485,0.2299,-9.7334,0.6131,-5.7043,4.5913,-0.8348
1490,0.1533,-9.7334,0.3066,-5.7739,4.5217,-0.8348
1495,0.1533,-9.7717,0.4215,-5.8435,4.5913,-0.8348
1500,0.1533,-9.8866,0.3832,-5.7739,4.6609,-0.9043
1505,0.1916,-9.8483,0.4215,-5.6348,4.5913,-0.6957
1510,0.2299,-9.7717,0.3832,-5.4957,4.4522,-0.7652
1515,0.0766,-9.81,0.4598,-5.4957,4.5217,-0.7652
1520,0.1533,-9.7334,0.4215,-5.287,4.5217,-0.8348
1525,0.3066,-9.7717,0.3449,-5.2174,4.6609,-0.6957
1530,0.2299,-9.7334,0.4215,-5.2174,4.6609,-0.7652
1535,0.115,-9.6567,0.2682,-5.2174,4.5913,-0.8348
1540,0.1533,-9.6567,0.4215,-5.287,4.5913,-0.8348
1545,0.1916,-9.6567,0.3449,-5.3565,4.6609,-0.9043
1550,0.2299,-9.6184,0.3066,-5.4261,4.5913,-0.7652
1555,0.2682,-9.7717,0.3066,-5.4957,4.6609,-0.8348
1560,0.1916,-9.81,0.3832,-5.5652,4.5217,-0.6957
1565,0.1916,-9.6567,0.2299,-5.5652,4.3826,-0.6957
1570,0.1533,-9.81,0.2682,-5.4957,4.4522,-0.6261
1575,0.115,-9.81,0.3449,-5.2174,4.313,-0.6957
1580,0.115,-9.8483,0.3066,-5.1478,4.313,-0.6261
1585,0.2682,-9.81,0.3066,-5.0087,4.3826,-0.6261
1590,0.1916,-9.7717,0.2299,-5.0783,4.313,-0.6261
1595,0.3066,-9.925,0.5365,-4.8,4.3826,-0.6261
1600,0.2299,-9.7717,0.2682,-4.5913,4.4522,-0.7652
1605,0.1916,-9.8866,0.3066,-4.3826,4.3826,-0.6957
1610,0.115,-9.7717,0.1916,-4.2435,4.313,-0.6261
1615,0.115,-9.7717,0.3066,-4.2435,4.1739,-0.6261
1620,0.2299,-9.7334,0.1916,-4.1043,4.1739,-0.6957
1625,0.1916,-9.7717,0.2682,-4.0348,3.9652,-0.6957
1630,0.1916,-9.8483,0.1916,-3.8957,3.8261,-0.6261
1635,0.1916,-9.8866,0.2299,-3.687,3.7565,-0.5565
1640,0.1533,-9.695,0.115,-3.6174,3.8261,-0.5565
1645,0.2299,-9.81,0.2299,-3.5478,3.8261,-0.487
1650,0.1916,-9.7717,0.2682,-3.6174,3.8957,-0.4174
1655,0.2299,-9.8483,0.1916,-3.6174,3.9652,-0.2783
1660,0.2299,-9.7717,0.2682,-3.5478,4.0348,-0.2783
1665,0.115,-9.8866,0.3066,-3.6174,4.1739,-0.2087
1670,0.1916,-9.7717,0.2682,-3.4783,4.1739,-0.2783
1675,0.2299,-9.7717,0.3449,-3.2696,4.3826,-0.2783
1680,0.3066,-9.8866,0.3066,-3.2,4.4522,-0.4174
1685,0.2299,-9.8483,0.3832,-3.0609,4.5217,-0.3478
1690,0.2682,-9.695,0.3066,-3.0609,4.6609,-0.4174
1695,0.115,-9.81,0.3066,-3.0609,4.6609,-0.487
1700,0.3066,-9.8483,0.3449,-2.9913,4.6609,-0.5565
1705,0.2682,-9.81,-0.115,-2.9217,4.6609,-0.6261
1710,0.2682,-9.7717,0.3449,-2.8522,4.5913,-0.6261
1715,0.1533,-9.695,0.3449,-2.9913,4.6609,-0.487
1720,0.1533,-9.7717,0.3449,-3.1304,4.6609,-0.487
1725,0.0766,-9.7717,0.2682,-3.3391,4.6609,-0.487
1730,0.115,-9.81,0.3066,-3.5478,4.5217,-0.3478
1735,0.0383,-9.7334,0.3449,-3.7565,4.5913,-0.3478
1740,0.0766,-9.7334,0.4215,-3.8261,4.4522,-0.4174
1745,0.2299,-9.7717,0.3066,-3.8261,4.3826,-0.487
1750,0.115,-9.8866,0.3066,-3.6174,4.2435,-0.7652
1755,0.1533,-9.81,0.2299,-3.4783,4.0348,-0.7652
1760,0.1916,-9.7334,0.3066,-3.2,3.7565,-0.6261
1765,0.1916,-9.81,0.1533,-3.1304,3.6174,-0.487
1770,0.0766,-9.695,0.1533,-2.7826,3.4087,-0.487
1775,0.1916,-9.7717,0.1533,-2.5043,3.5478,-0.3478
1780,0.1916,-9.8483,0.1916,-2.087,3.687,-0.2783
1785,0.2682,-9.8866,0.115,-1.6696,3.8261,-0.1391
1790,0.2299,-9.925,0.3066,-1.3913,4.0348,-0.1391
1795,0.2299,-9.695,0.115,-1.2522,4.2435,-0.0696
1800,0.2299,-9.7717,0.115,-1.2522,4.2435,-0.0696
1805,0.2682,-9.7334,0.3066,-1.2522,4.4522,-0.1391
1810,0.3449,-10.1166,0.3449,-1.3913,4.5217,-0.2087
1815,0.2299,-9.81,0.2682,-1.6,4.5217,-0.2783
1820,0.1916,-9.7334,0.115,-1.8783,4.5217,-0.487
1825,0.2299,-9.7717,0.1916,-2.087,4.5217,-0.6261
1830,0.1916,-9.6567,0.2299,-2.2261,4.5913,-0.6261
1835,0.1533,-9.81,0.3066,-2.5043,4.6609,-0.5565
1840,0.1533,-9.695,0.2299,-2.6435,4.6609,-0.6261
1845,0.1533,-9.695,0.1533,-2.8522,4.6609,-0.6261
1850,0.2299,-9.81,0.1916,-2.9913,4.7304,-0.8348
1855,0.2682,-9.7717,0.1533,-3.0609,4.7304,-0.8348
1860,0.2299,-9.695,0.3449,-3.0609,4.7304,-0.7652
1865,0.1916,-9.81,0.3066,-3.1304,4.7304,-0.9043
1870,0.2299,-9.7334,0.2299,-3.4087,4.5913,-0.9739
1875,0.3066,-9.8483,0.2299,-3.5478,4.5913,-0.9043
1880,0.2299,-9.7334,0.1533,-3.8261,4.6609,-0.9043
1885,0.2682,-9.7717,0.1533,-4.313,4.6609,-0.9043
1890,0.2299,-9.695,0.115,-5.0087,4.4522,-0.8348
1895,0.2299,-9.81,0.1533,-5.913,4.5217,-0.7652
1900,0.1533,-9.7334,-0.0383,-6.8174,4.5217,-0.9043
1905,0.1916,-9.695,0.0,-7.7217,4.5217,-1.0435
1910,0.1916,-9.7717,0.0766,-8.4174,4.6609,-1.1826
1915,0.1533,-9.81,0.0766,-8.6261,4.5217,-1.113
1920,0.3832,-9.925,0.0383,-8.5565,4.5217,-1.1826
1925,0.2299,-9.81,0.0766,-8.1391,4.3826,-1.113
1930,0.2682,-9.8866,0.0383,-7.513,4.5217,-1.0435
1935,0.2682,-9.7717,0.0383,-6.5391,4.6609,-0.9739
1940,0.1916,-9.7717,0.0383,-5.4957,4.6609,-0.8348
1945,0.1916,-9.7334,0.115,-4.6609,4.7304,-0.6261
1950,0.2299,-9.8866,0.115,-3.8957,4.7304,-0.487
1955,0.2299,-9.695,0.0766,-3.4783,4.9391,-0.4174
1960,0.2299,-9.7717,0.1916,-3.2,5.0783,-0.4174
1965,0.2299,-9.7334,0.3832,-3.2,5.0783,-0.4174
1970,0.2299,-9.8483,0.0766,-3.1304,5.287,-0.2783
1975,0.1916,-9.8483,0.2299,-3.3391,5.3565,-0.2087
1980,0.1916,-9.81,0.2299,-3.4783,5.4957,-0.2783
1985,0.1533,-9.81,0.1533,-3.4783,5.3565,-0.3478
1990,0.3066,-9.7717,0.1533,-3.4087,5.287,-0.2783
1995,0.2682,-9.8866,0.1533,-3.2696,5.1478,-0.2783
2000,0.2299,-9.8866,0.1533,-3.0609,5.1478,-0.1391
2005,0.2682,-9.8866,0.0383,-2.9217,5.0087,-0.2087
2010,0.3832,-9.8483,0.115,-2.713,4.9391,-0.2087
2015,0.1916,-9.7717,0.0766,-2.2957,4.9391,-0.1391
2020,0.3066,-9.81,0.2682,-2.0174,5.0087,0.0
2025,0.2299,-9.7717,0.1916,-1.6696,4.9391,0.0696
2030,0.1533,-9.7717,-0.2682,-1.5304,4.9391,0.1391
2035,0.2299,-9.7334,0.1533,-1.1826,5.0087,0.2087
2040,0.1533,-9.695,0.0383,-1.113,5.0783,0.1391
2045,0.1533,-9.7717,0.3066,-1.0435,5.0087,0.0696
2050,0.115,-9.8866,0.115,-1.0435,5.0087,0.0696
2055,0.3066,-9.8866,0.0766,-1.113,5.0087,0.1391
2060,0.1916,-9.8483,0.3066,-0.9739,5.0087,0.1391
2065,0.2299,-9.81,0.2682,-0.8348,5.0087,0.0696
2070,0.115,-9.81,0.2299,-0.6957,5.1478,0.1391
2075,0.1916,-9.8483,0.115,-0.487,4.9391,0.0696
2080,0.1916,-9.925,0.2682,-0.4174,5.0783,0.0696
2085,0.1916,-9.81,0.115,-0.3478,5.0783,0.0696
2090,0.1916,-9.81,0.2682,-0.0696,5.0783,-0.1391
2095,0.1916,-9.8483,0.1533,0.0,5.0087,0.0
2100,0.1533,-9.81,0.2682,0.0,5.0783,0.0696
2105,0.2682,-9.81,0.1916,-0.1391,5.0087,0.0696
2110,0.115,-9.695,0.2682,-0.2087,5.0783,0.0
2115,0.1916,-9.7717,0.0766,-0.0696,5.1478,0.0696
2120,0.2682,-9.8866,0.115,-0.0696,5.0783,-0.0696
2125,0.2299,-9.8866,0.0766,0.0,5.0087,-0.1391
2130,0.1916,-9.81,0.115,-0.0696,4.9391,-0.1391
2135,0.2299,-9.7717,0.0766,-0.2783,4.9391,-0.2087
2140,0.115,-9.8483,0.6131,-0.2783,4.8696,-0.0696
2145,0.1533,-9.7334,0.0766,-0.2783,4.9391,-0.2783
2150,0.2299,-9.925,0.0,-0.2087,4.9391,-0.2783
2155,0.2299,-9.7334,0.0766,-0.2087,4.8696,-0.2783
2160,0.2299,-9.81,0.0383,-0.0696,4.9391,-0.4174
2165,0.2299,-9.7717,0.0383,-0.0696,4.9391,-0.4174
2170,0.1916,-9.81,0.0766,-0.1391,4.9391,-0.3478
2175,0.2299,-9.7717,0.0383,-0.2087,5.0087,-0.2783
2180,0.2682,-9.9633,0.115,-0.2783,5.0783,-0.2783
2185,0.1916,-9.81,0.0,-0.2783,5.0783,-0.2783
2190,0.2299,-9.7717,-0.0383,-0.2783,5.0087,-0.2087
2195,0.1533,-9.695,0.0,-0.4174,4.9391,-0.2783
2200,0.1533,-9.81,0.0766,-0.3478,4.9391,-0.3478
2205,0.1916,-9.7717,0.1533,-0.5565,4.8,-0.2783
2210,0.1916,-9.7717,0.0766,-0.5565,4.8696,-0.1391
2215,0.1533,-9.7717,0.115,-0.6261,4.9391,-0.1391
2220,0.1916,-9.7717,0.1533,-0.5565,4.7304,-0.1391
2225,0.2299,-9.8483,0.0,-0.5565,4.5217,-0.1391
2230,0.1916,-9.8483,0.1533,-0.4174,4.4522,-0.1391
2235,0.1533,-9.8483,0.0766,-0.4174,4.5913,-0.1391
2240,0.1916,-9.7334,0.3449,-0.3478,4.7304,0.0
2245,0.3449,-9.4651,0.1916,-0.3478,4.8696,-0.1391
2250,0.2682,-9.81,0.2682,-0.2087,4.8696,-0.2087
2255,0.2682,-9.8866,0.115,-0.1391,4.9391,-0.2087
2260,0.2299,-9.7717,0.1916,-0.2087,5.0087,-0.2783
2265,0.2682,-9.81,0.115,-0.2783,5.0087,-0.4174
2270,0.1533,-9.7717,0.2682,-0.2783,4.9391,-0.4174
2275,0.1533,-9.8483,0.1533,-0.2087,4.8696,-0.3478
2280,0.1916,-9.7717,0.1533,-0.2087,4.7304,-0.3478
2285,0.2682,-9.925,0.1533,-0.2087,4.7304,-0.4174
2290,0.2299,-9.6567,0.0766,-0.2783,4.6609,-0.3478
2295,0.2299,-9.7334,0.1533,-0.1391,4.8,-0.4174
2300,0.1916,-9.695,0.0383,0.0,4.6609,-0.2783
2305,0.2299,-9.7334,0.1533,0.1391,4.7304,-0.3478
2310,0.2682,-9.7334,0.0766,0.0696,4.6609,-0.2783
2315,0.1916,-9.7334,0.1916,0.1391,4.7304,-0.2087
2320,0.3449,-9.8483,0.0766,0.1391,4.7304,-0.2783
2325,0.1916,-9.7334,0.0766,-0.1391,4.8696,-0.2783
2330,0.0766,-9.7717,0.1533,-0.3478,5.0087,-0.3478
2335,0.2682,-9.8483,-0.0383,-0.5565,4.9391,-0.2783
2340,0.0766,-9.8483,0.1533,-0.4174,4.9391,-0.2783
2345,0.2682,-9.8483,0.0,-0.2087,4.8696,-0.3478
2350,0.1533,-9.7334,0.115,-0.1391,5.0087,-0.3478
2355,0.1916,-9.7717,0.2299,-0.2087,5.0783,-0.2783
2360,0.1533,-9.8483,0.1533,-0.2087,5.0087,-0.2783
2365,0.1533,-9.695,0.3066,-0.1391,5.0087,-0.2087
2370,0.2299,-9.7717,0.0766,-0.0696,4.8696,-0.2087
2375,0.1916,-9.6567,0.2299,-0.0696,4.8696,-0.2087
2380,0.2299,-9.7717,0.1916,-0.2087,4.8696,-0.2087
2385,0.2682,-9.7717,0.1533,-0.3478,4.7304,-0.3478
2390,0.1533,-9.81,0.1916,-0.487,4.6609,-0.4174
2395,0.1533,-9.7334,0.3066,-0.7652,4.5217,-0.4174
2400,0.1916,-9.81,0.2299,-0.8348,4.5217,-0.4174
2405,0.1916,-9.8483,0.3066,-1.0435,4.4522,-0.4174
2410,0.1916,-9.7334,0.3449,-1.113,4.4522,-0.4174
2415,0.115,-9.7717,0.0383,-1.113,4.4522,-0.487
2420,0.115,-9.8866,0.115,-1.113,4.5217,-0.5565
2425,0.1533,-9.8866,0.2682,-1.0435,4.4522,-0.5565
2430,0.1916,-9.81,0.1533,-0.7652,4.3826,-0.6261
2435,0.1916,-9.7717,0.1533,-0.487,4.5913,-0.6957
2440,0.1533,-9.7334,0.1533,-0.0696,4.5217,-0.6957
2445,0.0766,-9.7334,-0.115,0.1391,4.5913,-0.7652
2450,0.2682,-9.7717,0.0,0.2087,4.6609,-0.6261
2455,0.115,-9.695,-0.115,0.2783,4.5217,-0.5565
2460,0.2299,-9.81,0.1533,0.1391,4.6609,-0.4174
2465,0.1533,-9.7717,0.115,0.1391,4.8,-0.2783
2470,0.1533,-9.7717,0.0,0.1391,4.8,-0.2783
2475,0.2682,-9.8866,0.2299,0.2087,4.8,-0.3478
2480,0.1916,-9.7717,0.3066,0.2783,4.7304,-0.2783
2485,0.2299,-9.7717,0.0766,0.2087,4.5913,-0.2783
2490,0.1916,-9.7717,0.1533,0.0,4.3826,-0.4174
2495,0.115,-9.7334,0.1916,0.0,4.2435,-0.4174
2500,0.2299,-9.8483,0.3066,-0.1391,3.9652,-0.6261
2505,0.1916,-9.81,0.2299,-0.2783,3.8957,-0.6957
2510,0.0766,-9.7717,0.3832,-0.4174,3.9652,-0.7652
2515,0.0766,-9.81,0.1533,-0.5565,3.9652,-0.7652
2520,-0.0383,-9.695,0.0,-0.8348,3.8957,-0.8348
2525,0.0766,-9.81,0.2299,-1.2522,3.8957,-0.8348
2530,0.115,-9.81,0.1533,-1.8087,3.687,-0.6957
2535,0.1533,-9.7717,0.1533,-2.3652,3.4783,-0.6957
2540,0.0766,-9.6567,0.0383,-2.9913,3.1304,-0.6957
2545,0.3066,-9.7334,0.0383,-3.5478,2.8522,-0.6957
2550,0.3066,-9.7334,0.115,-4.4522,2.6435,-0.7652
2555,0.3832,-9.7334,0.115,-6.0522,2.1565,-0.8348
2560,0.2299,-9.7334,-0.0766,-8.1391,1.3217,-0.9043
2565,0.2299,-9.6567,-0.1533,-10.5739,-0.0696,-1.1826
2570,0.3066,-9.695,0.0383,-12.5913,-1.8087,-1.4609
2575,0.3066,-9.6567,-0.1916,-13.8435,-3.4087,-1.6
2580,0.3066,-9.5418,-0.2682,-15.3739,-4.8696,-1.6
2585,0.3449,-9.5034,-0.3832,-17.1826,-6.2609,-1.2522
2590,0.3066,-9.5034,-0.5748,-19.2696,-6.8174,-0.7652
2595,0.2682,-9.4268,-0.3832,-21.4261,-6.887,0.0
2600,0.5365,-9.4268,-0.4982,-23.6522,-6.1217,0.5565
2605,0.4215,-9.3885,-0.6131,-26.1565,-5.0087,1.2522
2610,0.4215,-9.3118,-0.7281,-28.8696,-3.6174,1.8087
2615,0.6131,-9.3502,-0.6514,-31.7913,-2.4348,2.3652
2620,0.5365,-9.1969,-0.843,-35.9652,-1.3217,2.8522
2625,0.6131,-8.8903,-1.3795,-42.2261,-0.7652,3.5478
2630,0.6514,-9.1202,-1.6478,-50.6435,-0.5565,4.1739
2635,0.7281,-9.0053,-2.0693,-59.4783,-0.487,4.9391
2640,0.8047,-8.967,-2.6441,-67.4783,-0.2783,5.9826
2645,0.843,-9.1586,-3.0656,-75.4783,0.487,7.3739
2650,0.8814,-9.5418,-3.1806,-83.3391,2.0174,9.0435
2655,0.7664,-10.3848,-2.874,-85.7739,4.6609,10.3652
2660,0.7281,-11.1129,-2.5675,-79.3043,8.8348,11.4783
2665,0.6514,-11.6494,-2.4908,-66.0174,14.0522,12.3826
2670,0.6514,-12.1475,-2.1843,-50.5043,19.2,12.7304
2675,0.3832,-12.5691,-1.8011,-33.113,23.2348,12.5913
2680,0.1533,-12.5691,-1.3795,-12.6609,27.2696,12.1739
2685,0.0383,-11.9943,-1.1113,7.7217,30.8174,12.0348
2690,0.0,-11.6494,-0.9963,24.5565,33.6696,12.7304
2695,-0.0766,-10.7297,-0.9197,36.8,36.1043,13.4261
2700,-0.2299,-10.0399,-1.1113,42.4348,38.6087,13.4261
2705,-0.3832,-9.8483,-1.1496,41.1826,40.4174,13.0783
2710,-0.4598,-10.1932,-0.7281,38.7478,41.113,12.7304
2715,-0.3832,-10.3465,-0.1916,41.5304,40.0696,12.9391
2720,-0.3832,-10.1166,0.4598,49.2522,36.5217,13.8435
2725,-0.1916,-10.0399,0.6898,57.9478,29.913,14.7478
2730,0.0383,-9.7717,1.1113,64.487,21.3565,15.3739
2735,0.2299,-9.4268,1.8011,67.687,12.2435,15.1652
2740,0.3449,-8.8903,2.989,67.7565,3.8261,14.5391
2745,0.4215,-8.0089,3.7937,63.1652,-4.4522,13.4261
2750,0.4215,-7.4341,4.1769,52.5217,-14.2609,12.1739
2755,0.3832,-7.3958,4.1386,38.3304,-23.6522,10.5043
2760,0.5748,-7.5874,3.6021,25.113,-28.2435,8.5565
2765,0.4598,-7.3192,3.0656,14.9565,-27.2696,6.9565
2770,0.3449,-7.1276,2.5675,5.913,-22.887,5.7739
2775,0.2682,-6.9743,1.8394,-4.4522,-17.8783,4.8
2780,0.115,-7.2809,1.2646,-16.6261,-12.8696,3.8957
2785,-0.0766,-7.779,0.6898,-27.9652,-7.7913,3.2
2790,-0.3066,-8.5071,0.8047,-35.8957,-2.9217,2.713
2795,-0.6514,-8.737,0.6514,-40.4174,0.4174,1.8783
2800,-0.958,-9.1202,0.3832,-43.8957,3.3391,0.9739
2805,-1.3795,-9.4268,0.4215,-48.0,6.1217,0.0
2810,-1.6095,-9.8866,0.4215,-52.2435,8.7652,-0.9043
2815,-1.6095,-10.0399,0.3832,-55.6522,10.5739,-1.7391
2820,-1.7244,-9.8866,0.3832,-58.7826,11.5478,-2.7826
2825,-1.7244,-9.695,0.2299,-62.4696,11.7565,-3.7565
2830,-1.5328,-9.81,0.1533,-67.4087,12.1043,-4.4522
2835,-1.4945,-9.4651,0.2299,-73.5304,11.7565,-5.0087
2840,-1.5328,-9.1202,0.0383,-79.9304,10.9217,-4.7304
2845,-1.5328,-8.737,-0.1533,-85.6348,9.3217,-4.3826
2850,-1.3412,-8.2389,0.0383,-93.2174,7.3043,-3.8957
2855,-1.1496,-7.894,0.1533,-101.287,4.8696,-3.4087
2860,-0.5748,-7.8173,0.3449,-109.287,2.7826,-3.2696
2865,-0.4982,-7.7407,0.4598,-117.2174,0.7652,-3.8957
2870,-0.2682,-7.779,0.958,-125.7043,-0.487,-4.9391
2875,-0.3449,-7.894,1.8011,-133.3565,-1.4609,-6.4
2880,0.0766,-8.5071,2.6824,-139.4783,-2.2957,-7.3043
2885,0.115,-9.0819,2.7974,-145.6696,-3.7565,-9.3913
2890,0.3066,-9.695,3.1423,-153.7391,-4.8,-12.1739
2895,0.5748,-10.2698,3.3339,-164.4522,-3.1304,-14.7478
2900,0.8814,-10.7297,3.7937,-177.5304,0.9739,-17.6696
2905,1.3795,-11.2662,3.7554,-189.4957,7.2348,-21.0783
2910,0.8814,-10.9596,3.7937,-198.5391,13.7739,-24.6957
2915,1.9543,-11.2279,2.6824,-203.4783,18.2261,-26.5043
2920,1.8777,-10.2315,1.5711,-206.8174,23.4435,-28.3826
2925,1.6478,-8.852,-0.1916,-206.4696,30.1217,-26.2957
2930,2.4908,-8.5071,-1.9927,-201.9478,34.9217,-21.2174
2935,3.0656,-9.81,-4.6368,-198.0522,34.3652,-17.7391
2940,4.6368,-12.1092,-6.936,-202.713,30.2609,-17.5304
2945,4.7134,-14.0252,-7.7407,-206.2609,31.2348,-19.9652
2950,3.7937,-14.5617,-7.5491,-200.2087,34.9913,-25.9478
2955,2.6441,-14.7533,-6.6677,-178.8522,36.313,-30.0522
2960,0.7664,-15.0216,-5.7864,-149.0087,34.0174,-29.3565
2965,-1.4562,-15.3281,-5.7864,-118.887,30.3304,-23.6522
2970,-2.4525,-15.8263,-5.5181,-94.6783,24.4174,-17.2522
2975,-2.4908,-16.5161,-5.2499,-74.713,16.7652,-11.4087
2980,-2.2992,-16.8226,-5.2116,-57.3217,8.0,-7.8609
2985,-1.2646,-16.9759,-4.9816,-45.1478,-2.087,-7.9304
2990,-0.115,-16.9376,-5.1349,-37.0087,-12.1043,-9.7391
2995,0.3832,-16.2861,-5.0966,-31.513,-20.8696,-12.313
