timestamp,accX,accY,accZ,gyroX,gyroY,gyroZ
0,-0.115,-8.0856,-7.2809,-4.3826,3.4783,1.5304
5,0.0,-8.0856,-7.0126,-4.2435,3.6174,1.6696
10,0.0,-8.0856,-7.0893,-3.8957,3.6174,1.8087
15,-0.0766,-8.1239,-7.2425,-3.6174,3.5478,1.9478
20,-0.0383,-8.1622,-7.1276,-3.4087,3.4783,2.087
25,-0.0766,-8.2005,-7.1659,-3.4087,3.5478,2.087
30,-0.0383,-8.0856,-7.2425,-3.4783,3.5478,2.1565
35,0.0383,-8.1622,-7.3192,-3.4783,3.4783,2.0174
40,-0.0383,-8.2005,-7.3575,-3.4087,3.3391,1.9478
45,-0.0383,-8.2389,-7.2042,-3.2,3.5478,1.7391
50,-0.0383,-8.2005,-7.2042,-2.9913,3.5478,1.6
55,-0.0383,-8.1622,-7.2042,-2.713,3.6174,1.3913
60,-0.1533,-8.2772,-7.3958,-2.4348,3.5478,1.1826
65,-0.115,-8.2389,-7.2425,-2.2261,3.6174,1.0435
70,-0.1916,-8.3538,-7.2809,-2.2261,3.687,0.9043
75,-0.1533,-8.2005,-7.2809,-2.087,3.7565,0.7652
80,-0.1533,-8.3155,-7.2042,-2.1565,3.7565,0.6957
85,-0.0766,-8.1622,-7.2809,-2.1565,3.7565,0.6957
90,-0.115,-8.3538,-7.2425,-1.9478,3.8261,0.9043
95,-0.1533,-8.2389,-7.1276,-1.7391,3.9652,1.0435
100,-0.115,-8.1622,-7.0509,-1.5304,3.8957,1.0435
105,-0.115,-8.1622,-7.1276,-1.3913,3.7565,1.2522
110,-0.0766,-8.2389,-7.1659,-1.2522,3.7565,1.5304
115,-0.0766,-8.1239,-7.2809,-1.1826,3.687,1.6696
120,-0.115,-8.1239,-7.3192,-1.2522,3.687,1.8783
125,-0.0383,-8.2389,-7.2425,-1.3913,3.6174,2.087
130,-0.0383,-8.1239,-7.3958,-1.4609,3.6174,2.087
135,-0.0383,-7.779,-7.7024,-1.7391,3.687,2.0174
140,0.0,-8.1622,-7.2425,-2.0174,3.687,2.0174
145,-0.115,-8.2389,-7.2809,-2.2957,3.7565,2.0174
150,-0.0383,-8.0856,-7.2042,-2.2957,3.7565,1.8783
155,-0.0766,-8.2005,-7.1276,-1.9478,3.6174,1.9478
160,-0.115,-8.2005,-7.1276,-1.6696,3.5478,1.8783
165,0.0,-8.1622,-7.2042,-1.3217,3.4783,1.8783
170,-0.115,-8.1239,-7.2425,-1.2522,3.4783,1.9478
175,-0.0766,-8.2005,-7.1276,-1.0435,3.2696,1.8783
180,0.0,-8.0856,-7.2809,-0.9043,3.2,1.8783
185,-0.0383,-8.1622,-7.2809,-1.113,3.2696,1.8087
190,-0.0766,-8.1622,-7.0509,-1.4609,2.9913,1.7391
195,-0.0383,-8.0473,-7.2042,-1.5304,2.9217,1.3913
200,-0.115,-8.2005,-7.0893,-1.5304,2.9913,1.1826
205,-0.0766,-8.2772,-7.1276,-1.4609,3.1304,0.9739
210,-0.115,-8.2389,-7.0893,-1.3217,3.3391,0.9043
215,-0.0766,-8.1622,-7.1659,-1.2522,3.4087,0.6957
220,-0.2299,-8.2772,-7.1659,-1.5304,3.5478,0.6261
225,-0.0766,-8.2389,-7.1659,-1.9478,3.4087,0.6261
230,-0.0766,-8.0856,-7.2042,-2.1565,3.2,0.6261
235,-0.1533,-8.0856,-7.1276,-2.1565,2.9217,0.7652
240,-0.1916,-8.0856,-7.0893,-2.2957,2.6435,0.7652
245,-0.1533,-8.0856,-7.1276,-2.3652,2.2957,0.8348
250,-0.0766,-8.1239,-7.0126,-2.5739,2.0174,0.7652
255,-0.0766,-8.1622,-7.2425,-2.5043,1.8783,0.7652
260,0.0,-8.2772,-7.0509,-2.6435,2.0174,0.7652
265,-0.2299,-8.1622,-7.1659,-2.5043,2.2261,0.8348
270,-0.0383,-8.1622,-6.9743,-2.3652,2.3652,0.7652
275,0.0,-8.2772,-7.0893,-2.2261,2.4348,0.8348
280,-0.0766,-8.2389,-7.0893,-1.9478,2.4348,1.0435
285,-0.0766,-8.3538,-7.0893,-1.6696,2.3652,1.1826
290,-0.1533,-8.2005,-7.2042,-1.5304,2.2261,1.5304
295,0.0,-8.2772,-7.1276,-1.3217,1.8783,1.6
300,0.0,-8.2005,-7.0509,-1.3217,1.6,1.7391
305,0.0,-8.2389,-7.1659,-1.3913,1.4609,1.8087
310,-0.0383,-8.2389,-7.2042,-1.5304,1.2522,1.8783
315,0.0,-8.2389,-7.2425,-1.7391,1.113,1.7391
320,-0.0766,-8.1622,-7.2042,-1.9478,1.0435,1.6
325,-0.0766,-8.2005,-7.2809,-2.2261,1.113,1.4609
330,-0.0766,-8.1239,-7.2042,-2.3652,1.2522,1.2522
335,0.0,-8.2389,-7.0509,-2.2957,1.3913,0.8348
340,-0.1533,-8.1622,-7.0126,-2.4348,1.4609,0.487
345,-0.0766,-8.2772,-7.1659,-2.4348,1.6696,0.0696
350,-0.1916,-8.2005,-7.1659,-2.4348,1.8783,-0.2087
355,-0.0766,-8.2772,-7.1659,-2.3652,2.0174,-0.6261
360,-0.1916,-8.3155,-7.1276,-2.4348,2.0174,-0.8348
365,-0.1916,-8.3155,-7.2425,-2.5739,2.087,-1.0435
370,0.0,-8.3155,-7.0893,-2.3652,2.1565,-1.2522
375,0.0,-8.2772,-7.2042,-2.1565,2.2261,-1.3913
380,0.0,-8.2389,-7.2042,-1.9478,2.2957,-1.6
385,-0.0383,-8.3155,-7.2042,-2.0174,2.2957,-1.5304
390,0.0383,-8.2005,-7.1659,-2.1565,2.2957,-1.5304
395,-0.0766,-8.2389,-7.2425,-2.2957,2.2261,-1.5304
400,-0.1916,-8.0856,-7.1659,-2.2957,2.087,-1.3217
405,-0.0766,-8.2389,-7.2425,-2.087,1.8087,-1.3217
410,-0.2299,-8.2772,-7.0509,-2.2261,1.6696,-1.1826
415,-0.1533,-8.2389,-7.1659,-2.713,1.5304,-1.113
420,-0.1916,-8.0856,-7.0893,-2.8522,1.5304,-0.9739
425,-0.0766,-8.2389,-7.0126,-2.6435,1.3913,-0.9043
430,-0.0383,-8.3538,-7.0893,-2.2957,1.3217,-0.6957
435,-0.0766,-8.2389,-7.0126,-1.8087,1.2522,-0.4174
440,-0.115,-8.3155,-7.2042,-1.3217,1.1826,-0.1391
445,-0.1916,-8.2389,-7.2042,-0.9739,1.0435,0.0
450,-0.2299,-8.2389,-7.2042,-0.6957,0.9739,0.1391
455,-0.115,-8.3155,-7.2425,-0.5565,1.0435,0.2783
460,-0.3066,-8.2772,-7.2042,-0.4174,1.0435,0.4174
465,-0.0383,-8.1622,-7.1659,-0.4174,0.9739,0.4174
470,0.0,-8.2389,-7.2425,-0.3478,0.8348,0.5565
475,0.0,-8.1622,-7.3192,-0.4174,0.7652,0.7652
480,0.0766,-8.1239,-7.2425,-0.487,0.6957,0.6957
485,0.0,-8.1239,-7.2809,-0.8348,0.487,0.9043
490,0.0,-8.0473,-7.2042,-0.9739,0.3478,0.8348
495,0.0383,-8.2772,-7.2809,-1.3913,0.4174,0.6957
500,0.0,-8.2389,-7.3192,-1.4609,0.5565,0.487
505,-0.0383,-8.2005,-7.1659,-1.3913,0.6957,0.3478
510,0.0,-8.1239,-7.2042,-1.1826,0.6957,0.0696
515,-0.115,-8.2005,-7.1659,-0.8348,0.6957,-0.1391
520,0.0,-8.3155,-7.2042,-0.7652,0.8348,-0.4174
525,-0.0383,-8.2389,-7.2425,-0.6261,0.6957,-0.5565
530,-0.0766,-8.2772,-7.2425,-0.2783,0.7652,-0.6261
535,-0.0766,-8.3155,-7.1659,0.0,0.6957,-0.6261
540,-0.0766,-8.3155,-7.2809,0.4174,0.6261,-0.6957
545,-0.0383,-8.1622,-7.2042,0.6957,0.5565,-0.6957
550,-0.1533,-8.1622,-7.2809,0.8348,0.4174,-0.6957
555,-0.0766,-8.3538,-7.3192,0.9043,0.487,-0.5565
560,-0.2682,-8.3155,-7.2425,1.0435,0.5565,-0.5565
565,-0.1916,-8.3155,-7.2042,1.3913,0.487,-0.5565
570,-0.115,-8.4305,-7.2042,1.8087,0.4174,-0.4174
575,-0.115,-8.2772,-7.2042,2.2957,0.487,-0.4174
580,-0.0766,-8.3155,-7.2042,2.5739,0.6261,-0.3478
585,-0.0383,-8.3538,-7.2042,2.8522,0.7652,-0.3478
590,-0.0383,-8.4305,-7.1276,3.1304,0.9043,-0.2087
595,-0.0766,-8.3921,-7.0509,3.7565,0.9043,-0.3478
600,-0.115,-8.2005,-7.0893,4.5913,0.8348,-0.4174
605,0.0,-8.2772,-7.0893,5.1478,0.8348,-0.3478
610,-0.0766,-8.1622,-7.2042,5.4261,0.7652,-0.487
615,-0.1916,-8.2389,-7.0893,5.3565,0.6957,-0.3478
620,-0.0383,-8.2005,-7.1276,5.3565,0.6957,-0.487
625,-0.0766,-8.2005,-7.1659,5.5652,0.5565,-0.487
630,-0.1916,-8.2772,-6.9743,6.1913,0.6261,-0.487
635,-0.115,-8.3155,-7.1276,7.1652,0.6957,-0.487
640,-0.1916,-8.3921,-7.1276,8.1391,0.6957,-0.4174
645,-0.1533,-8.2772,-7.1659,8.6957,0.7652,-0.487
650,-0.115,-8.2389,-7.2425,8.7652,0.8348,-0.4174
655,-0.1533,-8.2772,-7.2042,8.3478,0.7652,-0.2087
660,-0.2682,-8.2005,-7.2809,7.7913,0.5565,-0.0696
665,-0.0766,-8.3921,-7.1659,7.3043,0.6261,0.0696
670,-0.0383,-8.3921,-7.0126,7.0957,0.6261,0.1391
675,-0.115,-8.2772,-6.936,7.2348,0.6261,0.0696
680,-0.0383,-8.2005,-6.8977,7.5826,0.9043,-0.0696
685,-0.115,-8.3538,-7.0126,8.0,1.3913,0.0
690,-0.0766,-8.2772,-6.8977,8.8348,1.8087,-0.1391
695,-0.0766,-8.2389,-7.0126,9.5304,2.2261,-0.4174
700,-0.115,-8.3155,-6.9743,10.1565,2.4348,-0.4174
705,-0.115,-8.4688,-6.9743,10.713,2.5043,-0.3478
710,-0.1916,-8.4305,-7.0509,11.0609,2.5043,-0.4174
715,-0.115,-8.4305,-7.0126,11.3391,2.4348,-0.3478
720,-0.2682,-8.3921,-6.936,11.3391,2.3652,-0.4174
725,-0.1533,-8.3921,-7.0126,11.0609,2.3652,-0.3478
730,-0.3449,-8.3538,-7.1659,10.8522,2.5043,-0.2087
735,-0.2299,-8.4305,-6.8593,10.5739,2.4348,-0.0696
740,-0.1916,-8.5071,-7.0126,10.4348,2.5043,0.0
745,-0.1533,-8.5838,-7.0126,10.5739,2.5043,0.0696
750,-0.1533,-8.5838,-6.821,10.9217,2.5043,0.2783
755,-0.115,-8.5838,-6.9743,11.2,2.3652,0.4174
760,0.0,-8.5454,-6.936,11.3391,2.3652,0.6261
765,0.0,-8.4305,-6.821,11.4783,2.3652,0.6957
770,-0.115,-8.3921,-6.821,11.4087,2.3652,0.8348
775,0.0,-8.4688,-6.6677,11.2,2.1565,0.9043
780,-0.0383,-8.4688,-6.5145,11.2,1.9478,0.8348
785,0.0,-8.4305,-6.5528,11.4783,1.6,0.6957
790,-0.2682,-8.4688,-6.5911,12.0348,1.4609,0.5565
795,-0.0383,-8.6221,-6.5911,12.8696,1.6,0.1391
800,-0.115,-8.5454,-6.5145,13.7739,1.6696,-0.2783
805,-0.2299,-8.5838,-6.6294,14.4696,1.8087,-0.6957
810,-0.115,-8.4305,-6.7444,15.0957,2.087,-1.1826
815,-0.115,-8.4305,-6.7827,15.5826,2.1565,-1.7391
820,-0.1916,-8.3921,-6.7061,15.6522,2.2261,-2.2261
825,-0.2682,-8.5838,-6.936,15.3739,2.1565,-2.3652
830,-0.1533,-8.4688,-6.936,14.9565,2.2261,-2.7826
835,-0.1916,-8.6221,-6.821,14.8174,2.1565,-2.9217
840,-0.1916,-8.6987,-6.6677,14.6783,2.1565,-2.9913
845,-0.0383,-8.4688,-7.2809,14.8174,2.1565,-2.9217
850,-0.1916,-8.7754,-6.6294,14.9565,2.4348,-2.8522
855,-0.0766,-8.7754,-6.4761,15.3043,2.5739,-2.7826
860,0.0,-9.1202,-6.6677,15.8609,2.8522,-2.6435
865,-0.1533,-8.967,-6.6294,16.6957,3.1304,-2.713
870,-0.0383,-9.1969,-6.5528,17.8783,3.2696,-2.5043
875,-0.0766,-9.3118,-6.3612,19.4087,3.2,-2.3652
880,-0.1533,-9.1969,-6.3995,21.0783,2.9217,-2.2957
885,-0.1916,-9.0819,-6.4378,22.5391,2.6435,-2.1565
890,0.0,-9.0819,-6.5145,23.6522,2.3652,-2.0174
895,0.0383,-9.0053,-6.2462,24.4174,2.1565,-1.9478
900,0.0,-8.737,-6.2079,24.6261,2.0174,-2.087
905,0.0383,-8.967,-6.2462,24.6261,1.8087,-2.3652
910,0.0,-8.8137,-6.1696,24.8348,1.6696,-2.5739
915,0.0,-8.9286,-6.1313,25.4609,1.7391,-3.0609
920,0.0,-8.852,-6.1696,26.2261,1.6696,-3.4087
925,0.0,-9.0053,-6.2079,27.0609,1.7391,-3.7565
930,-0.0766,-8.8903,-6.1696,27.9652,1.8783,-4.0348
935,-0.1916,-8.7754,-6.1313,28.9391,1.8783,-4.1043
940,-0.0383,-8.9286,-6.3229,29.5652,1.8783,-4.2435
945,-0.1533,-8.852,-6.3995,29.8435,1.6696,-4.2435
950,-0.0766,-8.7754,-6.2845,29.913,1.4609,-4.1739
955,-0.115,-8.9286,-6.3229,29.7739,1.1826,-3.9652
960,-0.1533,-8.967,-6.2079,29.5652,0.9739,-3.687
965,-0.0766,-8.8903,-6.2462,29.0783,0.6957,-3.4783
970,-0.2299,-8.7754,-6.3229,28.4522,0.3478,-3.1304
975,0.0,-8.852,-6.2079,27.5478,-0.0696,-2.8522
980,0.0,-8.852,-6.3229,26.5739,-0.3478,-2.5739
985,-0.0383,-8.9286,-6.2462,25.8087,-0.3478,-2.3652
990,0.0383,-8.8903,-6.1313,25.3217,-0.3478,-2.0174
995,0.115,-9.0819,-6.0546,24.8348,-0.3478,-1.9478
1000,0.0383,-9.0436,-5.863,24.5565,-0.2783,-1.8087
1005,0.0383,-9.0819,-5.6331,24.4174,-0.1391,-1.8087
1010,0.0383,-9.1969,-5.4415,24.9043,-0.0696,-1.8783
1015,0.0,-9.1969,-5.4032,26.0174,0.0696,-1.9478
1020,0.0,-9.2352,-5.3265,27.2,0.2783,-1.8087
1025,0.0766,-9.3885,-5.2116,28.6609,0.2783,-1.8087
1030,0.0766,-9.3885,-5.2882,30.1913,0.5565,-1.9478
1035,0.115,-9.3118,-4.9816,31.8609,0.5565,-2.2261
1040,0.0383,-9.2735,-5.4032,33.3913,0.6957,-2.2957
1045,0.0383,-9.2352,-5.2499,34.6435,0.6261,-2.6435
1050,0.0,-9.1969,-5.4032,35.5478,0.6957,-2.713
1055,0.0,-9.0819,-5.5181,35.9652,0.487,-2.4348
1060,0.115,-9.1586,-5.5564,36.313,0.0696,-2.2261
1065,0.0766,-9.1969,-5.5948,36.4522,-0.487,-2.2261
1070,0.0383,-9.3502,-5.5564,36.5217,-0.9739,-2.2261
1075,0.0383,-9.1586,-5.6331,36.3826,-1.3913,-2.087
1080,0.0,-9.2352,-5.7097,36.1739,-1.6696,-2.0174
1085,0.0,-9.3885,-5.7097,35.687,-1.7391,-2.087
1090,0.0,-9.3885,-5.8247,34.713,-1.8783,-1.9478
1095,0.0,-9.3885,-5.5948,33.6696,-2.087,-1.8087
1100,-0.1916,-9.3118,-5.748,32.487,-2.2261,-1.5304
1105,-0.1916,-9.2735,-5.5564,31.3739,-2.2957,-1.113
1110,-0.1533,-9.3118,-5.6331,30.1913,-2.4348,-0.6261
1115,-0.2682,-9.3118,-5.4798,28.9391,-2.5043,-0.2087
1120,-0.1916,-9.3885,-5.2882,27.7565,-2.5043,0.2087
1125,-0.1916,-9.3118,-5.2499,26.713,-2.5739,0.487
1130,-0.0766,-9.5034,-5.2116,25.9478,-2.5043,0.7652
1135,-0.0766,-9.5801,-5.0583,25.8087,-2.3652,0.6957
1140,-0.115,-9.5418,-4.8284,26.2957,-2.087,0.7652
1145,-0.115,-9.5034,-4.8284,26.8522,-1.9478,0.9739
1150,-0.0766,-9.4268,-5.02,27.5478,-1.7391,1.113
1155,-0.0766,-9.3502,-4.8284,27.9652,-1.6696,1.3913
1160,0.0,-9.2352,-4.905,27.8261,-1.6696,1.5304
1165,0.115,-9.2735,-4.79,27.5478,-1.6696,1.6
1170,0.0766,-9.1969,-4.8284,27.0609,-1.8087,1.8783
1175,0.1916,-9.1969,-4.7517,26.6435,-2.087,2.087
1180,0.2299,-9.0819,-4.6751,26.1565,-2.2957,2.2261
1185,0.0766,-8.967,-4.7517,25.6,-2.5043,2.5043
1190,0.115,-9.0819,-4.6751,25.0435,-2.6435,2.6435
1195,0.115,-9.1969,-4.7517,24.5565,-2.5739,2.713
1200,0.115,-9.2352,-4.7517,24.0696,-2.5739,2.8522
1205,0.115,-9.3502,-4.79,23.7217,-2.4348,2.9913
1210,0.0766,-9.4268,-4.8284,23.1652,-2.5043,3.1304
1215,0.0,-9.4651,-4.7517,22.3304,-2.4348,3.2
1220,0.0383,-9.6184,-4.905,21.4261,-2.4348,3.2
1225,-0.0383,-9.5418,-4.8667,20.5217,-2.5043,3.2
1230,0.0,-9.5418,-4.8667,19.4087,-2.5043,2.9913
1235,-0.115,-9.5034,-4.9433,18.5043,-2.5043,2.8522
1240,0.0383,-9.695,-4.8284,17.6696,-2.5739,2.5043
1245,-0.1533,-9.6567,-4.7517,17.2522,-2.5043,2.1565
1250,-0.0383,-9.6567,-4.7517,17.0435,-2.5043,1.6
1255,-0.0383,-9.5034,-4.8284,16.7652,-2.5043,1.0435
1260,0.0,-9.7334,-4.7517,16.4174,-2.5739,0.4174
1265,0.0383,-9.695,-4.6751,16.0,-2.5739,-0.2087
1270,0.0383,-9.695,-4.7517,15.6522,-2.5043,-0.6957
1275,0.0383,-9.695,-4.5601,15.5826,-2.4348,-1.113
1280,0.115,-9.81,-4.4068,15.513,-2.2261,-1.2522
1285,0.0766,-9.81,-4.4452,15.5826,-2.0174,-1.2522
1290,0.1533,-9.7334,-4.4452,15.5826,-1.8087,-1.1826
1295,0.2299,-9.695,-4.3685,15.513,-1.6696,-0.9739
1300,0.1916,-9.6567,-4.3302,15.7913,-1.6,-0.6957
1305,0.115,-9.6184,-4.3302,16.0696,-1.5304,-0.487
1310,0.0,-9.7334,-4.2152,16.487,-1.8087,-0.2783
1315,0.0383,-9.81,-4.4835,16.9739,-2.087,0.0696
1320,0.0,-9.81,-4.2919,17.6,-2.2957,0.2087
1325,0.0,-9.7334,-4.4452,18.2261,-2.5739,0.4174
1330,-0.1533,-9.81,-4.5984,18.6435,-2.7826,0.5565
1335,-0.1533,-9.925,-4.5218,18.6435,-2.9217,0.6261
1340,-0.1533,-10.0016,-4.5218,18.3652,-3.1304,0.6261
1345,-0.3449,-9.925,-4.5218,17.8087,-3.3391,0.487
1350,-0.3066,-10.0016,-4.2536,17.113,-3.687,0.2783
1355,-0.3066,-9.9633,-4.3302,16.487,-4.0348,0.0696
1360,-0.3832,-9.8483,-4.2536,15.8609,-4.3826,0.0
1365,-0.3832,-9.925,-4.0236,15.513,-4.7304,-0.0696
1370,-0.4215,-9.7334,-4.1003,15.2348,-4.9391,-0.1391
1375,-0.3449,-9.695,-4.0236,15.4435,-5.2174,-0.2783
1380,-0.0766,-9.5801,-3.8704,15.6522,-5.287,-0.2087
1385,-0.0383,-9.6184,-3.8704,16.1391,-5.3565,-0.0696
1390,0.0,-9.4268,-3.7554,16.8348,-5.287,0.1391
1395,0.0383,-9.5418,-3.9087,17.2522,-5.3565,0.2783
1400,0.0766,-9.5801,-3.947,17.6696,-5.0783,0.6261
1405,0.0766,-9.5801,-3.947,17.7391,-5.0783,0.9043
1410,0.1916,-9.5801,-4.1386,17.6,-5.0783,1.1826
1415,0.115,-9.6567,-4.1769,17.1826,-5.0087,1.5304
1420,0.115,-9.7717,-4.2152,16.4174,-5.0087,2.0174
1425,0.0766,-9.7717,-4.2152,15.2348,-4.9391,2.5739
1430,0.0,-9.925,-4.2919,13.7043,-4.9391,2.9913
1435,0.0,-10.0016,-4.1386,12.313,-5.0087,3.2696
1440,0.0,-10.1549,-4.2536,10.8522,-5.2174,3.4783
1445,-0.0383,-10.0016,-4.2536,9.6,-5.3565,3.4087
1450,0.0,-10.1932,-4.2152,8.9043,-5.6348,3.2696
1455,0.0,-10.1932,-4.1386,8.487,-5.8435,2.9913
1460,-0.0383,-10.2698,-4.062,8.5565,-5.9826,2.5043
1465,-0.0766,-10.2315,-3.947,8.9043,-5.913,1.9478
1470,-0.2299,-10.2698,-3.9087,9.9478,-5.6348,1.2522
1475,-0.4215,-10.2315,-3.7937,11.9652,-5.287,0.3478
1480,-0.4598,-10.2698,-3.7554,14.1913,-4.9391,-0.2783
1485,-0.3832,-10.1549,-3.7937,16.6957,-4.6609,-0.7652
1490,-0.3449,-10.0399,-3.832,18.9913,-4.4522,-1.0435
1495,-0.3449,-9.81,-3.832,20.7304,-4.4522,-1.2522
1500,-0.0383,-9.6567,-3.6021,21.8435,-4.3826,-1.113
1505,-0.3066,-9.6184,-3.7171,22.2609,-4.313,-0.8348
1510,-0.1533,-9.4651,-3.7554,22.1913,-4.4522,-0.487
1515,-0.115,-9.3885,-3.7171,21.4261,-4.4522,0.0
1520,-0.2299,-9.3118,-3.6021,20.5913,-4.5913,0.6957
1525,-0.1533,-9.3885,-3.7554,19.5478,-4.8,1.3217
1530,0.0,-9.5034,-3.832,18.2261,-5.0087,2.0174
1535,0.0,-9.6184,-3.6787,16.9043,-5.287,2.4348
1540,-0.1533,-9.7334,-3.6787,15.5826,-5.4957,2.5739
1545,-0.1533,-9.81,-3.7554,14.4696,-5.7739,2.6435
1550,-0.2299,-10.2315,-3.2189,13.3565,-5.9826,2.2957
1555,-0.2682,-10.0782,-3.8704,12.5913,-6.1217,2.0174
1560,-0.3449,-10.1932,-3.6787,12.0348,-6.0522,1.4609
1565,-0.3832,-10.2698,-3.7554,11.5478,-5.913,0.8348
1570,-0.4215,-10.2698,-3.6787,11.4783,-5.7739,0.2783
1575,-0.3832,-10.3465,-3.4488,11.4087,-5.7739,-0.2087
1580,-0.3832,-10.2698,-3.5255,11.8261,-5.913,-0.6957
1585,-0.3449,-10.1549,-3.5255,12.5913,-5.9826,-0.9043
1590,-0.0383,-10.1932,-3.6404,13.1478,-6.1217,-1.0435
1595,-0.1916,-10.0399,-3.4105,13.4261,-6.2609,-1.1826
1600,-0.1533,-10.0016,-3.4488,13.9826,-6.5391,-1.113
1605,-0.0766,-9.8866,-3.4488,14.3304,-6.6783,-0.9739
1610,-0.1533,-9.8866,-3.2189,14.4,-6.8174,-0.8348
1615,0.0,-9.81,-3.3339,14.5391,-6.887,-0.487
1620,-0.0766,-9.8866,-3.2189,14.6783,-6.887,-0.2783
1625,-0.2299,-9.8866,-3.1039,14.9565,-6.887,0.0
1630,-0.1916,-9.9633,-2.9507,15.0261,-6.887,0.0696
1635,-0.1916,-9.925,-3.0656,15.2348,-6.9565,0.0696
1640,-0.3449,-10.0399,-3.2572,15.3739,-7.0957,0.0696
1645,-0.3832,-10.1166,-3.1039,15.6522,-7.2348,0.0
1650,-0.4215,-10.1932,-3.1806,15.7913,-7.6522,0.0
1655,-0.4982,-10.2315,-3.4105,15.7913,-7.9304,-0.1391
1660,-0.5365,-10.2315,-3.2572,15.7217,-8.2087,-0.2783
1665,-0.5365,-10.2315,-3.4105,15.6522,-8.3478,-0.2783
1670,-0.4215,-10.3082,-3.3339,15.8609,-8.0696,-0.2783
1675,-0.5365,-10.2698,-3.3339,16.2783,-7.7217,-0.1391
1680,-0.4982,-10.3848,-3.1039,17.0435,-7.3043,0.1391
1685,-0.4598,-10.1932,-3.0656,17.8087,-6.8174,0.2087
1690,-0.4215,-10.2698,-3.1039,18.7826,-6.3304,0.5565
1695,-0.3066,-10.2698,-3.0656,19.7565,-5.7739,0.7652
1700,-0.115,-10.1549,-2.9123,20.6609,-5.287,1.0435
1705,-0.115,-10.2698,-2.874,21.4957,-4.8,1.0435
1710,0.0,-10.1932,-3.1039,22.2609,-4.6609,1.2522
1715,-0.0383,-10.1549,-2.9123,22.8174,-4.5913,1.3217
1720,-0.1533,-10.0399,-2.9507,23.2348,-4.5913,1.1826
1725,-0.0766,-10.0399,-3.0656,23.4435,-4.6609,0.7652
1730,-0.115,-10.0016,-3.0273,23.7217,-4.8,0.3478
1735,-0.0383,-9.9633,-3.0273,23.513,-4.8696,-0.0696
1740,-0.1533,-9.9633,-2.9123,23.2348,-4.8696,-0.3478
1745,-0.2299,-9.9633,-2.9123,23.0261,-4.9391,-0.9043
1750,-0.2682,-10.0016,-2.8357,22.6087,-4.9391,-1.2522
1755,-0.1533,-9.9633,-2.9123,22.3304,-4.7304,-1.7391
1760,-0.1916,-10.0782,-2.9123,22.1217,-4.5913,-2.0174
1765,-0.2682,-10.0016,-2.7974,21.4261,-4.3826,-2.087
1770,-0.3066,-10.0782,-2.7207,21.287,-4.1043,-2.087
1775,-0.2682,-10.1549,-2.6824,21.3565,-3.5478,-2.087
1780,-0.3832,-10.2315,-2.7207,21.3565,-3.2,-2.0174
1785,-0.3066,-10.2315,-2.6441,21.4957,-2.8522,-1.8783
1790,-0.2682,-10.4231,-2.7207,21.8435,-2.6435,-1.6696
1795,-0.3449,-10.1166,-2.4908,21.7043,-2.6435,-1.6696
1800,-0.3066,-10.0399,-2.5675,22.6087,-2.713,-1.3913
1805,-0.2682,-10.1166,-2.7207,24.0,-2.713,-0.9739
1810,-0.2682,-10.1166,-2.6441,25.4609,-2.713,-0.6261
1815,-0.2299,-10.2315,-2.874,26.2261,-3.2,-0.487
1820,-0.3066,-9.9633,-2.5291,26.087,-3.9652,-0.7652
1825,-0.2682,-9.925,-2.6058,26.713,-4.3826,-1.113
1830,-0.2299,-9.925,-2.5291,27.2696,-4.8,-0.7652
1835,-0.0766,-9.925,-2.5675,27.2,-5.0087,-0.6261
1840,-0.2299,-9.81,-2.6441,26.2261,-5.4261,-0.6957
1845,-0.2299,-9.8483,-2.4908,25.9478,-5.287,-0.8348
1850,-0.2299,-9.8866,-2.6441,25.3217,-5.0087,-0.8348
1855,-0.2299,-9.8483,-2.4525,24.2783,-4.7304,-0.7652
1860,-0.3066,-9.8866,-2.5291,23.513,-4.313,-0.9739
1865,-0.1533,-10.1549,-2.5291,22.4696,-3.9652,-1.3913
1870,-0.1916,-9.9633,-2.3759,21.287,-3.5478,-1.8087
1875,-0.3066,-10.0399,-2.4142,21.4957,-2.9913,-2.2957
1880,-0.1916,-10.0399,-2.3759,21.8435,-2.5739,-2.6435
1885,-0.115,-10.1549,-2.3759,22.3304,-2.3652,-3.1304
1890,-0.4598,-9.925,-2.2609,22.4,-2.4348,-4.1739
1895,-0.2682,-10.0782,-2.2992,23.0261,-2.5739,-3.8957
1900,-0.1533,-10.3465,-2.4525,23.6522,-2.6435,-3.5478
1905,-0.2299,-9.9633,-2.3759,22.887,-2.9217,-3.6174
1910,-0.3066,-10.0782,-2.3375,23.0957,-3.4783,-3.8261
1915,-0.1916,-10.0782,-2.3759,23.0957,-3.8261,-3.8957
1920,-0.2299,-9.9633,-2.3375,22.9565,-3.8261,-4.0348
1925,-0.2299,-10.0016,-2.3375,22.6087,-3.9652,-3.8957
1930,-0.2299,-10.0399,-2.2992,22.4,-4.0348,-3.8261
1935,-0.1916,-10.0782,-2.4142,21.9826,-4.1043,-3.4783
1940,-0.0766,-10.0016,-2.1459,21.0087,-4.0348,-3.8957
1945,-0.1533,-10.1549,-2.1459,19.4783,-4.313,-3.3391
1950,-0.2682,-9.9633,-1.916,18.6435,-4.1739,-2.4348
1955,-0.0383,-9.9633,-2.1076,18.9913,-3.8261,-1.3913
1960,-0.0766,-10.0399,-1.9543,19.687,-3.5478,-1.0435
1965,0.0,-10.0399,-1.9543,20.5913,-3.5478,-1.2522
1970,-0.0766,-10.1549,-1.8011,21.5652,-3.687,-1.8087
1975,-0.1916,-10.1166,-1.9927,22.2609,-3.9652,-2.2957
1980,-0.0766,-10.0399,-1.8777,22.887,-4.0348,-2.3652
1985,-0.115,-10.0016,-1.7244,23.513,-4.1043,-2.1565
1990,0.0,-10.1932,-2.031,23.7913,-4.1043,-2.9217
1995,-0.3832,-9.8483,-1.8394,23.7913,-4.313,-4.1043
2000,-0.1916,-9.8866,-1.9543,24.2783,-4.1043,-3.9652
2005,-0.2682,-10.0016,-1.8394,24.8348,-3.4783,-3.2
2010,-0.3449,-9.925,-1.8394,25.113,-3.2,-2.8522
2015,-0.3066,-9.9633,-1.7244,25.113,-3.2,-2.4348
2020,-0.3066,-10.1549,-1.916,24.6957,-3.0609,-2.0174
2025,-0.2682,-9.8866,-1.6478,23.2348,-2.8522,-2.5043
2030,-0.3066,-10.0016,-1.6478,22.6783,-3.0609,-2.8522
2035,-0.2299,-9.8866,-1.7244,22.3304,-2.9913,-2.8522
2040,-0.3832,-9.925,-1.8394,22.1913,-2.713,-2.6435
2045,-0.3066,-9.8483,-1.6095,22.4,-2.3652,-2.713
2050,-0.2299,-10.0016,-1.6478,22.4,-2.0174,-2.7826
2055,-0.2299,-9.8483,-1.4179,21.7043,-1.8087,-3.0609
2060,0.115,-10.2315,-1.8011,20.5913,-1.3913,-3.2
2065,-0.1533,-9.81,-1.3795,18.6435,-1.0435,-4.9391
2070,0.0,-9.9633,-1.4562,18.087,-1.3217,-5.4261
2075,0.0,-9.8866,-1.4562,18.1565,-1.2522,-5.4261
2080,0.0,-9.925,-1.4945,18.6435,-1.3217,-5.6348
2085,0.0,-9.925,-1.3795,19.6174,-1.6,-5.6348
2090,-0.1916,-10.1166,-1.4179,20.6609,-1.9478,-5.4261
2095,0.115,-10.1549,-1.2646,20.8,-2.1565,-4.5913
2100,0.0766,-10.0399,-1.4179,21.3565,-2.7826,-5.1478
2105,0.3066,-10.4231,-1.4945,22.6783,-3.687,-6.4696
2110,-0.0766,-10.0016,-1.3795,23.1652,-4.7304,-8.6261
2115,0.0,-9.925,-1.5328,24.2087,-5.1478,-7.8609
2120,-0.0383,-9.9633,-1.4179,25.3913,-5.0783,-6.5391
2125,0.0,-10.0782,-1.7627,25.8783,-5.3565,-5.7739
2130,0.0,-9.9633,-1.4562,25.2522,-5.4261,-4.3826
2135,0.0383,-9.8866,-1.5711,24.7652,-5.5652,-4.6609
2140,-0.0766,-9.8866,-1.3029,24.0696,-5.9826,-5.5652
2145,-0.115,-9.81,-1.4179,23.9304,-5.8435,-6.4696
2150,0.0,-9.7717,-1.3412,23.8609,-5.287,-6.2609
2155,-0.1533,-9.8483,-1.3412,23.3739,-4.8,-5.5652
2160,-0.1533,-9.8483,-1.4945,22.887,-4.1043,-4.8
2165,-0.0383,-9.7717,-1.1496,22.4,-3.2696,-3.1304
2170,0.0,-9.81,-1.1496,22.3304,-2.713,-3.0609
2175,0.2682,-10.1932,-1.4945,22.4,-2.8522,-4.4522
2180,0.0383,-9.5418,-0.9963,20.8696,-3.2,-8.2783
2185,-0.1916,-9.6567,-1.1496,20.4522,-3.4783,-8.6261
2190,-0.0766,-9.5801,-1.0346,20.5217,-2.9913,-6.8174
2195,0.1916,-9.7334,-0.958,20.5217,-2.7826,-5.287
2200,0.3832,-9.6567,-1.3029,19.6174,-2.8522,-4.4522
2205,0.2299,-9.5034,-0.8814,18.0174,-2.9217,-3.4087
2210,0.3449,-9.5418,-0.9963,17.5304,-3.2696,-4.4522
2215,0.3832,-9.5801,-1.0346,17.4609,-4.1739,-6.1217
2220,0.2682,-9.4651,-1.073,16.4174,-5.0087,-8.487
2225,0.2682,-9.3502,-1.0346,14.8174,-5.287,-8.5565
2230,0.3832,-9.6184,-0.843,13.1478,-5.2174,-7.1652
2235,0.0383,-9.5034,-1.1496,12.313,-4.8696,-5.913
2240,0.2682,-9.5801,-1.073,11.687,-4.5217,-4.1043
2245,0.3066,-9.695,-0.8047,12.1043,-4.1739,-3.6174
2250,0.2299,-9.695,-0.8047,12.9391,-4.4522,-4.2435
2255,0.1916,-9.3885,-1.2646,13.7043,-4.6609,-5.0087
2260,0.1533,-9.81,-0.843,14.887,-4.3826,-5.287
2265,0.4598,-10.2315,-1.0346,15.3739,-4.0348,-5.7739
2270,0.0,-9.6567,-0.6514,13.4261,-3.9652,-8.7652
2275,-0.1533,-9.4651,-0.6131,13.3565,-3.8957,-7.6522
2280,-0.0383,-9.6184,-0.5365,13.9826,-3.2696,-4.6609
2285,-0.115,-9.4651,-0.4215,13.9826,-2.5043,-2.713
2290,-0.3449,-9.6184,-0.4982,13.7043,-2.0174,-1.6696
2295,-0.115,-9.4268,-0.7664,12.5217,-1.6696,0.0
2300,0.0383,-9.4268,-0.3832,11.5478,-0.9739,0.5565
2305,0.115,-9.5418,-0.4215,10.7826,-0.6957,-0.5565
2310,0.2682,-9.4268,-0.5365,9.5304,-0.6261,-1.9478
2315,0.0,-9.2352,-0.4215,7.0957,-0.8348,-3.6174
2320,0.0383,-9.1586,-0.4215,5.2174,-0.8348,-2.7826
2325,0.2299,-9.1969,-0.2682,3.4087,-0.2783,-1.113
2330,0.1916,-9.1202,-0.3449,2.7826,0.0696,-0.1391
2335,0.4215,-9.1586,-0.3066,1.2522,0.2783,1.8087
2340,0.4598,-9.2735,-0.1533,0.3478,0.2783,1.3913
2345,0.5365,-9.2352,-0.4982,0.2087,-0.2087,-0.6957
2350,0.4215,-9.1969,-0.4598,-0.6957,-0.6261,-2.713
2355,0.4598,-9.1202,-0.4982,-1.4609,-1.0435,-2.9913
2360,0.4598,-9.2352,-0.5748,-3.1304,-1.2522,-2.2261
2365,0.4215,-9.2352,-0.6898,-5.6348,-1.3217,-1.7391
2370,0.4598,-9.4651,-0.6131,-7.6522,-1.6,-2.0174
2375,0.1916,-9.695,-0.7281,-8.9739,-2.0174,-2.5739
2380,0.2682,-9.7334,-0.7664,-10.3652,-2.3652,-3.1304
2385,0.1916,-9.9633,-0.7664,-13.0087,-2.6435,-5.9826
2390,-0.2682,-9.695,-0.5365,-15.5826,-2.7826,-8.0
2395,-0.1533,-9.9633,-0.6131,-15.2348,-2.2957,-6.1217
2400,-0.1916,-10.1549,-0.5365,-13.4957,-1.7391,-4.0348
2405,-0.0766,-10.3848,-0.4215,-12.313,-0.9739,-3.4783
2410,-0.2299,-10.4998,-0.4982,-10.3652,-0.4174,-3.8957
2415,-0.3449,-10.5381,-0.2299,-7.8609,0.1391,-4.2435
2420,-0.2682,-10.653,-0.4982,-5.0087,0.6957,-4.5217
2425,-0.2299,-10.7297,-0.4215,-2.5043,1.6696,-3.4783
2430,-0.115,-10.653,-0.5748,0.6261,2.087,-4.2435
2435,-0.2299,-10.653,-0.4598,3.4087,2.3652,-5.1478
2440,-0.4598,-10.653,-0.4598,5.5652,2.5043,-5.2174
2445,-0.4215,-10.7297,-0.4215,7.8609,2.2957,-4.8696
2450,-0.2682,-10.7297,-0.5365,10.0174,1.9478,-4.5217
2455,-0.3449,-10.653,-0.4982,11.4783,1.7391,-4.1739
2460,-0.2682,-10.5764,-0.3832,12.5913,1.3913,-3.9652
2465,-0.2299,-10.5381,-0.3832,13.6348,0.8348,-3.5478
2470,-0.3449,-10.4614,-0.4982,15.0957,-0.0696,-3.4087
2475,-0.1916,-10.3848,-0.7281,16.6261,-1.113,-3.4087
2480,0.1916,-10.653,-0.8047,16.6957,-1.5304,-3.1304
2485,-0.0383,-10.2315,-0.5748,14.887,-1.4609,-4.1043
2490,-0.115,-9.925,-0.4215,14.1217,-1.5304,-3.3391
2495,0.0766,-10.0399,-0.3449,15.3043,-1.9478,-1.8087
2500,0.0383,-9.925,-0.3832,16.5565,-2.713,-0.9043
2505,0.115,-9.925,-0.4982,18.1565,-3.8261,-0.5565
2510,0.1916,-9.81,-0.6514,18.8522,-4.5217,-0.487
2515,0.1533,-9.695,-0.6514,18.6435,-4.6609,-0.4174
2520,0.3066,-9.7334,-0.6514,16.8348,-4.2435,0.2783
2525,0.2682,-9.5801,-0.4598,15.5826,-4.313,0.2783
2530,0.6898,-10.1932,-1.2263,14.7478,-4.5913,-0.6957
2535,0.1533,-9.3502,-0.6131,11.1304,-4.5217,-5.4957
2540,0.0383,-9.3502,-0.6131,10.087,-4.2435,-5.287
2545,0.3449,-9.3502,-0.7664,11.8261,-3.687,-2.4348
2550,0.115,-9.4268,-0.8814,13.0087,-2.7826,-0.2783
2555,0.5748,-9.6184,-0.8814,12.1739,-1.8783,2.4348
2560,0.6131,-9.5418,-0.8047,12.1739,-0.9043,0.1391
2565,0.4982,-9.3885,-0.843,12.313,-0.0696,-2.3652
2570,0.5365,-9.5034,-0.8047,11.7565,0.9043,-2.9913
2575,0.3449,-9.3885,-0.7664,10.9217,1.9478,-2.9913
2580,0.3449,-9.4651,-0.8047,11.2,2.2957,-3.4087
2585,0.3832,-9.3502,-0.9963,11.8957,2.087,-4.2435
2590,0.3066,-9.4651,-0.8814,11.3391,2.2261,-4.4522
2595,0.3449,-9.3502,-0.958,9.3913,2.8522,-4.4522
2600,0.2299,-9.4651,-0.8814,7.0261,3.2,-4.2435
2605,0.115,-9.5801,-0.6898,4.4522,3.3391,-3.9652
2610,0.0766,-9.5034,-0.6898,2.8522,2.9913,-3.6174
2615,0.0383,-9.6567,-0.843,2.087,2.0174,-3.2696
2620,0.0766,-9.7717,-0.7664,2.4348,0.9739,-2.9913
2625,0.0,-9.8483,-0.8047,3.4783,-0.0696,-2.9913
2630,0.0383,-9.8483,-0.9197,3.7565,-1.113,-4.0348
2635,-0.0766,-9.7717,-1.073,3.4783,-1.5304,-4.4522
2640,0.0383,-9.81,-0.8047,4.0348,-1.3217,-2.6435
2645,0.0766,-9.8866,-0.6514,5.1478,-1.0435,-1.4609
2650,0.0,-9.8483,-0.9197,6.0522,-1.1826,-1.113
2655,0.1533,-9.925,-0.7664,6.8174,-1.1826,-1.1826
2660,0.1916,-10.0016,-0.843,7.513,-1.3217,-1.3217
2665,0.1533,-9.81,-0.8047,7.8609,-1.113,-1.4609
2670,0.1533,-9.81,-0.7664,8.0696,-0.9739,-1.6
2675,0.2299,-9.8866,-0.8814,8.2783,-0.487,-1.9478
2680,0.1533,-9.8866,-0.8047,7.7217,0.0,-2.2261
2685,0.2299,-9.81,-0.7664,6.7478,0.4174,-2.4348
2690,0.4215,-9.925,-0.7281,5.913,0.9739,-2.8522
2695,0.2299,-9.8866,-0.6514,5.5652,1.1826,-3.4783
2700,0.2299,-9.925,-0.6514,5.4957,1.1826,-4.1043
2705,0.1533,-9.8483,-0.6898,5.1478,1.5304,-4.1043
2710,0.3449,-9.9633,-0.5365,4.9391,2.0174,-4.1739
2715,0.3066,-9.8866,-0.5748,5.0087,2.4348,-4.5217
2720,0.2682,-9.7717,-0.6514,5.2174,2.7826,-5.1478
2725,0.2682,-9.695,-0.5365,5.8435,2.713,-5.4261
2730,0.3066,-9.7334,-0.4215,6.3304,2.6435,-5.7739
2735,0.4215,-9.695,-0.6514,6.1913,2.5043,-6.0522
2740,0.3066,-9.6567,-0.3449,5.7043,2.713,-6.3304
2745,0.2299,-9.6184,-0.3832,4.8,2.9217,-6.5391
2750,0.1533,-9.6567,-0.3832,3.8957,2.713,-6.6087
2755,0.1916,-9.7334,-0.4598,1.9478,2.6435,-5.0783
2760,0.2682,-9.81,-0.4982,0.9043,2.4348,-5.1478
2765,0.115,-9.7334,-0.4215,0.3478,1.5304,-6.2609
2770,0.0,-9.7334,-0.3449,-0.2087,0.9043,-6.2609
2775,0.1533,-9.8866,-0.0383,-0.4174,0.7652,-5.8435
2780,0.0383,-9.8866,-0.1533,-0.2783,0.7652,-5.3565
2785,0.0383,-9.8483,-0.0766,0.1391,0.8348,-4.7304
2790,0.1533,-9.8866,-0.2299,0.7652,0.8348,-4.0348
2795,0.2299,-9.925,-0.0383,1.5304,0.7652,-3.4087
2800,0.3066,-10.0016,0.0383,2.3652,0.7652,-2.8522
2805,0.3449,-10.1549,-0.0383,3.5478,0.6957,-2.2957
2810,0.2682,-9.8483,-0.1533,4.5217,0.7652,-1.9478
2815,0.2299,-9.8483,-0.1533,5.5652,0.8348,-1.6
2820,0.3449,-9.8483,0.0,6.3304,1.113,-1.5304
2825,0.5365,-9.7717,-0.0383,6.8174,1.3913,-1.4609
2830,0.5365,-9.7717,0.0,6.887,1.6,-1.4609
2835,0.5365,-9.81,-0.0766,6.5391,1.6,-1.5304
2840,0.5748,-9.7334,-0.0766,5.9826,1.3913,-2.0174
2845,0.6131,-9.7717,-0.0383,5.1478,1.2522,-2.5043
2850,0.4215,-9.7717,-0.6514,2.9217,1.113,-5.287
2855,0.1916,-9.4651,-0.0766,-0.9043,0.5565,-9.3217
2860,0.2682,-9.695,0.0,-1.2522,1.1826,-6.5391
2865,0.5748,-9.925,0.0,-0.5565,1.8783,-3.7565
2870,0.3449,-10.0782,0.0383,-0.2783,1.7391,-3.3391
2875,0.1916,-10.1932,0.0766,0.0696,1.3217,-3.4783
2880,0.2299,-10.3465,0.0,0.7652,1.0435,-3.3391
2885,0.1533,-10.4614,0.0383,1.8087,0.5565,-3.2
2890,0.1533,-10.3848,0.0,2.9217,0.0696,-2.8522
2895,0.1533,-10.5764,-0.115,4.2435,-0.2783,-2.5739
2900,0.1916,-10.4998,-0.0383,5.7739,-0.3478,-2.2261
2905,0.3066,-10.653,0.4982,7.0957,-0.1391,-1.8783
2910,0.1533,-10.2698,-0.115,8.6957,0.2087,-1.6
2915,0.115,-10.0782,-0.0766,10.2261,0.487,-1.3913
2920,0.0766,-9.925,0.0,11.5478,0.5565,-1.2522
2925,0.3449,-9.8483,0.0,12.3826,0.5565,-0.9739
2930,0.2299,-9.695,0.0,12.8,0.487,-0.7652
2935,0.3066,-9.6567,0.1533,12.5913,0.5565,-0.6261
2940,0.3066,-9.5801,0.0383,12.1739,0.6957,-0.487
2945,0.2682,-9.5418,0.0766,11.5478,0.9043,-0.4174
2950,0.3066,-9.5034,0.0383,10.7826,1.0435,-0.4174
2955,0.3449,-9.4651,0.0383,9.9478,1.3217,-0.5565
2960,0.7281,-9.5418,0.3832,9.2522,1.6,-0.6957
2965,0.5365,-9.5418,0.1533,8.487,1.8783,-0.9043
2970,0.5365,-9.7334,0.2299,7.9304,2.2261,-1.113
2975,0.5365,-9.7334,0.2299,7.7217,2.4348,-1.2522
2980,0.6514,-9.8483,0.4598,7.7217,2.3652,-1.5304
2985,0.3066,-9.695,0.2682,8.0696,2.2261,-1.6
2990,0.5365,-9.6567,0.1916,8.4174,1.9478,-1.6
2995,0.6131,-9.7717,0.3449,8.9043,1.8783,-1.5304
