timestamp,accX,accY,accZ,gyroX,gyroY,gyroZ
0,9.4651,-1.073,2.4142,0.2087,1.0435,0.9043
5,9.4651,-1.0346,2.3375,0.3478,1.4609,0.9043
10,9.4651,-1.073,2.4142,0.6261,1.6,1.113
15,9.6184,-1.0346,2.4525,0.9739,1.6696,1.113
20,9.4651,-1.0346,2.4908,1.3217,1.5304,1.113
25,9.4651,-0.9197,2.2609,1.3217,1.4609,1.2522
30,9.5418,-0.8814,2.3759,0.9739,1.5304,1.3217
35,9.5801,-0.8814,2.4525,0.0,1.7391,1.3913
40,9.5034,-0.9197,2.3375,-1.2522,2.1565,1.3913
45,9.6567,-0.9963,2.4525,-2.6435,2.7826,1.4609
50,9.4651,-0.9963,2.6441,-3.9652,3.2696,1.4609
55,9.5034,-1.0346,2.6441,-5.0087,3.5478,1.6696
60,9.4651,-0.9963,2.6441,-5.6348,3.687,1.7391
65,9.3502,-1.0346,2.6824,-6.1217,3.6174,1.7391
70,9.3118,-1.0346,2.7207,-6.2609,3.1304,1.9478
75,9.3118,-0.9963,2.7207,-6.1913,2.6435,2.1565
80,9.4268,-1.1113,2.5291,-5.8435,2.4348,2.5043
85,9.4268,-1.1496,2.7207,-5.5652,2.4348,2.8522
90,9.4651,-1.2263,2.4908,-5.5652,2.5043,2.9913
95,9.4651,-1.0346,2.4525,-5.913,2.7826,3.0609
100,9.1969,-1.3412,2.2992,-6.4696,3.4087,2.9217
105,9.4651,-1.2263,2.3759,-7.3739,4.0348,2.713
110,9.3885,-1.1496,2.4525,-8.0,4.9391,2.2957
115,9.4651,-1.1113,2.3759,-8.6261,5.913,1.8783
120,9.4268,-1.1496,2.3759,-9.113,6.887,1.3913
125,9.3502,-1.1496,2.4142,-9.5304,7.9304,0.6261
130,9.3885,-1.2263,2.5291,-9.6696,8.7652,0.0
135,9.3118,-1.2646,2.7974,-9.1826,9.2522,-0.7652
140,9.3118,-1.4562,2.7207,-8.4174,9.4609,-1.2522
145,9.1969,-1.4179,2.874,-7.1652,9.3217,-1.7391
150,9.1586,-1.3795,2.9507,-5.5652,9.0435,-2.2261
155,9.0053,-1.5328,3.0273,-3.687,8.9043,-2.5043
160,8.8903,-1.5711,3.0656,-1.8783,8.487,-2.4348
165,8.8137,-1.4945,2.989,-0.2087,8.0696,-2.3652
170,8.852,-1.6095,2.989,1.0435,7.513,-2.2261
175,8.6604,-1.3795,2.9507,1.8783,6.9565,-1.9478
180,8.6604,-1.4179,2.874,2.2261,6.6087,-1.6696
185,8.7754,-1.4945,2.9123,2.2261,6.6087,-1.3217
190,8.6987,-1.4179,2.8357,2.1565,6.6087,-0.9739
195,8.737,-1.3795,2.874,1.8087,6.8174,-0.7652
200,8.6987,-1.2646,2.8357,1.3913,6.887,-0.3478
205,8.5454,-1.3795,2.5291,1.0435,6.887,0.0696
210,8.852,-1.2263,2.874,1.113,6.9565,0.2087
215,8.852,-1.2263,2.8357,1.0435,6.9565,0.2087
220,8.8903,-1.1879,2.8357,1.3217,7.0957,0.1391
225,8.9286,-1.2263,2.8357,1.8087,7.1652,-0.1391
230,9.0053,-1.1879,2.989,2.3652,7.2348,-0.487
235,8.967,-1.1113,3.1423,2.7826,7.1652,-0.7652
240,8.8903,-1.073,3.1806,3.0609,6.8174,-1.113
245,8.967,-0.9963,3.2189,3.0609,6.3304,-1.3913
250,8.967,-0.9963,3.2189,2.9217,5.5652,-1.6
255,9.0053,-1.1496,3.3722,2.7826,4.4522,-1.5304
260,9.0819,-1.1496,3.5255,2.5739,3.3391,-1.3217
265,8.9286,-1.1113,3.4105,2.7826,2.2261,-1.0435
270,9.0436,-1.1113,3.3722,3.2,0.9739,-0.5565
275,9.1586,-1.1879,3.2572,3.8261,-0.1391,-0.2783
280,9.2352,-1.3029,3.2189,4.5913,-1.0435,0.0
285,9.1969,-1.1113,3.1806,5.4261,-2.2261,0.3478
290,9.1969,-0.958,2.9123,6.1913,-3.0609,0.6957
295,9.1586,-0.9963,2.7974,6.6783,-3.9652,1.113
300,9.1586,-0.958,2.8357,6.9565,-4.7304,1.4609
305,9.1969,-0.9197,2.4908,6.887,-5.2174,1.8087
310,9.1969,-0.9963,2.4142,6.3304,-5.4261,2.1565
315,9.5418,-0.8814,2.4908,5.6348,-5.287,2.5043
320,9.2352,-0.958,2.5291,4.5913,-4.4522,2.7826
325,9.3118,-0.9963,2.5675,3.4087,-3.0609,2.9217
330,9.3118,-1.0346,2.4525,2.1565,-1.2522,2.8522
335,9.1202,-0.958,2.6441,0.9043,0.6957,2.7826
340,9.1969,-1.073,2.6441,-0.2087,2.5739,2.5739
345,9.2352,-1.0346,2.6441,-1.4609,4.1043,2.5043
350,9.1586,-1.3029,2.8357,-2.2957,5.2174,2.5739
355,9.1202,-1.1496,2.7207,-2.8522,6.0522,2.713
360,9.2735,-1.3795,2.7974,-2.713,6.4696,2.9913
365,9.3118,-1.5328,2.9123,-2.087,6.4696,3.3391
370,9.2352,-1.4945,2.874,-1.0435,6.2609,3.8261
375,9.2735,-1.5711,2.9507,0.487,5.7739,4.5913
380,9.3118,-1.5328,3.0656,2.2261,5.2174,5.2174
385,9.1969,-1.4179,2.989,4.313,4.7304,5.9826
390,9.2352,-1.5711,2.8357,6.1913,4.3826,6.7478
395,9.3502,-1.5711,2.7974,7.9304,4.5217,7.3043
400,9.3502,-1.4179,2.5291,9.5304,5.0783,7.9304
405,9.3502,-1.3412,2.6824,10.7826,5.913,8.1391
410,9.2352,-1.3795,2.5675,11.2696,6.8174,8.2783
415,9.3885,-1.4179,2.7207,11.4783,7.4435,8.3478
420,9.1969,-1.3029,2.6441,11.3391,7.7913,8.2087
425,9.2352,-1.2646,2.6058,10.9913,7.7913,7.9304
430,9.1586,-1.3795,2.5291,10.5043,7.3739,7.3739
435,9.1586,-1.3412,2.6058,9.6,6.7478,6.5391
440,9.0819,-1.2263,2.4908,8.6261,6.1913,5.3565
445,9.0053,-1.3029,2.5675,7.4435,5.7739,4.0348
450,9.1586,-1.2263,2.6441,6.4,5.7043,2.4348
455,9.0053,-1.1879,2.7207,5.2174,6.1217,0.8348
460,9.0819,-1.2263,2.5675,4.5217,7.0261,-0.6957
465,9.0436,-1.073,2.7591,3.8957,8.0696,-2.1565
470,9.0819,-0.9963,2.7974,3.2,9.1826,-3.4087
475,8.967,-0.9197,2.9123,2.6435,9.8783,-4.5913
480,8.7754,-0.7664,3.0656,1.8087,10.2261,-5.5652
485,8.7754,-0.8047,3.1039,0.6261,9.9478,-6.4
490,8.6604,-0.843,3.1423,-0.3478,9.113,-6.887
495,8.7754,-0.7664,3.1806,-1.5304,7.7913,-7.0957
500,8.852,-0.9197,3.2572,-2.5739,6.3304,-7.4435
505,8.7754,-0.9197,3.1423,-3.3391,5.2174,-7.4435
510,8.9286,-0.958,3.0273,-4.1739,4.3826,-7.4435
515,8.8903,-1.0346,3.1806,-4.7304,3.9652,-7.4435
520,8.9286,-1.073,3.2189,-4.9391,3.687,-7.3739
525,9.0436,-1.2263,3.2955,-4.9391,3.4087,-7.0261
530,9.1586,-1.3029,3.2189,-4.5913,2.9217,-6.7478
535,8.967,-1.073,2.989,-4.1043,2.1565,-6.4
540,9.1202,-1.5328,3.2189,-3.5478,1.1826,-6.0522
545,9.1202,-1.4179,3.2189,-2.7826,0.2783,-5.7043
550,9.1202,-1.4945,3.1039,-1.7391,-0.8348,-5.287
555,9.1969,-1.5328,2.989,-0.5565,-1.4609,-5.0087
560,9.1969,-1.4562,2.989,0.5565,-1.8087,-4.8696
565,9.2352,-1.3795,2.9123,1.7391,-1.4609,-4.8
570,9.1202,-1.2263,2.9507,2.6435,-0.487,-4.8696
575,9.1586,-1.1113,3.0273,3.2696,0.8348,-4.8696
580,9.0819,-1.073,2.874,3.2696,2.2261,-4.9391
585,9.0436,-0.9197,2.9507,3.0609,3.2696,-5.1478
590,8.7754,-0.843,2.989,2.8522,3.9652,-5.1478
595,8.7754,-0.843,3.0273,2.7826,4.1739,-4.313
600,8.8903,-0.9197,2.989,2.5043,4.2435,-3.4783
605,9.0053,-0.958,3.2572,2.2261,3.9652,-2.9217
610,8.8903,-0.8814,3.2189,1.8783,3.6174,-2.3652
615,8.852,-0.8047,3.3339,1.6696,3.3391,-2.087
620,8.8903,-0.9963,3.3339,1.6,2.9217,-1.6696
625,8.8137,-1.0346,3.4871,1.7391,2.087,-1.1826
630,8.737,-1.073,3.5255,2.2261,1.113,-0.7652
635,8.737,-1.2646,3.4488,2.713,-0.2087,-0.487
640,8.6221,-1.1113,3.2572,3.6174,-1.6,-0.2087
645,8.9286,-1.3412,3.4871,4.8696,-2.9217,0.0
650,8.7754,-1.4179,3.3722,6.3304,-4.1739,-0.6261
655,8.852,-1.4562,3.3722,8.0,-4.7304,-0.3478
660,8.8137,-1.1879,3.2955,9.6,-4.8,-0.3478
665,8.852,-1.1113,3.1423,10.5043,-4.7304,-0.4174
670,8.8137,-0.958,3.0656,10.713,-4.4522,-0.487
675,8.8903,-0.843,2.8357,9.9478,-4.1739,-0.6261
680,8.9286,-0.6514,2.9507,8.6261,-3.6174,-0.8348
685,8.8903,-0.4598,2.7974,6.4696,-2.9217,-0.5565
690,8.9286,-0.3832,2.7974,4.2435,-2.0174,-0.4174
695,9.0053,-0.2682,2.874,1.8087,-1.3217,-0.2783
700,9.1202,-0.2682,2.8357,-0.2087,-0.9043,-0.1391
705,9.0819,-0.3832,3.1423,-1.8087,-0.6261,0.2087
710,9.0819,-0.1916,3.1039,-2.8522,-0.9043,0.487
715,9.0436,-0.3066,3.3339,-3.5478,-1.4609,0.7652
720,9.0819,-0.3066,3.2955,-3.5478,-2.6435,1.3217
725,9.0819,-0.3449,3.4488,-3.687,-4.4522,1.8087
730,9.0819,-0.4215,3.3339,-3.687,-6.6783,2.4348
735,9.0436,-0.5365,3.2955,-3.7565,-8.7652,2.9217
740,9.0436,-0.3832,3.2955,-3.8957,-10.6435,3.687
745,9.1969,-0.7664,3.0273,-4.313,-12.1739,4.3826
750,9.0436,-0.6131,3.0273,-4.9391,-13.1478,5.1478
755,9.0053,-0.5748,2.9123,-5.5652,-13.7043,5.8435
760,9.0436,-0.6514,2.9123,-6.1217,-14.1217,6.5391
765,9.0819,-0.7281,2.9123,-7.0261,-14.2609,7.0261
770,9.0436,-0.5365,2.874,-7.513,-14.3304,7.3043
775,9.0053,-0.6898,2.7974,-8.0,-14.2609,7.5826
780,8.967,-0.8047,2.8357,-8.2087,-14.1217,7.7217
785,9.0819,-0.843,2.8357,-8.2087,-14.2609,7.7913
790,9.0819,-0.8047,2.8357,-8.0,-14.5391,8.0
795,9.0053,-0.8047,2.7974,-7.6522,-15.1652,8.0
800,9.0819,-0.958,3.1806,-7.3739,-15.7913,7.8609
805,9.0819,-0.8047,3.0273,-7.3739,-16.4174,7.7217
810,9.1202,-0.8047,2.874,-7.5826,-16.9739,7.5826
815,9.1586,-0.8047,2.9507,-8.2087,-17.4609,7.3739
820,9.1202,-0.6898,2.874,-9.0435,-17.6696,7.0261
825,9.1969,-0.6898,2.8357,-10.1565,-17.6,6.9565
830,9.2352,-0.7281,3.0273,-11.2696,-17.4609,6.887
835,9.1586,-0.8047,2.9123,-12.313,-17.3217,7.0957
840,9.1202,-0.7281,2.9123,-13.0087,-17.4609,7.513
845,9.1586,-0.6898,2.8357,-13.287,-17.7391,8.2087
850,9.1969,-0.7664,2.9507,-13.0087,-18.2957,8.7652
855,9.4268,-0.8047,3.0273,-12.4522,-18.9217,9.4609
860,9.2352,-0.9197,2.9507,-11.8261,-19.4087,9.9478
865,9.3118,-0.8814,2.9507,-11.4087,-19.8261,10.5739
870,9.3885,-0.958,2.8357,-11.0609,-20.0348,10.9913
875,9.2735,-0.9963,2.8357,-10.9913,-20.1043,11.5478
880,9.3885,-1.073,2.6824,-11.2696,-20.1043,11.8261
885,9.3118,-0.9963,2.7207,-11.687,-20.313,12.1739
890,9.2735,-1.073,2.4142,-12.313,-20.5913,12.4522
895,9.1586,-1.0346,2.4525,-12.9391,-20.7304,12.6609
900,9.1586,-1.1113,2.2992,-13.7043,-20.5217,12.9391
905,9.2352,-1.2263,2.3375,-14.3304,-19.9652,13.2174
910,9.2352,-1.3029,2.4525,-14.8174,-19.0609,13.4957
915,9.1969,-1.3795,2.4525,-15.0957,-18.087,13.5652
920,9.2735,-1.4179,2.4142,-14.9565,-17.1826,13.7043
925,9.2352,-1.6095,2.5291,-14.7478,-16.5565,13.6348
930,9.2352,-1.6861,2.5291,-14.2609,-16.0696,13.3565
935,9.2352,-1.8394,2.4908,-13.4261,-15.8609,13.287
940,9.1969,-1.8011,2.4908,-12.3826,-15.9304,13.1478
945,9.1969,-1.916,2.4525,-11.0609,-16.3478,13.0783
950,9.2352,-1.8394,2.4142,-9.8783,-16.8348,12.9391
955,9.3118,-1.916,2.3375,-8.6957,-17.2522,12.6609
960,9.3118,-1.8394,2.2992,-8.0,-17.5304,12.2435
965,9.3118,-1.8011,2.2226,-7.7913,-17.113,11.7565
970,9.2735,-1.7627,1.9927,-8.2087,-16.4174,11.2
975,9.2735,-1.5711,1.9543,-9.3913,-15.7217,10.2957
980,9.3885,-1.6861,1.8777,-10.9217,-14.9565,9.3913
985,9.4268,-1.5328,1.6861,-12.8,-14.3304,8.2087
990,9.4268,-1.4945,1.916,-14.7478,-13.9826,6.887
995,9.4268,-1.4562,1.9927,-16.2087,-13.913,5.4957
1000,9.2735,-1.4945,2.1459,-17.6,-14.1913,4.313
1005,9.3118,-1.3795,2.2226,-18.2261,-14.6087,3.1304
1010,9.1969,-1.4562,1.8394,-18.5043,-15.3739,2.0174
1015,9.3885,-1.3795,2.0693,-18.5739,-16.3478,0.9739
1020,9.2352,-1.4562,1.9543,-18.5739,-17.6,0.0
1025,9.4268,-1.3795,1.8394,-19.1304,-18.7826,-0.6957
1030,9.3502,-1.3029,1.8777,-20.2435,-19.7565,-1.113
1035,9.2735,-1.3412,2.0693,-21.7043,-20.3826,-1.6696
1040,9.3118,-1.4562,2.1459,-22.9565,-20.9391,-2.0174
1045,9.3118,-1.6095,2.2226,-23.3043,-21.0087,-2.5043
1050,9.1969,-1.8777,2.2992,-22.2609,-21.0783,-3.0609
1055,9.2735,-1.8394,2.3375,-20.0348,-21.1478,-3.5478
1060,9.2735,-1.9543,2.2609,-17.3217,-21.0783,-4.0348
1065,9.1586,-1.8777,2.1459,-14.7478,-21.1478,-4.5217
1070,9.1202,-1.9543,1.9927,-12.9391,-21.4261,-4.8
1075,9.1202,-1.8394,2.0693,-11.7565,-21.7739,-4.9391
1080,9.1586,-2.031,2.031,-11.0609,-22.1913,-5.0783
1085,9.1202,-2.031,1.9927,-10.9913,-22.5391,-4.9391
1090,9.0436,-1.9927,1.8777,-11.0609,-22.6087,-4.5913
1095,9.1586,-2.031,1.8011,-11.0609,-22.3304,-4.313
1100,9.1586,-1.8777,1.7244,-11.1304,-21.7739,-3.8957
1105,9.3118,-1.9543,1.7244,-11.0609,-21.0087,-3.6174
1110,9.3118,-2.031,1.6861,-10.9913,-20.0348,-2.9217
1115,9.3118,-1.9927,1.6095,-10.713,-18.713,-2.3652
1120,9.3118,-1.916,1.7627,-9.8783,-17.4609,-1.8783
1125,9.5034,-2.0693,1.6095,-8.6957,-16.487,-1.3217
1130,9.5034,-2.031,1.916,-7.4435,-15.6522,-0.7652
1135,9.4268,-1.8394,1.8011,-5.8435,-15.0261,-0.5565
1140,9.6567,-1.7244,1.7627,-4.313,-14.6783,-0.2783
1145,9.6567,-1.8011,1.8777,-3.1304,-14.2609,-0.2783
1150,9.7334,-1.7244,1.916,-2.0174,-14.1217,-0.2783
1155,9.7334,-1.8011,1.916,-0.7652,-13.9826,-0.4174
1160,9.695,-1.6478,2.1076,0.3478,-13.7739,-0.4174
1165,9.695,-1.6861,2.1459,1.3217,-13.7739,-0.4174
1170,9.6184,-1.5328,2.0693,2.1565,-13.7739,-0.487
1175,9.5801,-1.4179,2.031,2.9217,-13.7739,-0.487
1180,9.925,-1.6478,1.9927,3.8957,-14.0522,-0.487
1185,9.6567,-1.4562,1.6478,4.8696,-14.3304,-0.3478
1190,9.8483,-1.5328,1.7627,5.8435,-14.4696,-0.2783
1195,9.81,-1.4945,1.6478,6.887,-14.3304,-0.1391
1200,9.6184,-1.2646,1.6095,7.7913,-14.3304,0.0
1205,9.5801,-1.1879,1.4179,8.0696,-14.2609,0.4174
1210,9.4651,-1.1113,1.3795,7.7217,-14.4696,0.9739
1215,9.4651,-1.073,1.2646,6.7478,-14.9565,1.4609
1220,9.6184,-1.0346,1.3029,5.4957,-15.5826,1.9478
1225,9.5801,-1.1113,1.3412,4.1739,-16.3478,2.2957
1230,9.4268,-1.1113,1.3412,2.8522,-17.113,2.5739
1235,9.4651,-1.1496,1.4179,2.087,-17.6696,2.9217
1240,9.5034,-1.1879,1.5711,1.5304,-18.0174,3.4087
1245,9.695,-1.3029,1.6095,1.3217,-18.2957,4.0348
1250,9.695,-1.4562,1.6478,1.3913,-18.4348,4.7304
1255,9.7717,-1.4179,1.6095,1.8087,-18.4348,5.4957
1260,9.8483,-1.5711,1.7627,2.7826,-18.3652,6.2609
1265,10.0016,-1.8011,1.6095,4.2435,-18.2261,6.887
1270,9.8866,-1.6478,1.5711,6.0522,-18.1565,7.2348
1275,9.925,-1.6095,1.4179,7.9304,-18.2261,7.3739
1280,9.8866,-1.5711,1.2646,9.3913,-18.6435,7.513
1285,9.7717,-1.4562,1.073,10.3652,-19.5478,7.513
1290,9.695,-1.2263,1.1496,10.2957,-20.8,7.5826
1295,9.9633,-1.2263,0.8814,9.2522,-22.1913,7.7217
1300,9.5801,-1.2646,0.8047,7.7913,-23.3739,8.0
1305,9.5801,-1.3412,0.7664,5.913,-23.9304,8.3478
1310,9.4651,-1.3412,0.6131,4.2435,-23.9304,8.5565
1315,9.5034,-1.4945,0.8047,2.9217,-23.5826,8.7652
1320,9.4651,-1.4179,0.9197,2.2957,-22.887,8.6261
1325,9.3502,-1.4562,0.843,2.087,-22.5391,8.3478
1330,9.2735,-1.3029,0.958,2.3652,-22.6087,7.8609
1335,9.3118,-1.3795,0.6898,2.8522,-23.3043,7.3043
1340,9.1969,-1.1496,0.7281,3.1304,-24.0696,6.8174
1345,9.1969,-1.1496,0.7281,3.4783,-25.1826,6.3304
1350,9.1969,-1.1496,0.8047,3.0609,-26.3652,5.9826
1355,9.1969,-1.0346,0.6131,2.5043,-27.7565,5.6348
1360,9.2352,-0.9963,0.5365,1.6,-29.0087,5.2174
1365,9.3118,-0.9197,0.5365,0.5565,-29.6348,4.8696
1370,9.5034,-0.9197,0.4598,-0.6261,-29.0783,4.4522
1375,9.5418,-1.0346,0.5365,-1.6696,-27.4087,4.1043
1380,9.695,-1.0346,0.6131,-2.6435,-25.0435,3.6174
1385,9.7334,-0.958,0.6514,-3.4783,-22.7478,3.1304
1390,9.695,-1.1113,0.6514,-4.313,-21.0783,2.5043
1395,9.81,-1.073,0.9197,-4.8696,-19.9652,1.7391
1400,9.8483,-1.0346,0.7664,-5.4261,-19.687,1.1826
1405,9.925,-1.0346,0.843,-6.0522,-20.1043,0.9739
1410,10.1549,-1.1113,0.7664,-6.6783,-21.0783,0.9739
1415,10.2315,-1.1113,0.7281,-7.2348,-22.2609,1.3913
1420,10.3465,-1.1113,0.6898,-8.0,-23.513,2.2957
1425,10.3082,-1.1496,0.8814,-8.8348,-24.2087,3.2696
1430,10.2315,-1.1879,0.6898,-9.5304,-24.487,4.3826
1435,10.1549,-1.3029,0.7281,-10.2957,-24.9739,5.4261
1440,9.9633,-1.073,0.7664,-10.9913,-25.6696,6.4
1445,10.0782,-1.3029,0.4982,-11.687,-26.5043,7.3739
1450,10.2315,-1.2646,0.4982,-12.6609,-27.0609,8.487
1455,10.3082,-1.3795,0.4982,-13.8435,-27.2,9.8783
1460,10.1932,-1.3412,0.4215,-14.9565,-26.6435,11.2
1465,10.0782,-1.4562,0.3449,-16.2783,-25.7391,11.9652
1470,10.0016,-1.5711,0.2682,-17.3217,-24.9043,12.7304
1475,10.1166,-1.6095,0.3066,-18.2261,-24.2783,13.2174
1480,10.0399,-1.5711,0.1916,-18.713,-24.0696,13.3565
1485,9.9633,-1.5328,0.2682,-19.2,-23.8609,13.4261
1490,9.8866,-1.4945,0.0383,-19.5478,-23.6522,13.287
1495,9.925,-1.5328,-0.0383,-20.2435,-23.3043,13.287
1500,9.8866,-1.5328,0.1533,-21.0087,-22.887,13.0783
1505,9.7334,-1.4562,0.1533,-21.913,-22.6087,12.9391
1510,9.5801,-1.3412,0.0,-22.7478,-22.4696,12.5913
1515,9.5034,-1.4179,0.0,-23.7217,-22.6783,12.313
1520,9.4651,-1.3412,0.0766,-24.487,-22.9565,11.7565
1525,9.5418,-1.4179,-0.0766,-24.7652,-22.9565,11.1304
1530,9.8483,-1.4562,-0.0766,-24.9043,-22.4696,10.9913
1535,9.7717,-1.4179,-0.1533,-24.6957,-21.4957,11.0609
1540,9.7334,-1.4945,-0.1916,-24.5565,-19.8261,10.9217
1545,9.9633,-1.6095,-0.115,-24.487,-17.5304,10.4348
1550,9.925,-1.7244,-0.1533,-24.1391,-15.6522,10.2261
1555,9.925,-1.8394,-0.1533,-23.7913,-13.913,9.6696
1560,9.8483,-1.8777,-0.1916,-23.7913,-13.0783,9.2522
1565,10.0016,-1.8777,-0.1533,-24.0,-13.0783,9.2522
1570,10.1166,-1.916,-0.2299,-24.6957,-13.8435,9.9478
1575,10.2315,-1.8394,-0.3066,-25.7391,-14.9565,10.4348
1580,10.1932,-1.8394,-0.2299,-26.7826,-15.8609,10.1565
1585,10.2315,-1.9543,-0.4598,-27.7565,-16.7652,10.6435
1590,10.1549,-1.9927,-0.2682,-28.5217,-17.3913,11.3391
1595,10.3848,-2.031,-0.2682,-28.6609,-17.8783,12.3826
1600,10.3082,-2.1076,-0.3449,-27.8957,-18.2957,13.4957
1605,10.2698,-2.1076,-0.3066,-26.9913,-18.5043,13.6348
1610,10.1932,-2.1843,-0.3066,-25.7391,-18.2957,13.1478
1615,10.1166,-2.1076,-0.1916,-24.5565,-18.0174,13.287
1620,10.0016,-2.1076,-0.3449,-23.4435,-17.8087,13.913
1625,10.1549,-2.2992,-0.4215,-22.3304,-17.1826,14.1217
1630,10.1549,-2.1459,-0.3832,-21.6348,-16.6957,13.9826
1635,10.3082,-2.1843,-0.4598,-20.7304,-16.2783,13.4261
1640,10.2315,-2.3759,-0.6131,-20.1043,-15.4435,13.0087
1645,10.3465,-2.2609,-0.4215,-19.4783,-14.3304,13.0783
1650,10.3848,-2.1459,-0.4598,-19.1304,-12.6609,13.1478
1655,10.2698,-2.1459,-0.4215,-18.8522,-11.0609,13.0783
1660,10.2698,-2.1459,-0.3066,-18.6435,-9.6696,13.287
1665,10.1932,-2.1076,-0.3449,-18.7826,-8.8348,13.3565
1670,10.1166,-1.9543,-0.4215,-19.1304,-8.487,13.287
1675,10.0782,-1.9927,-0.2299,-19.6174,-8.4174,13.4261
1680,10.0399,-1.9927,-0.2682,-19.8261,-8.5565,13.8435
1685,9.925,-1.8777,-0.1533,-20.0348,-8.4174,14.6087
1690,10.1166,-2.1076,-0.1916,-20.1739,-8.487,15.2348
1695,9.9633,-2.0693,-0.0766,-20.2435,-8.8348,15.6522
1700,9.8483,-2.0693,-0.3449,-20.313,-9.3913,16.3478
1705,9.8866,-2.1843,-0.3449,-20.313,-10.087,17.4609
1710,9.9633,-2.1459,-0.4982,-20.5217,-10.3652,18.5739
1715,9.9633,-2.1459,-0.5748,-20.7304,-10.4348,19.3391
1720,9.925,-2.1076,-0.6131,-21.3565,-10.5739,20.2435
1725,9.8483,-2.0693,-0.6131,-22.3304,-10.6435,21.3565
1730,10.0016,-2.1459,-0.7664,-23.5826,-10.7826,22.6783
1735,10.1166,-2.0693,-0.7281,-24.6261,-10.7826,23.3739
1740,10.2315,-2.1459,-0.7281,-25.6,-10.3652,23.9304
1745,10.2315,-2.2992,-0.6898,-26.2957,-9.2522,24.6957
1750,10.3082,-2.3759,-0.5748,-26.3652,-8.0,25.5304
1755,10.2698,-2.5675,-0.5365,-25.6696,-6.6783,26.2957
1760,10.2698,-2.6441,-0.4982,-24.2783,-5.2174,27.2696
1765,10.3082,-2.8357,-0.6131,-22.2609,-3.9652,27.9652
1770,10.2315,-2.989,-0.4598,-19.8261,-2.713,28.7304
1775,10.2698,-3.1423,-0.4982,-17.4609,-1.4609,29.4261
1780,10.0782,-3.1423,-0.5748,-15.4435,-0.487,30.1913
1785,9.9633,-3.1423,-0.4982,-13.6348,0.1391,31.0957
1790,9.925,-3.2572,-0.5748,-12.4522,0.487,32.0
1795,9.7717,-3.2189,-0.6898,-11.687,0.7652,32.9739
1800,9.6567,-3.1806,-0.6898,-11.2696,1.113,33.9478
1805,9.4651,-3.2955,-0.6898,-11.0609,1.7391,34.8522
1810,9.6567,-3.2572,-0.6514,-10.6435,2.6435,36.0348
1815,9.6184,-3.2189,-0.7281,-10.0174,3.5478,37.1478
1820,9.6184,-3.1423,-0.7664,-9.3913,4.6609,38.4
1825,9.7334,-3.1806,-0.843,-8.9043,5.8435,39.3043
1830,9.6567,-3.1423,-0.6514,-8.2783,6.887,40.0696
1835,9.6184,-3.2572,-0.8047,-7.513,8.0696,40.7652
1840,9.7334,-3.1806,-0.2682,-6.7478,9.1826,41.3217
1845,9.5034,-3.1423,-0.7281,-6.0522,10.0174,41.7391
1850,9.6184,-3.2572,-0.6898,-5.4261,10.8522,42.2261
1855,9.6567,-3.0656,-0.6131,-4.8,11.4087,42.5739
1860,9.5801,-3.1039,-0.6131,-4.5913,11.7565,42.4348
1865,9.5034,-3.1039,-0.5365,-4.7304,12.0348,42.2261
1870,9.3885,-3.1039,-0.7281,-5.287,12.4522,42.2957
1875,9.4651,-3.1423,-0.5748,-5.8435,12.8696,42.4348
1880,9.4651,-3.1806,-0.3066,-6.3304,13.0783,42.2957
1885,9.2735,-3.0656,-0.3832,-6.6783,13.1478,42.087
1890,9.2352,-2.989,-0.4215,-7.6522,13.0087,42.087
1895,9.2735,-3.1423,-0.3449,-8.6261,13.0087,42.5739
1900,9.3502,-3.3339,-0.1916,-9.3913,12.8,42.7826
1905,9.1969,-3.3339,-0.0766,-10.0174,12.5913,42.8522
1910,9.2352,-3.4105,-0.0766,-10.4348,11.8957,42.713
1915,9.1586,-3.4488,-0.115,-10.4348,10.8522,42.9217
1920,9.2352,-3.6404,-0.1916,-10.1565,9.6696,43.0609
1925,9.3118,-3.6787,-0.2682,-9.7391,8.3478,42.9217
1930,9.2735,-3.7554,-0.4215,-9.5304,7.0261,42.7826
1935,9.2735,-3.8704,-0.3832,-9.2522,6.3304,42.6435
1940,9.2352,-3.8704,-0.5365,-8.9739,6.1913,42.2957
1945,9.3118,-3.9853,-0.6131,-8.5565,6.5391,41.8783
1950,9.3502,-3.6021,-0.5748,-8.2783,7.0957,41.6696
1955,9.2352,-3.7554,-0.6131,-8.0,7.3739,41.3913
1960,9.1969,-3.7937,-0.5365,-7.7913,7.7217,41.1826
1965,9.1969,-3.7554,-0.3449,-8.0696,7.7913,40.5565
1970,9.2352,-3.7937,-0.4982,-8.6957,7.5826,39.9304
1975,9.1202,-3.832,-0.2682,-9.6696,7.3739,39.513
1980,9.1586,-3.947,-0.3066,-10.5043,7.2348,39.0261
1985,9.0819,-3.7937,-0.2299,-11.0609,7.3739,38.6087
1990,9.0053,-3.832,0.0383,-11.4087,7.5826,38.3304
1995,9.0436,-4.062,0.0,-11.4783,7.6522,38.1913
2000,8.9286,-4.0236,-0.0766,-11.3391,7.6522,37.9826
2005,9.0053,-4.1003,-0.0383,-11.2696,7.513,38.0522
2010,9.0819,-4.062,-0.1533,-11.3391,7.1652,38.2609
2015,9.0436,-4.1386,-0.2299,-11.6174,6.6783,38.2609
2020,9.1202,-4.2152,-0.2299,-11.8261,6.1913,38.4
2025,8.9286,-4.2152,-0.3066,-12.313,5.7043,38.6087
2030,8.852,-4.2152,-0.3066,-12.5913,5.2174,38.9565
2035,8.8903,-4.4068,-0.3832,-12.6609,4.4522,39.3739
2040,8.967,-4.4068,-0.3832,-12.4522,3.687,39.8609
2045,9.0436,-4.4452,-0.5365,-12.0348,2.713,40.4174
2050,8.852,-4.5218,-0.4215,-11.5478,2.1565,40.9043
2055,8.9286,-4.5984,-0.4982,-10.9913,1.8087,41.1826
2060,8.8137,-4.4452,-0.3066,-10.3652,1.8087,41.6
2065,8.852,-4.5218,-0.3832,-9.8783,1.8783,42.087
2070,8.967,-4.5601,-0.3449,-9.6,2.0174,42.2957
2075,9.0053,-4.5984,-0.2682,-9.3217,2.1565,42.2957
2080,8.967,-4.7134,-0.4215,-9.0435,2.4348,42.2261
2085,9.0436,-4.8284,-0.2299,-8.9043,2.5043,42.2261
2090,9.0053,-4.8667,-0.3449,-8.6261,2.5043,42.2957
2095,8.967,-4.905,-0.3066,-8.3478,2.5043,42.3652
2100,8.967,-5.0966,-0.6131,-8.0,2.2957,42.4348
2105,9.0436,-5.1349,-0.4598,-7.4435,2.2957,42.5043
2110,8.8903,-5.02,-0.4982,-6.9565,2.3652,42.3652
2115,8.9286,-5.02,-0.4215,-6.6783,2.5739,42.1565
2120,8.9286,-4.9816,-0.4598,-6.4696,2.9913,42.2957
2125,8.7754,-4.9816,-0.4598,-6.2609,3.4783,42.3652
2130,8.6987,-5.0583,-0.4982,-6.1913,3.9652,42.5043
2135,8.6987,-4.905,-0.3066,-6.1217,4.1739,42.5043
2140,8.6221,-4.8284,-0.3449,-6.2609,4.313,42.5043
2145,8.7754,-4.8667,-0.3832,-6.5391,4.313,42.2957
2150,8.6221,-4.8667,-0.2682,-7.0957,4.1739,42.0174
2155,8.5838,-4.8667,-0.1916,-7.8609,3.7565,41.8783
2160,8.5838,-4.6751,-0.115,-8.7652,3.3391,41.7391
2165,8.6221,-4.8667,-0.3449,-9.8783,2.9217,41.2522
2170,8.4305,-5.02,-0.5365,-10.5739,2.6435,41.0435
2175,8.5454,-4.9816,-0.3449,-11.3391,2.6435,40.8348
2180,8.6221,-5.2882,-0.4598,-11.5478,2.7826,40.6261
2185,8.4688,-5.2499,-0.4982,-11.5478,2.8522,40.3478
2190,8.3538,-5.3648,-0.4598,-11.4087,2.8522,40.2087
2195,8.3538,-5.5181,-0.6514,-10.8522,3.0609,40.2087
2200,8.1622,-5.5948,-0.3449,-10.4348,3.1304,40.3478
2205,8.0473,-5.5948,-0.6514,-10.087,3.1304,40.3478
2210,8.0856,-5.748,-0.6514,-9.7391,2.9217,40.487
2215,8.0089,-5.748,-0.5365,-9.2522,2.5739,40.4174
2220,7.9706,-5.7864,-0.4598,-8.8348,2.2261,40.3478
2225,7.894,-5.9013,-0.4982,-8.0,2.087,40.2783
2230,7.8557,-5.863,-0.3832,-6.887,2.087,40.0696
2235,7.8557,-6.0163,-0.2682,-5.1478,2.4348,39.6522
2240,7.8557,-6.0546,-0.3449,-3.8957,2.713,39.7217
2245,7.7024,-6.0929,-0.3449,-2.8522,2.9217,39.513
2250,7.779,-6.0929,-0.2682,-2.0174,3.4783,39.3043
2255,7.7407,-6.2079,-0.3832,-1.3217,4.1043,39.1652
2260,7.7407,-6.2079,-0.2299,-0.9043,4.8696,39.3043
2265,7.779,-6.2079,-0.4215,-0.6957,5.8435,39.513
2270,7.779,-6.1696,-0.3449,-0.6261,6.6087,39.7217
2275,7.4341,-6.2079,-0.1916,-0.9739,7.2348,39.8609
2280,7.7407,-6.2462,-0.3449,-1.5304,7.6522,40.0
2285,7.8557,-6.2462,-0.2682,-2.2957,8.1391,40.3478
2290,7.6641,-6.1696,-0.3449,-3.0609,8.487,40.9043
2295,7.7407,-6.0163,-0.2682,-3.5478,8.8348,41.1826
2300,7.7407,-5.9396,-0.0766,-3.7565,9.0435,41.5304
2305,7.6641,-6.0546,-0.0766,-3.6174,9.113,41.8087
2310,7.779,-6.1313,0.1533,-3.2696,9.1826,42.0174
2315,7.7407,-6.0929,0.0766,-2.6435,9.2522,42.2957
2320,7.9323,-6.2845,-0.115,-2.0174,9.1826,42.3652
2325,7.779,-6.2079,0.115,-1.4609,8.9043,42.2261
2330,7.7407,-6.2462,0.115,-1.3217,8.4174,41.8087
2335,7.8173,-6.2079,0.115,-1.3217,7.9304,41.2522
2340,7.779,-6.2845,0.0,-1.6,7.4435,40.9739
2345,7.5491,-6.3995,0.0383,-2.5043,6.7478,40.7652
2350,7.8173,-6.3612,-0.0766,-3.5478,6.1217,40.9043
2355,7.5108,-6.3612,-0.0383,-4.5217,5.4957,40.6957
2360,7.5874,-6.2845,-0.1916,-6.0522,4.9391,40.9043
2365,7.5108,-6.2845,-0.3066,-7.7913,4.5217,41.2522
2370,7.5491,-6.4378,-0.3066,-9.3217,4.313,41.5304
2375,7.5108,-6.4378,-0.4215,-10.7826,4.3826,41.6
2380,7.4725,-6.4378,-0.4598,-12.313,4.4522,41.5304
2385,7.1276,-6.6294,-0.0766,-13.287,4.7304,41.3913
2390,7.3192,-6.6677,-0.2299,-14.0522,4.8,41.113
2395,7.1659,-6.5911,-0.1533,-14.4,4.7304,40.9739
2400,7.1276,-6.7827,0.115,-14.2609,4.8696,40.8348
2405,7.1276,-6.821,0.0383,-14.0522,4.7304,40.9739
2410,7.0893,-6.8593,-0.0766,-13.4261,4.4522,40.9043
2415,7.0509,-6.8977,-0.1916,-12.5913,4.0348,40.6957
2420,6.936,-7.0126,-0.2299,-11.7565,3.6174,40.5565
2425,6.936,-6.8977,-0.115,-10.9913,3.4783,40.2783
2430,6.8977,-6.9743,-0.2682,-10.7826,3.4783,39.8609
2435,6.8977,-7.0509,-0.1916,-10.3652,3.5478,39.3739
2440,6.821,-7.0509,-0.115,-10.3652,3.7565,39.1652
2445,6.8977,-7.0509,-0.115,-10.2957,3.687,39.1652
2450,6.821,-7.0509,-0.1916,-10.2957,3.6174,39.2348
2455,6.7444,-7.0509,-0.1916,-10.3652,3.6174,39.2348
2460,6.7827,-7.0509,-0.2682,-10.2261,3.5478,39.3043
2465,6.7827,-7.0126,-0.2299,-9.9478,3.5478,39.3043
2470,6.8593,-6.8977,-0.2682,-9.8783,3.2,39.5826
2475,6.7827,-6.9743,-0.1916,-9.6,2.8522,39.9304
2480,6.821,-7.0509,-0.1916,-9.113,2.3652,40.2783
2485,6.821,-7.0893,-0.1916,-8.6261,2.087,40.4174
2490,6.8593,-7.1276,-0.2299,-7.7217,2.0174,40.4174
2495,6.7444,-7.1276,-0.5365,-6.6087,1.9478,40.8348
2500,6.7827,-7.2425,-0.2299,-5.9826,1.7391,41.6
2505,6.7444,-7.2425,-0.2299,-5.3565,1.5304,41.8783
2510,6.7444,-7.2809,-0.115,-4.6609,1.4609,42.1565
2515,6.7444,-7.2809,-0.1916,-4.1043,1.3913,42.2261
2520,6.6294,-7.2042,-0.1533,-3.687,1.3913,41.8087
2525,6.5911,-7.1659,-0.115,-3.6174,1.113,41.4609
2530,6.5911,-7.1659,-0.2682,-4.1043,0.6957,41.0435
2535,6.5528,-7.0126,-0.115,-4.7304,0.4174,40.5565
2540,6.7061,-7.0893,-0.3832,-5.2174,0.2087,39.9304
2545,6.6294,-7.0509,-0.2299,-6.0522,-0.0696,39.2348
2550,6.6294,-7.0509,-0.2299,-7.2348,-0.0696,38.6783
2555,6.5528,-7.0509,-0.3449,-8.5565,0.1391,38.0522
2560,6.5145,-7.1276,-0.4215,-9.8087,0.2087,37.7043
2565,6.7061,-7.1659,-0.4215,-10.9913,0.2087,37.5652
2570,6.4761,-7.1659,-0.4598,-12.1043,0.1391,37.287
2575,6.4761,-7.3192,-0.3832,-13.2174,0.1391,37.2174
2580,6.3229,-7.4341,-0.2682,-13.8435,-0.1391,37.2174
2585,6.2845,-7.5108,-0.3066,-14.3304,-0.2783,37.0783
2590,6.4378,-7.4725,-0.4982,-14.1913,-0.4174,36.7304
2595,6.2845,-7.6641,-0.5365,-13.8435,-0.5565,36.3826
2600,6.2079,-7.6257,-0.4598,-13.3565,-0.5565,35.8261
2605,6.2462,-7.5874,-0.4215,-12.6609,-0.6261,35.7565
2610,6.1313,-7.6257,-0.7664,-12.313,-0.8348,35.5478
2615,6.2079,-7.5874,-0.5365,-12.5217,-1.0435,35.2
2620,6.2462,-7.5874,-0.5748,-12.7304,-1.1826,34.5739
2625,6.2462,-7.6257,-0.6131,-13.0783,-1.3913,34.087
2630,6.2845,-7.5874,-0.5365,-13.8435,-1.4609,33.5304
2635,6.3229,-7.5108,-0.6898,-15.1652,-1.8087,33.2522
2640,6.2079,-7.4725,-0.8047,-16.6957,-2.4348,32.9043
2645,6.2845,-7.4725,-0.7281,-18.2261,-3.0609,32.5565
2650,6.2845,-7.5108,-0.6898,-19.5478,-3.5478,32.3478
2655,6.2079,-7.7024,-0.7664,-20.4522,-4.313,32.0
2660,6.2845,-7.894,-0.8047,-21.1478,-4.7304,31.7217
2665,6.2462,-7.9323,-0.7664,-21.0087,-4.9391,31.2348
2670,6.3612,-8.0473,-0.7664,-20.4522,-4.6609,30.6783
2675,6.3612,-8.1622,-0.7664,-19.2696,-4.313,29.8435
2680,6.2845,-8.1622,-0.7281,-17.6696,-3.7565,29.287
2685,6.2079,-8.2389,-0.8814,-15.7217,-3.0609,28.7304
2690,6.3229,-8.2005,-0.6514,-13.7739,-2.4348,27.8261
2695,6.3612,-8.3921,-0.8047,-11.5478,-1.6696,26.9913
2700,6.3612,-8.2005,-0.8814,-9.5304,-0.9043,26.1565
2705,6.1696,-8.0473,-0.8814,-7.8609,-0.5565,25.3217
2710,6.5528,-8.0856,-0.7281,-6.7478,-0.2783,24.8348
2715,6.3229,-7.779,-0.958,-6.1913,0.0,24.3478
2720,6.1696,-7.779,-0.9197,-5.9826,0.3478,24.0
2725,6.0546,-7.8557,-1.0346,-5.913,0.4174,23.9304
2730,6.0546,-7.7407,-0.9963,-6.2609,0.4174,23.7217
2735,5.8247,-7.7024,-0.8047,-7.0261,0.0696,23.7913
2740,5.978,-7.8557,-1.073,-7.7217,-0.4174,24.0
2745,5.6714,-7.7407,-0.843,-8.3478,-1.2522,24.2783
2750,5.6331,-7.9706,-0.9197,-8.8348,-1.6696,24.5565
2755,5.5948,-7.894,-1.073,-8.9043,-1.7391,24.6957
2760,5.9013,-8.0856,-1.1113,-8.6957,-1.6696,24.6957
2765,5.7097,-8.0089,-1.1496,-8.3478,-1.1826,24.9043
2770,5.748,-8.0473,-1.1496,-7.5826,-0.4174,24.9739
2775,5.863,-8.1239,-1.073,-6.887,0.487,24.8348
2780,5.7864,-8.0856,-0.9963,-6.3304,1.2522,24.9043
2785,5.748,-8.1622,-1.073,-5.5652,2.087,24.9739
2790,5.9396,-8.3538,-0.9963,-4.8,2.713,25.113
2795,5.748,-8.2389,-0.9197,-4.0348,3.1304,24.9739
2800,5.748,-8.2005,-0.8047,-3.5478,3.4783,25.0435
2805,5.7864,-8.2389,-0.843,-2.8522,3.8261,25.113
2810,5.6331,-8.2772,-0.958,-2.3652,3.8957,25.1826
2815,5.748,-8.1239,-0.843,-2.3652,3.7565,24.8348
2820,5.5564,-8.3155,-0.8814,-2.7826,3.8261,24.5565
2825,5.6331,-8.2772,-0.8047,-3.687,3.8957,24.6957
2830,5.5181,-8.3538,-0.843,-4.2435,4.3826,24.6261
2835,5.6331,-8.3155,-0.958,-4.6609,4.6609,24.6957
2840,5.6331,-8.3155,-1.073,-5.2174,4.9391,24.487
2845,5.6714,-8.1622,-0.9963,-5.4261,5.7043,24.2783
2850,5.7097,-8.2005,-0.9963,-5.7739,6.6087,24.2783
2855,5.6331,-8.3538,-1.1496,-5.8435,7.7913,24.6261
2860,5.6331,-8.2772,-1.0346,-5.3565,9.0435,24.9043
2865,5.5948,-8.3155,-1.1879,-4.3826,9.9478,24.9739
2870,5.5948,-8.3538,-1.073,-3.4783,10.6435,24.9739
2875,5.4032,-8.4688,-0.958,-2.2957,11.2696,25.5304
2880,5.3265,-8.5071,-0.8814,-0.8348,11.6174,25.9478
2885,5.2499,-8.3538,-0.8814,0.6261,12.0348,26.4348
2890,5.3265,-8.3538,-0.843,1.6696,12.4522,26.3652
2895,5.4032,-8.2772,-0.8814,2.2957,12.9391,26.1565
2900,5.4798,-8.2005,-1.0346,2.6435,13.4261,25.8783
2905,5.3265,-8.1239,-1.0346,2.713,14.1217,25.3913
2910,5.1732,-8.0856,-0.9963,2.5739,14.9565,25.3217
2915,5.3648,-8.2005,-0.958,2.2261,15.8609,25.1826
2920,5.3648,-8.0856,-0.843,1.9478,16.8348,25.0435
2925,5.4032,-8.2389,-0.843,1.8087,17.6,24.7652
2930,5.4032,-8.1622,-0.958,1.3913,18.0174,24.6261
2935,5.3648,-8.1239,-0.6514,1.113,18.4348,24.487
2940,5.4415,-8.3538,-0.6898,0.9043,18.5043,24.2783
2945,5.2882,-8.3921,-0.5365,0.8348,18.4348,24.2087
2950,5.3648,-8.3921,-0.5748,0.6957,18.3652,24.3478
2955,5.2499,-8.4305,-0.5748,0.6957,18.087,24.8348
2960,5.1349,-8.5071,-0.4982,0.6261,17.8087,25.3217
2965,4.9816,-8.6221,-0.4215,0.487,17.6,25.8783
2970,4.8284,-8.5454,-0.4215,0.4174,17.2522,26.7826
2975,4.905,-8.6604,-0.5748,0.1391,16.5565,27.5478
2980,4.8667,-8.6604,-0.4982,0.1391,15.9304,28.313
2985,4.8284,-8.737,-0.3832,0.0696,15.2348,28.8
2990,4.7134,-8.737,-0.4215,-0.487,14.7478,29.6348
2995,4.6751,-8.737,-0.4982,-0.8348,14.4696,30.6087
