timestamp,accX,accY,accZ,gyroX,gyroY,gyroZ
0,-0.0383,-9.3885,-2.7591,0.1391,5.6348,0.0
5,0.0383,-9.5034,-2.7591,-0.2783,5.5652,-0.0696
10,-0.0766,-9.4651,-2.6441,-0.7652,5.4261,-0.2087
15,-0.0383,-9.3885,-2.7207,-1.1826,5.2174,-0.2087
20,0.0,-9.4651,-2.7207,-1.5304,4.9391,-0.2087
25,-0.0383,-9.4651,-2.7591,-1.8783,4.5913,-0.2783
30,-0.115,-9.3118,-2.7591,-2.2261,4.2435,-0.2783
35,0.0,-9.3885,-2.7591,-2.3652,3.9652,-0.2783
40,-0.0766,-9.5034,-2.7591,-2.5043,3.7565,-0.3478
45,-0.0766,-9.4268,-2.874,-2.3652,3.6174,-0.3478
50,-0.0383,-9.6184,-2.7974,-2.3652,3.5478,-0.487
55,-0.0766,-9.5801,-2.7974,-2.2957,3.4087,-0.487
60,0.0383,-9.6567,-2.6058,-2.087,3.4087,-0.5565
65,-0.1533,-9.5418,-2.7591,-1.7391,3.4783,-0.5565
70,0.0383,-9.5801,-2.874,-1.6,3.6174,-0.487
75,0.0383,-9.6184,-2.6441,-1.3913,3.7565,-0.6261
80,-0.0383,-9.5801,-2.5291,-1.2522,3.687,-0.5565
85,-0.0766,-9.5034,-2.6824,-1.113,3.687,-0.6261
90,0.0766,-9.5418,-2.9123,-1.1826,3.7565,-0.5565
95,-0.0383,-9.5034,-2.7591,-1.3217,3.7565,-0.487
100,0.0,-9.5034,-2.6824,-1.5304,3.7565,-0.5565
105,-0.0383,-9.5034,-2.8357,-1.6696,3.7565,-0.5565
110,0.0,-9.4268,-2.7974,-1.8783,3.8957,-0.487
115,-0.115,-9.4268,-2.6824,-2.0174,3.9652,-0.5565
120,-0.0383,-9.4651,-2.874,-2.087,4.0348,-0.4174
125,-0.0766,-9.3885,-2.6824,-2.087,4.1739,-0.487
130,-0.0383,-9.5034,-2.7591,-2.0174,4.2435,-0.5565
135,-0.0383,-9.4268,-2.6824,-2.1565,4.313,-0.5565
140,-0.0383,-9.5801,-2.7591,-2.1565,4.3826,-0.5565
145,-0.0766,-9.4268,-2.6441,-2.2261,4.4522,-0.5565
150,-0.0383,-9.4268,-2.6441,-2.0174,4.5217,-0.5565
155,0.0383,-9.4268,-2.7974,-2.2261,4.4522,-0.6261
160,-0.0766,-9.3885,-2.7591,-2.087,4.3826,-0.5565
165,-0.115,-9.4651,-2.874,-2.087,4.1739,-0.5565
170,0.0,-9.4651,-2.9507,-2.0174,3.8957,-0.487
175,-0.0383,-9.4268,-2.8357,-2.0174,3.687,-0.5565
180,-0.0383,-9.4268,-2.7974,-1.8783,3.4783,-0.3478
185,-0.0766,-9.5418,-2.7591,-1.6696,3.2696,-0.4174
190,0.0383,-9.5034,-2.874,-1.4609,3.2696,-0.2783
195,0.0,-9.5418,-2.8357,-1.113,3.2696,-0.3478
200,-0.115,-9.5418,-2.7591,-0.8348,3.3391,-0.2087
205,-0.0383,-9.6184,-2.7591,-0.5565,3.4783,-0.2087
210,0.0,-9.5801,-2.6824,-0.487,3.687,-0.1391
215,0.0,-9.5801,-2.7974,-0.4174,3.8261,-0.2087
220,0.1533,-9.5801,-2.7207,-0.3478,3.9652,-0.0696
225,0.0,-9.5801,-2.7591,-0.2087,4.2435,-0.2087
230,0.0766,-9.4651,-2.7207,-0.2087,4.313,-0.2087
235,0.0383,-9.5801,-2.7974,-0.1391,4.4522,-0.2087
240,0.0383,-9.5418,-2.7207,-0.2087,4.4522,-0.2087
245,0.0383,-9.5418,-2.7591,-0.2087,4.5217,-0.3478
250,0.0,-9.5034,-2.8357,-0.2783,4.5913,-0.1391
255,0.0,-9.4651,-2.874,-0.487,4.5913,-0.2783
260,0.0383,-9.5034,-2.7591,-0.6261,4.4522,-0.2087
265,-0.0383,-9.4651,-2.7974,-0.7652,4.3826,-0.2783
270,0.115,-9.4651,-2.8357,-1.1826,4.2435,-0.1391
275,0.0766,-9.4651,-2.874,-1.2522,4.0348,-0.2087
280,0.115,-9.5034,-2.7591,-1.3913,4.1739,-0.1391
285,0.0,-9.4268,-2.7974,-1.3913,4.2435,-0.1391
290,0.0383,-9.5034,-2.8357,-1.3913,4.1739,0.0
295,0.0,-9.4651,-2.7591,-1.3913,4.1739,-0.1391
300,0.0383,-9.5034,-2.9507,-1.3913,4.2435,0.0696
305,0.0766,-9.4651,-2.874,-1.3217,4.2435,-0.1391
310,0.0766,-9.4651,-2.7974,-1.3913,4.313,0.0696
315,0.0383,-9.5034,-2.9507,-1.2522,4.3826,-0.0696
320,0.0766,-9.6184,-2.989,-1.2522,4.4522,0.1391
325,0.0383,-9.6184,-2.874,-1.3217,4.5913,0.0
330,0.0383,-9.5801,-2.8357,-0.9739,4.6609,0.2087
335,0.0383,-9.6567,-2.7591,-0.6957,4.5913,-0.0696
340,0.0766,-9.6184,-2.7974,-0.6261,4.6609,0.1391
345,0.0383,-9.5801,-2.874,-0.4174,4.7304,-0.0696
350,0.0383,-9.695,-2.7974,-0.1391,4.6609,0.1391
355,0.0,-9.5801,-2.7974,-0.0696,4.5217,-0.0696
360,0.0,-9.6184,-2.874,0.1391,4.4522,0.1391
365,0.0383,-9.5034,-2.8357,0.2087,4.313,-0.0696
370,0.0383,-9.5034,-2.8357,0.4174,4.2435,0.1391
375,0.0383,-9.4268,-2.9123,0.5565,4.313,0.0696
380,0.115,-9.5801,-2.7207,0.6957,4.313,0.0696
385,-0.0383,-9.4651,-2.9507,0.6261,4.313,-0.0696
390,0.0383,-9.4651,-2.8357,0.6261,4.313,0.1391
395,0.0766,-9.5801,-2.8357,0.6261,4.3826,0.0696
400,0.0383,-9.4268,-2.7974,0.487,4.3826,0.2087
405,0.0383,-9.5418,-2.874,0.4174,4.4522,0.0
410,-0.0383,-9.4651,-2.7207,0.3478,4.5217,0.0696
415,-0.0766,-9.4651,-2.6441,0.2783,4.6609,0.0
420,0.0766,-9.4268,-2.7974,0.0696,4.7304,0.1391
425,-0.0766,-9.5034,-2.7974,0.0,4.7304,0.0
430,0.1533,-9.5801,-2.7974,-0.0696,4.8,0.2087
435,0.115,-9.5418,-2.7974,-0.0696,4.7304,0.0696
440,-0.0766,-9.6184,-2.8357,0.2087,4.8,0.2087
445,0.0,-9.6184,-2.9507,0.4174,4.8,0.1391
450,-0.0766,-9.4651,-2.7591,0.6261,4.8,0.2783
455,-0.0766,-9.5418,-2.6824,0.9739,4.7304,0.1391
460,-0.0383,-9.6184,-2.874,1.2522,4.6609,0.3478
465,-0.0383,-9.5418,-2.8357,1.5304,4.7304,0.1391
470,0.0,-9.5418,-2.8357,1.6,4.8,0.2087
475,0.0,-9.5418,-2.874,1.9478,4.8696,0.0696
480,0.0766,-9.6184,-2.6441,2.087,5.0087,0.3478
485,0.0,-9.695,-2.6441,2.4348,5.1478,0.1391
490,0.0766,-9.5801,-2.8357,2.6435,5.2174,0.3478
495,0.0,-9.5034,-2.6441,2.8522,5.287,0.2783
500,0.0383,-9.5801,-2.6058,2.9217,5.1478,0.4174
505,0.0766,-9.4268,-2.6441,2.9217,5.0087,0.2783
510,0.0,-9.4268,-2.7207,2.9217,4.9391,0.4174
515,0.0,-9.3885,-2.6824,2.6435,4.8696,0.2087
520,-0.0383,-9.4651,-2.7591,2.4348,4.8696,0.487
525,0.0,-9.3885,-2.6824,2.2261,4.8,0.2087
530,0.1533,-9.4651,-2.7591,1.8087,4.8696,0.2783
535,-0.0383,-9.5034,-2.6824,1.3913,5.0087,0.1391
540,-0.0383,-9.5418,-2.6441,1.0435,5.2174,0.2783
545,-0.0766,-9.3885,-2.7591,0.6261,5.3565,0.0696
550,0.0383,-9.5034,-2.6824,0.4174,5.4957,0.0696
555,-0.0383,-9.3885,-2.6824,0.1391,5.6348,-0.0696
560,0.0,-9.4268,-2.7207,-0.2087,5.7043,0.0
565,-0.0383,-9.4651,-2.6058,-0.2783,5.7739,-0.2783
570,-0.0383,-9.5418,-2.7207,-0.2783,5.6348,-0.0696
575,0.0,-9.5034,-2.5675,-0.1391,5.4957,-0.2783
580,0.0,-9.5418,-2.6441,0.0696,5.3565,-0.1391
585,0.0,-9.5418,-2.7591,0.2087,5.2174,-0.2087
590,0.0766,-9.6567,-2.7207,0.4174,5.0783,0.0
595,0.0,-9.5034,-2.6058,0.4174,5.0087,-0.1391
600,0.0383,-9.4651,-2.7207,0.5565,4.8696,0.0696
605,0.0383,-9.4651,-2.7207,0.6957,4.8,-0.1391
610,-0.0766,-9.4651,-2.6824,0.5565,4.8,0.0
615,0.0,-9.5034,-2.6441,0.5565,4.6609,-0.0696
620,0.0383,-9.5801,-2.6441,0.4174,4.8,0.0
625,0.0,-9.4651,-2.7207,0.2783,4.8,-0.2087
630,0.0383,-9.5034,-2.874,0.2087,4.7304,-0.1391
635,0.0,-9.5418,-2.874,0.0,4.7304,-0.2087
640,0.0383,-9.5034,-2.7207,0.0,4.6609,-0.2087
645,0.0766,-9.5801,-2.874,-0.0696,4.4522,-0.1391
650,-0.0383,-9.5418,-2.7591,0.1391,4.4522,-0.1391
655,0.0766,-9.6567,-2.8357,0.3478,4.313,-0.1391
660,-0.0766,-9.5034,-2.5675,0.8348,4.1739,-0.0696
665,-0.0383,-9.5418,-2.7974,1.3217,4.1043,0.0
670,0.0766,-9.6567,-2.8357,1.9478,4.1739,0.1391
675,-0.0766,-9.5801,-2.6824,2.3652,4.1043,0.1391
680,0.0383,-9.6567,-2.6441,2.7826,4.1739,0.1391
685,-0.115,-9.5418,-2.7591,2.9913,4.1739,0.1391
690,0.0,-9.5801,-2.7207,3.2,4.3826,0.1391
695,0.0766,-9.5418,-2.6058,3.3391,4.3826,0.0
700,-0.0383,-9.5034,-2.6824,3.1304,4.3826,-0.0696
705,0.0383,-9.5034,-2.7591,3.1304,4.3826,-0.1391
710,-0.0383,-9.5034,-2.4908,3.0609,4.5217,-0.0696
715,0.0,-9.5801,-2.5675,3.0609,4.4522,-0.2087
720,0.0,-9.4268,-2.7207,2.8522,4.313,-0.2087
725,-0.0766,-9.4268,-2.6441,2.4348,4.313,-0.2783
730,0.0766,-9.3885,-2.5291,1.9478,4.1739,-0.3478
735,-0.0383,-9.4651,-2.6058,1.5304,4.1739,-0.487
740,0.0383,-9.5418,-2.4908,0.9043,4.2435,-0.4174
745,0.0,-9.4651,-2.5291,0.5565,4.2435,-0.4174
750,-0.0383,-9.4651,-2.4908,0.0696,4.1043,-0.4174
755,0.0766,-9.5034,-2.6824,-0.2087,4.1043,-0.3478
760,0.0,-9.5034,-2.7974,-0.3478,3.8957,-0.4174
765,0.0766,-9.5801,-2.7974,-0.487,3.9652,-0.3478
770,0.0383,-9.7334,-2.7974,-0.4174,4.0348,-0.2087
775,-0.115,-9.5034,-2.6824,-0.1391,4.1043,-0.1391
780,0.0,-9.5801,-2.6058,0.1391,4.0348,-0.0696
785,0.0383,-9.5418,-2.6441,0.487,3.8957,-0.0696
790,0.0383,-9.5418,-2.6824,0.9739,3.8261,0.0
795,-0.0383,-9.5418,-2.7207,1.3913,3.9652,0.1391
800,0.0383,-9.5418,-2.6058,1.4609,3.9652,0.1391
805,-0.0766,-9.5801,-2.7207,1.5304,3.9652,0.0696
810,0.0,-9.5801,-2.4908,1.6,4.1739,0.1391
815,0.0,-9.5801,-2.6824,1.8087,4.2435,0.1391
820,-0.0766,-9.4651,-2.6441,1.7391,4.313,0.0
825,0.0766,-9.5418,-2.6441,1.8087,4.313,0.0696
830,0.0383,-9.5034,-2.6441,1.7391,4.4522,0.0
835,-0.115,-9.4651,-2.5291,1.6,4.3826,0.0
840,0.0383,-9.5034,-2.4908,1.6,4.3826,0.0
845,0.115,-9.4651,-2.6441,1.5304,4.313,0.0
850,0.0383,-9.5034,-2.5291,1.5304,4.3826,-0.0696
855,0.0383,-9.6184,-2.4908,1.5304,4.2435,0.0
860,0.0383,-9.5034,-2.5675,1.5304,4.313,-0.0696
865,0.0766,-9.5801,-2.4525,1.4609,4.2435,0.0
870,-0.0383,-9.4651,-2.5675,1.3913,4.2435,0.0
875,0.0383,-9.6184,-2.6058,1.3217,4.313,0.0
880,-0.0383,-9.5418,-2.5291,1.1826,4.3826,0.0
885,0.0,-9.5418,-2.5291,1.0435,4.4522,0.1391
890,0.0,-9.5801,-2.6824,0.9739,4.3826,0.0696
895,-0.0766,-9.5418,-2.6441,0.9043,4.313,0.0
900,-0.0383,-9.5801,-2.3759,0.9043,4.3826,-0.0696
905,0.0,-9.4651,-2.6058,0.9043,4.3826,0.0
910,0.0,-9.5418,-2.5291,0.9043,4.313,-0.1391
915,-0.0766,-9.5418,-2.4908,0.9043,4.313,-0.1391
920,-0.0383,-9.5418,-2.6441,0.9043,4.3826,-0.2783
925,-0.0766,-9.5418,-2.6824,0.9739,4.313,-0.2087
930,0.0383,-9.4651,-2.7591,0.9739,4.3826,-0.2087
935,0.0383,-9.5418,-2.6441,1.0435,4.3826,-0.1391
940,-0.0383,-9.4651,-2.5675,0.9739,4.313,-0.2087
945,0.0383,-9.5418,-2.4525,1.113,4.2435,-0.1391
950,0.0383,-9.6567,-2.3375,1.2522,4.2435,-0.2087
955,0.0,-9.5801,-2.5675,1.5304,4.1739,-0.0696
960,0.0766,-9.5801,-2.7591,1.6696,4.1739,-0.2783
965,-0.0383,-9.6184,-2.6441,1.7391,4.2435,-0.0696
970,0.0,-9.6567,-2.4525,1.7391,4.3826,-0.0696
975,0.0383,-9.5418,-2.4525,1.6696,4.4522,0.0696
980,0.0766,-9.6184,-2.6058,1.5304,4.313,-0.0696
985,0.0383,-9.5034,-2.4908,1.3913,4.313,0.1391
990,-0.0766,-9.4268,-2.5291,1.2522,4.2435,0.0
995,0.0,-9.5801,-2.6058,1.113,4.2435,0.0696
1000,-0.0766,-9.3885,-2.7207,1.0435,4.2435,-0.1391
1005,0.0383,-9.6567,-2.5291,0.8348,4.2435,0.0
1010,0.0,-9.4651,-2.5291,0.6957,4.1739,-0.2087
1015,0.0,-9.6184,-2.6441,0.6261,4.2435,-0.0696
1020,-0.0766,-9.5418,-2.6441,0.6261,4.2435,-0.2783
1025,-0.0383,-9.5418,-2.6441,0.487,4.313,-0.1391
1030,-0.0383,-9.5801,-2.6824,0.3478,4.313,-0.1391
1035,-0.0766,-9.4268,-2.5675,0.2783,4.4522,0.0696
1040,0.0383,-9.5418,-2.7207,0.0696,4.3826,-0.2087
1045,0.0766,-9.5034,-2.5675,0.0696,4.4522,-0.0696
1050,0.0383,-9.5418,-2.6058,-0.0696,4.5217,-0.2087
1055,0.0,-9.5034,-2.5291,-0.2087,4.5217,0.0
1060,0.0383,-9.5418,-2.5675,-0.1391,4.5913,-0.0696
1065,0.2682,-9.4268,-2.9123,-0.2087,4.4522,0.1391
1070,0.0766,-9.695,-2.3759,-0.2783,4.313,-0.0696
1075,0.2682,-9.5801,-2.6058,-0.3478,4.313,0.0
1080,0.2299,-9.2735,-2.9123,-0.3478,4.3826,-0.0696
1085,0.2682,-9.6184,-2.4142,-0.3478,4.4522,0.1391
1090,-0.2299,-9.5034,-2.5675,-0.3478,4.3826,0.1391
1095,0.4982,-9.3885,-2.7591,-0.2783,4.2435,0.2783
1100,0.115,-9.7717,-2.2992,-0.2783,4.2435,0.1391
1105,0.0766,-9.3502,-2.989,-0.4174,4.1739,0.2783
1110,0.5365,-9.6184,-2.2609,-0.4174,3.9652,0.0696
1115,0.0,-9.5418,-2.5675,-0.3478,3.9652,0.1391
1120,-0.0383,-9.5034,-2.5675,-0.4174,3.8261,0.0
1125,0.0,-9.5034,-2.6441,-0.3478,3.7565,0.1391
1130,-0.0383,-9.5801,-2.6441,-0.3478,3.8261,-0.1391
1135,0.115,-9.6567,-2.3375,-0.3478,3.8957,0.0696
1140,-0.0766,-9.5034,-2.6058,-0.3478,3.8957,-0.1391
1145,0.0,-9.5801,-2.4908,-0.487,3.9652,0.1391
1150,0.0383,-9.6184,-2.6058,-0.2783,4.1739,-0.1391
1155,-0.1533,-9.5801,-2.5675,-0.1391,4.2435,0.0696
1160,0.0383,-9.695,-2.6058,0.0696,4.313,-0.1391
1165,-0.0766,-9.6184,-2.5291,0.1391,4.313,0.0
1170,0.0766,-9.6184,-2.6058,0.3478,4.3826,-0.0696
1175,0.0,-9.5801,-2.6058,0.4174,4.4522,0.1391
1180,0.0383,-9.6567,-2.3759,0.4174,4.5913,0.0
1185,0.1533,-9.6184,-2.6058,0.5565,4.6609,0.1391
1190,-0.0383,-9.5418,-2.5675,0.8348,4.6609,0.0
1195,0.0,-9.6184,-2.4525,0.6957,4.6609,0.2087
1200,0.0,-9.5801,-2.4908,0.7652,4.8,-0.0696
1205,0.0766,-9.4651,-2.5675,0.6261,4.8696,0.0696
1210,0.0766,-9.6184,-2.5675,0.487,4.8,0.0
1215,0.0766,-9.5418,-2.5291,0.3478,4.9391,0.0
1220,0.115,-9.5418,-2.4908,0.2087,5.0087,-0.1391
1225,0.0,-9.5801,-2.4908,0.1391,4.9391,0.0
1230,0.0383,-9.5801,-2.5291,0.0696,4.9391,0.0
1235,-0.0383,-9.5801,-2.4142,0.1391,4.9391,0.1391
1240,0.0,-9.6184,-2.4908,0.1391,4.7304,0.0696
1245,-0.0383,-9.4651,-2.5675,0.2087,4.7304,0.2087
1250,0.0766,-9.5034,-2.6441,0.3478,4.6609,0.1391
1255,0.0766,-9.6567,-2.5675,0.487,4.6609,0.2783
1260,0.0383,-9.5801,-2.4142,0.5565,4.5217,0.2087
1265,0.0,-9.5034,-2.5291,0.5565,4.4522,0.3478
1270,0.0383,-9.5034,-2.6058,0.5565,4.313,0.1391
1275,-0.0766,-9.4651,-2.4908,0.6261,4.313,0.2783
1280,0.115,-9.6567,-2.4525,0.487,4.313,0.2087
1285,0.0383,-9.5034,-2.6441,0.2783,4.1739,0.2783
1290,-0.0766,-9.4268,-2.4908,0.0696,4.0348,0.1391
1295,0.0766,-9.5418,-2.4908,-0.1391,4.0348,0.2783
1300,-0.0383,-9.5801,-2.4908,-0.4174,4.0348,0.0696
1305,-0.0766,-9.5418,-2.3759,-0.5565,4.1043,0.2087
1310,0.0,-9.6184,-2.5291,-0.7652,4.1043,0.0
1315,0.0383,-9.5034,-2.5675,-0.8348,4.2435,0.0696
1320,0.0,-9.5418,-2.4908,-0.7652,4.313,-0.0696
1325,-0.0383,-9.5801,-2.5675,-0.6261,4.2435,-0.0696
1330,0.0766,-9.6184,-2.5675,-0.487,4.3826,-0.0696
1335,0.0,-9.5801,-2.5291,-0.2087,4.2435,0.0696
1340,0.0766,-9.695,-2.6824,0.0,4.1739,0.0
1345,0.0,-9.5418,-2.5291,0.2783,4.1739,0.0696
1350,0.0,-9.5801,-2.4908,0.3478,4.1043,-0.0696
1355,0.115,-9.5801,-2.4908,0.2783,4.0348,0.0696
1360,0.0,-9.5418,-2.5675,0.2087,3.9652,-0.0696
1365,-0.0383,-9.5034,-2.5675,0.2087,4.0348,0.0
1370,-0.115,-9.4651,-2.3759,0.0696,4.0348,0.0
1375,0.0,-9.5034,-2.4142,0.0,4.0348,0.1391
1380,-0.0383,-9.6184,-2.4908,0.0,4.0348,0.0696
1385,-0.0766,-9.5418,-2.4908,-0.1391,4.0348,0.1391
1390,-0.115,-9.5034,-2.4525,-0.2783,4.1043,0.0696
1395,-0.0383,-9.5034,-2.5675,-0.4174,4.1043,0.0696
1400,0.0,-9.5034,-2.5291,-0.4174,4.1043,-0.0696
1405,0.0383,-9.5801,-2.5291,-0.5565,4.1043,0.0
1410,0.0383,-9.6567,-2.6824,-0.5565,3.8957,0.0
1415,-0.0383,-9.5418,-2.6058,-0.6261,3.9652,0.1391
1420,0.0,-9.6184,-2.5675,-0.5565,3.8261,0.0696
1425,-0.0383,-9.6184,-2.6441,-0.2783,3.8261,0.2087
1430,-0.0383,-9.6567,-2.4525,0.1391,3.8957,0.0696
1435,-0.115,-9.4651,-2.4908,0.3478,3.9652,0.2087
1440,0.0383,-9.6567,-2.4142,0.6957,3.8957,0.1391
1445,0.0766,-9.6567,-2.5291,1.0435,4.0348,0.2783
1450,0.0766,-9.6567,-2.5291,1.3217,4.1739,0.0696
1455,-0.0766,-9.5801,-2.3759,1.3217,4.2435,0.1391
1460,0.0766,-9.5801,-2.4525,1.2522,4.2435,0.2087
1465,0.0383,-9.5034,-2.5291,1.1826,4.4522,0.2783
1470,0.0,-9.4651,-2.4142,0.9043,4.4522,0.1391
1475,0.115,-9.695,-2.5291,0.487,4.4522,0.1391
1480,0.0766,-9.6184,-2.3375,0.2783,4.4522,0.0696
1485,0.0766,-9.5418,-2.3375,0.1391,4.5217,-0.0696
1490,0.115,-9.6567,-2.5291,-0.2783,4.3826,-0.1391
1495,0.0,-9.5418,-2.4908,-0.487,4.313,-0.2087
1500,0.0,-9.5418,-2.4525,-0.487,4.1739,-0.2087
1505,0.0383,-9.5418,-2.4908,-0.6261,3.9652,-0.2087
1510,-0.0766,-9.6184,-2.5291,-0.8348,3.687,-0.1391
1515,0.0383,-9.4651,-2.4525,-0.9043,3.5478,-0.0696
1520,0.0766,-9.6184,-2.5291,-0.9739,3.5478,0.0
1525,0.0766,-9.4651,-2.4908,-0.8348,3.5478,0.0696
1530,-0.0383,-9.5418,-2.4525,-1.0435,3.4783,0.1391
1535,0.0383,-9.5801,-2.5291,-0.9043,3.5478,0.1391
1540,-0.0766,-9.6184,-2.5675,-0.8348,3.5478,0.2783
1545,-0.0383,-9.6567,-2.4908,-0.6957,3.6174,0.2783
1550,0.0383,-9.6567,-2.4908,-0.5565,3.5478,0.4174
1555,0.0383,-9.6567,-2.5291,-0.3478,3.687,0.4174
1560,0.0383,-9.695,-2.5291,-0.1391,3.7565,0.3478
1565,0.0,-9.5418,-2.4908,0.2087,3.7565,0.2783
1570,0.0,-9.5801,-2.2992,0.487,3.8261,0.2783
1575,0.0383,-9.5801,-2.4908,0.6957,3.8957,0.2783
1580,-0.115,-9.5034,-2.5675,0.8348,3.9652,0.3478
1585,-0.0383,-9.5418,-2.4142,0.9043,3.9652,0.1391
1590,0.0383,-9.5034,-2.5291,0.9043,4.0348,0.2087
1595,0.0766,-9.6184,-2.4142,0.9043,3.9652,0.0
1600,-0.0383,-9.5801,-2.3759,0.8348,4.0348,0.2087
1605,-0.0766,-9.5418,-2.4525,0.7652,3.9652,0.2087
1610,-0.0766,-9.6184,-2.3759,0.6261,4.0348,0.2783
1615,0.0,-9.5801,-2.4525,0.6261,4.0348,0.2087
1620,-0.115,-9.6184,-2.4142,0.487,4.0348,0.2087
1625,0.0383,-9.6184,-2.2226,0.3478,4.1043,0.1391
1630,-0.0766,-9.5801,-2.4908,0.2783,4.0348,0.1391
1635,0.0,-9.7334,-2.3759,0.1391,4.0348,-0.0696
1640,0.0,-9.695,-2.2992,-0.0696,4.0348,0.0696
1645,-0.0766,-9.6184,-2.4908,-0.1391,4.1043,-0.0696
1650,-0.0766,-9.5801,-2.3375,-0.3478,4.313,-0.1391
1655,0.0,-9.695,-2.4142,-0.4174,4.2435,-0.1391
1660,0.0,-9.5801,-2.5291,-0.487,4.3826,-0.0696
1665,-0.115,-9.5801,-2.4525,-0.4174,4.313,-0.1391
1670,0.0383,-9.5418,-2.4908,-0.3478,4.2435,-0.1391
1675,0.0766,-9.6567,-2.4525,-0.4174,4.2435,-0.2783
1680,0.0383,-9.6567,-2.4142,-0.3478,4.1043,-0.1391
1685,0.0383,-9.6184,-2.4142,-0.3478,4.1043,-0.2087
1690,-0.0766,-9.5034,-2.4142,-0.3478,4.1043,-0.1391
1695,-0.0766,-9.5801,-2.3375,-0.2087,4.0348,-0.1391
1700,0.0,-9.6567,-2.4142,-0.2783,4.1043,0.0
1705,0.0766,-9.7334,-2.5675,-0.4174,4.1043,0.0
1710,0.0,-9.4651,-2.6058,-0.4174,4.1043,0.1391
1715,-0.0383,-9.5801,-2.5291,-0.4174,4.0348,0.0
1720,0.0383,-9.5801,-2.4525,-0.4174,4.1043,0.1391
1725,0.0383,-9.6184,-2.4525,-0.3478,3.9652,-0.0696
1730,0.0,-9.5801,-2.4525,-0.3478,4.1043,0.2087
1735,-0.0383,-9.6567,-2.4525,-0.3478,4.1739,0.0
1740,0.0383,-9.5418,-2.4908,-0.4174,4.1739,0.0696
1745,0.0383,-9.5418,-2.3759,-0.4174,4.1739,-0.0696
1750,-0.0383,-9.6567,-2.3375,-0.6261,4.2435,0.0696
1755,0.0383,-9.4651,-2.2992,-0.6957,4.313,-0.0696
1760,0.0,-9.6184,-2.6058,-0.6957,4.313,0.1391
1765,-0.1533,-9.5034,-2.4142,-0.6957,4.1739,-0.0696
1770,0.0,-9.5801,-2.4142,-0.6957,4.0348,0.0696
1775,0.0,-9.5801,-2.3375,-0.6957,4.1739,-0.1391
1780,0.115,-9.6184,-2.2992,-0.5565,4.1739,0.0
1785,-0.0766,-9.4651,-2.4142,-0.5565,4.1739,-0.1391
1790,0.0,-9.6184,-2.5291,-0.6261,4.1043,0.0
1795,-0.115,-9.5418,-2.4142,-0.6957,4.1043,-0.2783
1800,0.0766,-9.5801,-2.4525,-0.7652,4.2435,0.0
1805,-0.0766,-9.4268,-2.4142,-1.0435,4.1739,-0.2087
1810,0.0383,-9.6184,-2.4142,-1.1826,4.1043,0.0
1815,0.0,-9.6567,-2.3759,-1.3217,4.1043,-0.0696
1820,0.0383,-9.5418,-2.4142,-1.3217,3.9652,0.0696
1825,-0.0766,-9.5801,-2.4525,-1.3913,3.8957,-0.0696
1830,0.0,-9.5418,-2.3759,-1.2522,4.0348,0.0696
1835,0.0,-9.6184,-2.4908,-1.113,4.0348,-0.1391
1840,0.0383,-9.6567,-2.5291,-1.113,3.9652,0.0696
1845,-0.0766,-9.5418,-2.5291,-0.9739,3.9652,-0.1391
1850,-0.0766,-9.6184,-2.3375,-0.7652,3.8957,0.0696
1855,-0.0383,-9.5801,-2.4908,-0.6261,3.8957,-0.0696
1860,0.0383,-9.6184,-2.4525,-0.6261,3.9652,0.0696
1865,0.0,-9.5801,-2.3759,-0.7652,4.0348,-0.0696
1870,0.0,-9.6184,-2.4908,-0.8348,4.1739,0.0
1875,-0.0383,-9.695,-2.4142,-0.9739,4.2435,-0.1391
1880,-0.0383,-9.6184,-2.5675,-0.9739,4.4522,0.0696
1885,0.0766,-9.6184,-2.6058,-1.113,4.4522,-0.2087
1890,-0.0383,-9.6184,-2.5675,-1.113,4.4522,-0.0696
1895,-0.0383,-9.5801,-2.4525,-1.0435,4.3826,-0.2783
1900,0.0766,-9.5801,-2.6058,-1.0435,4.3826,-0.0696
1905,0.0,-9.5418,-2.4142,-1.0435,4.4522,-0.2087
1910,-0.0383,-9.5801,-2.4908,-0.8348,4.3826,-0.1391
1915,0.0383,-9.5801,-2.4908,-0.6261,4.3826,-0.2087
1920,0.0,-9.5801,-2.4525,-0.5565,4.313,0.0
1925,0.0,-9.6184,-2.4142,-0.4174,4.1739,-0.2087
1930,0.0,-9.5418,-2.4142,-0.487,4.1739,0.0
1935,-0.115,-9.5034,-2.5291,-0.4174,4.1043,-0.1391
1940,0.0,-9.5801,-2.3375,-0.487,4.0348,0.0
1945,0.0766,-9.5801,-2.4142,-0.5565,3.9652,-0.1391
1950,0.0383,-9.5418,-2.4525,-0.6261,3.8957,0.0696
1955,0.0383,-9.6184,-2.4142,-0.6261,3.8957,-0.0696
1960,0.0,-9.5801,-2.4142,-0.6261,3.8261,0.0
1965,-0.0383,-9.5801,-2.5675,-0.6957,3.8261,-0.1391
1970,0.0,-9.4651,-2.5291,-0.7652,3.9652,0.0696
1975,-0.0766,-9.4651,-2.4525,-0.7652,3.9652,-0.0696
1980,-0.0766,-9.6184,-2.2609,-0.9043,4.1043,0.0696
1985,0.0,-9.5418,-2.4525,-1.0435,4.1739,-0.0696
1990,0.0,-9.6184,-2.4525,-1.1826,4.2435,-0.0696
1995,-0.0383,-9.6184,-2.3759,-1.3217,4.2435,-0.1391
2000,-0.0383,-9.5418,-2.4142,-1.3913,4.3826,-0.1391
2005,0.115,-9.695,-2.3759,-1.4609,4.3826,-0.2087
2010,-0.115,-9.6184,-2.2992,-1.3217,4.4522,-0.0696
2015,0.0,-9.5801,-2.4908,-1.2522,4.4522,-0.2783
2020,-0.0383,-9.5418,-2.3759,-1.113,4.313,-0.0696
2025,-0.115,-9.6184,-2.5291,-1.0435,4.1739,-0.2087
2030,-0.0383,-9.6184,-2.4525,-0.9739,4.1739,-0.0696
2035,0.0383,-9.6184,-2.5291,-0.7652,4.1043,-0.0696
2040,-0.0766,-9.6567,-2.4908,-0.6261,4.1043,-0.0696
2045,0.0,-9.5034,-2.4142,-0.487,4.0348,-0.2087
2050,-0.0383,-9.6184,-2.5291,-0.487,3.9652,-0.1391
2055,-0.0383,-9.5418,-2.7207,-0.4174,3.9652,-0.2087
2060,0.0383,-9.6567,-2.5675,-0.487,3.9652,-0.0696
2065,0.0,-9.5034,-2.3759,-0.5565,3.9652,-0.2087
2070,0.0,-9.5034,-2.4525,-0.5565,3.8957,0.0
2075,0.0,-9.5801,-2.4142,-0.3478,3.8261,-0.0696
2080,0.0,-9.5801,-2.4142,-0.2783,3.8261,0.0696
2085,-0.0383,-9.6184,-2.3759,-0.2783,3.687,0.0696
2090,0.0383,-9.5418,-2.4525,-0.2783,3.7565,0.0696
2095,-0.0383,-9.5801,-2.5291,-0.3478,3.8261,0.0696
2100,-0.0766,-9.5034,-2.5291,-0.3478,3.7565,0.2087
2105,0.0,-9.5801,-2.5291,-0.487,3.9652,0.1391
2110,-0.0383,-9.5801,-2.4908,-0.6957,4.1043,0.1391
2115,-0.115,-9.5418,-2.3759,-0.6957,4.2435,-0.0696
2120,0.0383,-9.6567,-2.4908,-0.8348,4.313,-0.1391
2125,-0.115,-9.6184,-2.4525,-0.7652,4.3826,-0.2087
2130,-0.0383,-9.6184,-2.6058,-0.7652,4.5217,-0.1391
2135,-0.0766,-9.5418,-2.4908,-0.6957,4.4522,-0.2087
2140,-0.0383,-9.5801,-2.5291,-0.5565,4.313,-0.2783
2145,0.0,-9.6184,-2.4908,-0.4174,4.2435,-0.3478
2150,-0.0383,-9.5034,-2.4525,-0.2087,4.2435,-0.3478
2155,0.0,-9.6184,-2.3759,-0.2087,4.1043,-0.487
2160,-0.0383,-9.6184,-2.3759,-0.1391,4.1043,-0.4174
2165,0.0,-9.4651,-2.4525,-0.2087,4.1043,-0.3478
2170,-0.0383,-9.5418,-2.2992,-0.4174,4.1043,-0.2783
2175,0.0383,-9.5034,-2.3375,-0.5565,4.1739,-0.2087
2180,-0.115,-9.5801,-2.5291,-0.9043,4.1043,-0.2783
2185,-0.115,-9.6184,-2.3375,-1.113,4.0348,-0.2087
2190,0.0,-9.5418,-2.3759,-1.3913,4.1739,-0.2783
2195,-0.0383,-9.5801,-2.5291,-1.3913,4.2435,-0.2087
2200,0.0,-9.6184,-2.5675,-1.3217,4.2435,-0.1391
2205,-0.0383,-9.6184,-2.5291,-1.0435,4.1739,-0.1391
2210,-0.0383,-9.6184,-2.5675,-0.6957,4.0348,-0.1391
2215,0.0383,-9.6567,-2.7591,-0.4174,3.8957,-0.1391
2220,-0.0766,-9.5801,-2.4525,-0.0696,3.6174,-0.1391
2225,-0.0766,-9.5418,-2.5291,0.2087,3.687,-0.1391
2230,-0.0383,-9.6567,-2.5291,0.487,3.6174,-0.0696
2235,0.0,-9.7717,-2.4908,0.9043,3.5478,0.1391
2240,-0.0383,-9.7334,-2.4908,1.1826,3.4783,0.1391
2245,0.0383,-9.695,-2.3375,1.2522,3.5478,0.2087
2250,-0.115,-9.5801,-2.3759,1.3913,3.687,0.2087
2255,0.115,-9.6184,-2.3375,1.3217,3.8261,0.2087
2260,0.0,-9.6567,-2.4142,1.3217,3.8957,0.1391
2265,-0.0766,-9.695,-2.2992,1.3913,4.0348,0.1391
2270,-0.115,-9.5801,-2.3759,1.3217,4.1043,0.0
2275,0.0,-9.5801,-2.3375,1.1826,4.1739,0.0696
2280,-0.0766,-9.6184,-2.3759,1.0435,4.1739,-0.1391
2285,-0.0383,-9.6184,-2.5291,0.6957,4.1739,-0.1391
2290,-0.1533,-9.5418,-2.4142,0.5565,4.1739,-0.2087
2295,0.0,-9.5801,-2.3759,0.487,4.1739,-0.2783
2300,-0.0383,-9.5034,-2.6824,0.2087,4.1739,-0.2783
2305,-0.115,-9.5418,-2.4525,0.0696,4.1739,-0.2087
2310,0.0383,-9.5418,-2.3759,0.0,3.9652,-0.2783
2315,0.0,-9.695,-2.4908,0.0696,3.8261,0.0
2320,0.0,-9.5034,-2.6441,0.2087,3.8261,-0.1391
2325,-0.0383,-9.6567,-2.5291,0.2783,3.8957,-0.0696
2330,-0.0383,-9.6567,-2.4142,0.487,3.8261,-0.0696
2335,-0.0383,-9.5801,-2.4908,0.7652,3.687,0.0696
2340,-0.0383,-9.5801,-2.3759,0.9739,3.7565,-0.0696
2345,0.0,-9.6184,-2.4525,0.9739,3.8957,0.0
2350,-0.115,-9.6184,-2.4908,1.0435,3.8261,-0.0696
2355,0.0383,-9.5801,-2.4142,1.0435,4.0348,0.1391
2360,-0.115,-9.6567,-2.4908,1.113,4.0348,0.0
2365,0.0,-9.5418,-2.3759,0.9739,4.1043,0.0696
2370,0.0766,-9.6184,-2.3759,1.113,4.1739,0.0
2375,-0.0383,-9.5801,-2.3375,1.1826,4.1739,0.1391
2380,0.0,-9.5801,-2.3759,1.1826,4.1739,0.0696
2385,0.0,-9.5801,-2.3759,1.2522,4.1739,0.2087
2390,0.0,-9.6567,-2.4142,1.3217,4.1043,0.0696
2395,-0.0766,-9.5034,-2.4525,1.3913,4.1043,0.2087
2400,0.0383,-9.5418,-2.3375,1.3913,4.0348,0.0696
2405,-0.0383,-9.6184,-2.3759,1.3913,3.8957,0.2783
2410,-0.115,-9.6184,-2.4908,1.4609,3.8957,0.0696
2415,-0.0383,-9.5418,-2.3759,1.3913,3.8261,0.2087
2420,-0.115,-9.5801,-2.4525,1.3913,3.9652,0.0696
2425,-0.0383,-9.6184,-2.2609,1.5304,3.9652,0.1391
2430,-0.115,-9.6184,-2.1843,1.5304,3.9652,-0.1391
2435,-0.0766,-9.6184,-2.3375,1.5304,4.0348,0.0
2440,0.0383,-9.6567,-2.2226,1.3913,4.1043,-0.1391
2445,0.0,-9.6184,-2.4142,1.3913,4.0348,-0.0696
2450,0.0383,-9.5801,-2.1843,1.2522,4.1739,-0.2783
2455,-0.0383,-9.5418,-2.3375,1.113,4.2435,-0.2087
2460,-0.0766,-9.6567,-2.3759,0.8348,4.313,-0.3478
2465,0.0,-9.6184,-2.3759,0.6957,4.313,-0.2087
2470,-0.0383,-9.5418,-2.4142,0.6261,4.4522,-0.4174
2475,-0.1533,-9.5034,-2.3759,0.6261,4.4522,-0.2087
2480,-0.0766,-9.5034,-2.4525,0.5565,4.4522,-0.2783
2485,0.0,-9.5034,-2.3759,0.6957,4.3826,-0.0696
2490,0.0,-9.5801,-2.4908,0.8348,4.313,-0.1391
2495,0.0,-9.5801,-2.2992,0.9043,4.313,-0.0696
2500,-0.115,-9.5801,-2.3759,0.9043,4.313,-0.1391
2505,0.0,-9.695,-2.4142,0.9043,4.2435,0.0696
2510,-0.0383,-9.5418,-2.4525,1.0435,4.1739,-0.1391
2515,0.0,-9.5801,-2.2609,1.0435,4.1739,0.0
2520,-0.1533,-9.6567,-2.3375,1.113,4.1739,-0.0696
2525,0.0,-9.6567,-2.2226,1.113,4.2435,0.0696
2530,0.0383,-9.6184,-2.4525,1.113,4.2435,-0.2087
2535,-0.0766,-9.5801,-2.3375,1.113,4.1043,0.0696
2540,-0.0383,-9.5034,-2.2992,0.9739,3.9652,0.0
2545,0.0,-9.6567,-2.2609,0.9739,3.9652,0.2087
2550,0.0383,-9.6184,-2.3375,0.9043,4.0348,-0.0696
2555,0.0,-9.5418,-2.4142,0.9043,3.9652,0.0
2560,-0.0766,-9.695,-2.3759,0.9043,4.0348,-0.2783
2565,-0.0383,-9.6567,-2.3759,0.8348,4.0348,-0.1391
2570,0.0383,-9.5801,-2.4525,0.7652,3.9652,-0.3478
2575,-0.0766,-9.695,-2.4525,0.8348,4.0348,-0.1391
2580,0.0,-9.6184,-2.3375,0.8348,3.9652,-0.3478
2585,-0.0383,-9.6567,-2.4142,0.9739,4.0348,-0.2783
2590,0.0383,-9.5801,-2.2226,0.9739,4.1043,-0.3478
2595,0.0766,-9.5418,-2.3375,0.8348,4.1043,-0.1391
2600,0.0,-9.5418,-2.3375,0.6261,4.1043,-0.2783
2605,0.0,-9.6184,-2.3759,0.6261,4.1043,-0.1391
2610,0.0383,-9.6567,-2.2992,0.6957,4.1739,-0.3478
2615,-0.0383,-9.5801,-2.2226,0.6261,4.2435,-0.1391
2620,-0.0383,-9.6184,-2.2992,0.6261,4.2435,-0.1391
2625,0.0,-9.6567,-2.3375,0.6261,4.2435,-0.0696
2630,-0.0383,-9.5034,-2.3759,0.6957,4.313,-0.2087
2635,0.0766,-9.5418,-2.2992,0.6957,4.1739,-0.0696
2640,0.0,-9.6184,-2.2226,0.6957,4.2435,-0.2087
2645,-0.115,-9.5801,-2.4142,0.7652,4.2435,0.0
2650,0.0,-9.5801,-2.2992,0.6261,4.1043,-0.1391
2655,0.0,-9.5801,-2.3375,0.487,4.1043,0.1391
2660,0.0,-9.5034,-2.3375,0.487,4.0348,0.0
2665,-0.0766,-9.695,-2.3375,0.487,3.9652,0.1391
2670,0.0383,-9.5034,-2.3375,0.5565,3.9652,0.0
2675,-0.0383,-9.695,-2.2226,0.5565,4.0348,0.2087
2680,-0.0766,-9.5418,-2.2226,0.487,3.9652,0.0696
2685,0.0383,-9.5801,-2.1843,0.6261,4.0348,0.1391
2690,-0.0383,-9.5418,-2.3375,0.6261,4.0348,0.0696
2695,0.0766,-9.695,-2.2609,0.6261,4.0348,0.1391
2700,0.0383,-9.5418,-2.1459,0.6261,4.1043,-0.1391
2705,-0.0383,-9.6184,-2.2226,0.487,4.1739,0.0696
2710,-0.0766,-9.5034,-2.2226,0.4174,4.1739,-0.0696
2715,0.0766,-9.6184,-2.3759,0.4174,4.1739,0.0696
2720,0.0,-9.695,-2.2226,0.2087,4.0348,-0.0696
2725,0.0383,-9.5801,-2.2609,-0.0696,4.0348,0.0696
2730,-0.0766,-9.695,-2.3375,-0.2087,4.1043,-0.0696
2735,0.0,-9.5801,-2.2992,-0.0696,3.9652,0.0
2740,-0.0766,-9.7334,-2.4525,-0.1391,4.0348,-0.0696
2745,-0.0383,-9.695,-2.1843,-0.1391,4.1043,0.0696
2750,-0.0766,-9.6567,-2.3759,-0.1391,4.1043,-0.0696
2755,-0.115,-9.6184,-2.4142,-0.2087,4.1739,0.0
2760,-0.0383,-9.6184,-2.2992,-0.3478,4.2435,-0.2087
2765,-0.0383,-9.695,-2.1843,-0.4174,4.313,-0.1391
2770,-0.0766,-9.6567,-2.3759,-0.6957,4.313,-0.2087
2775,-0.0766,-9.6184,-2.2226,-0.6261,4.3826,-0.1391
2780,0.0,-9.6567,-2.2226,-0.8348,4.5217,-0.2087
2785,-0.115,-9.5418,-2.3375,-1.113,4.5217,-0.1391
2790,0.0,-9.6567,-2.2609,-1.2522,4.5913,-0.0696
2795,-0.0383,-9.695,-2.2226,-1.3913,4.6609,0.0696
2800,-0.0383,-9.6567,-2.2226,-1.6,4.6609,0.0
2805,-0.115,-9.5801,-2.3375,-1.6696,4.6609,0.0696
2810,-0.0383,-9.7334,-2.2609,-1.8087,4.7304,0.1391
2815,-0.0383,-9.7334,-2.3375,-1.8087,4.8,0.1391
2820,-0.0766,-9.6567,-2.2226,-2.0174,4.7304,0.2087
2825,-0.0383,-9.6567,-2.3759,-2.4348,4.8696,0.2783
2830,0.0383,-9.4268,-2.2226,-2.8522,4.8696,0.2087
2835,0.0383,-9.4651,-2.2992,-3.5478,4.9391,0.2783
2840,-0.0383,-9.4651,-2.2226,-4.2435,5.0783,0.2087
2845,0.0,-9.3885,-2.2609,-5.0087,5.287,0.3478
2850,0.0766,-9.4651,-2.1459,-5.7739,5.4261,0.3478
2855,0.0766,-9.4268,-2.1843,-6.6087,5.4261,0.4174
2860,0.0,-9.4651,-2.3375,-7.3043,5.3565,0.487
2865,-0.0383,-9.4268,-2.1843,-8.1391,5.287,0.5565
2870,-0.0383,-9.4268,-2.2992,-8.8348,5.2174,0.6957
2875,-0.0766,-9.5418,-2.3375,-9.3217,5.1478,0.7652
2880,-0.0766,-9.5801,-2.2609,-9.8087,5.1478,0.7652
2885,0.0766,-9.5418,-2.4142,-10.087,5.1478,0.9043
2890,0.0,-9.6184,-2.3375,-10.5043,5.1478,0.8348
2895,-0.0766,-9.5418,-2.2992,-10.9217,5.0783,0.9043
2900,-0.0766,-9.695,-2.4142,-11.3391,4.8696,1.113
2905,0.0383,-9.695,-2.4908,-11.2,4.5913,1.3217
2910,0.0383,-9.695,-2.4908,-10.4348,4.3826,1.3913
2915,-0.0383,-9.695,-2.3759,-9.3217,4.0348,1.3217
2920,-0.0766,-9.6184,-2.4908,-8.1391,3.8261,1.1826
2925,-0.0383,-9.6567,-2.4142,-7.2348,3.687,0.8348
2930,-0.115,-9.5034,-2.3375,-6.6783,3.4783,0.6957
2935,-0.0383,-9.4268,-2.4142,-6.4696,3.4087,0.5565
2940,-0.0766,-9.4268,-2.2992,-6.6087,3.3391,0.487
2945,-0.115,-9.4651,-2.2609,-7.0261,3.2,0.2783
2950,0.0,-9.5418,-2.4142,-7.4435,3.2696,0.1391
2955,-0.0383,-9.4651,-2.3375,-8.0,3.4087,0.0
2960,-0.0766,-9.4268,-2.3375,-8.5565,3.5478,0.0696
2965,-0.115,-9.4651,-2.2992,-8.9739,3.8261,0.0
2970,0.115,-9.4651,-2.2226,-9.3217,3.9652,0.2087
2975,0.0,-9.5034,-2.4908,-9.6,4.1739,0.2783
2980,0.0766,-9.4651,-2.3759,-9.8087,4.313,0.5565
2985,0.0766,-9.5801,-2.2992,-9.9478,4.313,0.487
2990,-0.0766,-9.5418,-2.3759,-10.2261,4.313,0.6261
2995,0.0766,-9.4651,-2.5675,-10.2957,4.313,0.6957
