timestamp,accX,accY,accZ,gyroX,gyroY,gyroZ
0,8.8903,4.4452,2.7974,4.8,0.5565,5.0087
5,9.0436,4.4835,2.9123,5.2174,0.2087,4.7304
10,9.0436,4.4835,2.7974,5.7739,-0.4174,4.8696
15,9.1586,4.3302,2.9507,6.5391,-1.2522,4.7304
20,9.1586,4.3302,2.8357,7.0957,-2.0174,4.8
25,9.3118,4.3302,2.6824,7.7913,-2.7826,4.7304
30,9.3118,4.2536,2.6441,8.487,-3.4783,5.0087
35,9.4268,4.2152,2.7207,8.7652,-3.9652,5.2174
40,9.3885,4.1769,2.4525,8.9043,-4.7304,5.6348
45,9.4651,4.2152,2.2992,8.8348,-5.287,5.8435
50,9.3885,4.1003,2.3759,8.4174,-5.7043,6.1913
55,9.4268,4.1003,2.2226,7.6522,-5.9826,6.2609
60,9.5801,4.1386,2.2226,6.6783,-6.0522,6.4696
65,9.4651,4.1003,2.031,5.3565,-5.9826,6.2609
70,9.3885,4.1003,1.8011,4.2435,-5.7043,6.2609
75,9.3502,4.2536,1.8777,2.9217,-5.1478,5.9826
80,9.6567,4.1003,1.8777,1.6696,-4.5913,5.8435
85,9.3502,4.2152,1.9543,0.5565,-3.8261,5.3565
90,9.5418,4.2152,1.8777,-0.6261,-2.9217,5.0783
95,9.3885,4.3302,1.916,-1.9478,-2.1565,4.5217
100,9.4268,4.2919,1.916,-2.8522,-1.2522,4.2435
105,9.5034,4.1386,1.8394,-3.8261,-0.6261,3.687
110,9.5801,4.1769,1.7627,-4.8,0.0,3.5478
115,9.5801,4.0236,1.8011,-5.5652,0.3478,3.2696
120,9.5418,4.062,1.8394,-6.3304,0.4174,3.2696
125,9.5801,4.1386,1.9927,-6.887,0.487,2.9913
130,9.695,3.9853,2.031,-7.3043,0.3478,3.0609
135,9.695,3.832,2.2609,-7.513,0.3478,2.7826
140,9.2735,3.7937,1.8777,-7.5826,0.2087,2.8522
145,9.7334,3.6404,2.2226,-7.2348,0.1391,2.713
150,9.7334,3.6404,2.1843,-6.9565,0.2087,2.4348
155,9.7717,3.5255,2.3759,-6.4696,0.3478,1.8087
160,9.7717,3.5638,2.4525,-6.0522,0.487,1.6
165,9.695,3.7171,2.5675,-5.4261,0.6261,1.1826
170,9.6567,3.5255,2.4525,-4.8696,0.9739,1.0435
175,9.5801,3.6021,2.4908,-4.4522,1.3217,0.6261
180,9.6567,3.7554,2.4525,-4.1043,1.8783,0.6261
185,9.695,3.5255,2.4908,-3.9652,2.2957,0.3478
190,9.6184,3.4871,2.4908,-3.8957,2.8522,0.4174
195,9.6567,3.6021,2.5291,-3.8957,3.3391,0.2783
200,9.7334,3.4871,2.5291,-4.0348,3.9652,0.3478
205,9.7717,3.5255,2.4142,-4.2435,4.7304,0.2087
210,9.7717,3.5638,2.3759,-4.313,5.2174,0.1391
215,9.695,3.3722,2.3375,-4.4522,5.8435,-0.0696
220,9.7717,3.2955,2.5675,-4.5913,6.3304,-0.0696
225,9.5034,3.4105,2.4908,-4.5913,6.6783,-0.2087
230,9.6567,3.3722,2.5675,-4.6609,7.0261,-0.3478
235,9.6184,3.4488,2.5675,-4.8,7.3043,-0.6957
240,9.5034,3.4105,2.6441,-4.8696,7.513,-0.5565
245,9.4651,3.4871,2.4908,-5.0783,7.7217,-0.8348
250,9.6567,3.8704,2.4908,-5.1478,7.9304,-0.8348
255,9.6567,3.5255,2.6441,-5.1478,8.1391,-1.0435
260,9.5418,3.6021,2.5675,-5.1478,8.2783,-1.0435
265,9.5034,3.4488,2.4908,-4.9391,8.4174,-1.113
270,9.5034,3.7171,2.6441,-4.6609,8.3478,-0.9739
275,9.5034,3.4105,2.5675,-4.313,8.4174,-0.9043
280,9.5034,3.5638,2.6441,-3.8957,8.4174,-0.6261
285,9.3502,3.5638,2.5675,-3.4087,8.2783,-0.487
290,9.3502,3.5638,2.6058,-3.2,7.9304,-0.3478
295,9.4268,3.5638,2.7591,-2.7826,7.5826,-0.2087
300,9.4651,3.6021,2.6058,-2.5043,7.2348,0.0
305,9.4268,3.5638,2.5291,-2.713,6.9565,-0.0696
310,9.2352,3.6404,2.6441,-2.9913,6.8174,-0.2087
315,9.3502,3.7171,2.6824,-3.2696,6.6087,-0.2783
320,9.3885,3.6404,2.4908,-3.8261,6.5391,-0.487
325,9.3502,3.7554,2.4142,-4.3826,6.4,-0.5565
330,9.2735,3.7937,2.5291,-5.1478,6.3304,-0.6261
335,9.3502,3.7554,2.4525,-5.8435,6.2609,-0.9043
340,9.3885,3.6787,2.5291,-6.7478,6.3304,-1.0435
345,9.2735,3.832,2.4908,-7.6522,6.4,-1.1826
350,9.1202,3.8704,2.5675,-8.487,6.4696,-1.3217
355,9.1586,3.947,2.6058,-9.1826,6.5391,-1.3217
360,9.3502,3.9853,2.2992,-9.9478,6.6087,-1.3913
365,9.1586,3.9087,2.7207,-10.2261,6.7478,-1.4609
370,9.0819,3.8704,2.6441,-10.5043,6.9565,-1.5304
375,9.1586,3.7937,2.7207,-10.6435,6.9565,-1.6696
380,9.0436,3.8704,2.6824,-10.713,7.0261,-1.8783
385,9.0819,3.7937,2.7591,-10.4348,7.1652,-2.0174
390,9.0819,3.7937,2.7207,-10.087,7.0261,-2.0174
395,9.1586,3.7171,2.7974,-9.7391,7.0957,-1.8087
400,9.1969,3.8704,2.8357,-9.0435,6.887,-1.7391
405,9.1586,3.6787,2.8357,-8.4174,6.7478,-1.6
410,9.1586,3.6787,2.7974,-7.9304,6.5391,-1.6696
415,9.1202,3.7171,2.6824,-7.0957,6.1913,-1.3913
420,9.1202,3.6787,2.9123,-6.6087,5.9826,-1.3913
425,8.967,3.6404,2.8357,-6.2609,5.913,-1.113
430,9.0819,3.7171,2.8357,-5.7043,5.7739,-1.1826
435,9.0053,3.7937,2.7974,-5.3565,5.4957,-0.9043
440,9.0819,3.7171,2.7974,-5.0783,5.287,-0.9739
445,9.0436,3.7171,2.6441,-4.6609,5.0783,-0.7652
450,9.1202,3.6404,2.874,-4.4522,5.0087,-0.6957
455,9.0436,3.6404,2.874,-4.1739,5.0087,-0.5565
460,9.0436,3.7554,2.9507,-3.8261,4.8696,-0.5565
465,9.0436,3.6787,2.7591,-3.687,4.7304,-0.2783
470,9.0819,3.7554,2.7207,-3.4783,4.4522,-0.2783
475,9.0436,3.7171,2.6441,-3.3391,4.3826,0.0
480,9.0819,3.6787,2.7207,-3.4783,4.1739,0.0696
485,9.0819,3.6404,2.6058,-3.7565,3.8957,0.3478
490,8.852,3.7937,2.6441,-3.9652,3.5478,0.5565
495,9.0053,3.7554,2.7591,-4.1739,3.4087,0.9043
500,9.0053,3.832,2.5675,-4.5913,3.2,0.9739
505,9.0819,3.7554,2.6824,-4.8696,3.0609,1.3217
510,9.1202,3.7554,2.5675,-5.1478,3.1304,1.3217
515,9.0436,3.7554,2.7207,-5.4261,3.1304,1.5304
520,9.0819,3.7171,2.5291,-5.3565,3.2696,1.4609
525,9.0819,3.7554,2.5675,-5.4261,3.3391,1.5304
530,9.1586,3.4871,2.5291,-5.287,3.4783,1.1826
535,9.1202,3.6404,2.4908,-4.9391,3.687,1.1826
540,9.1969,3.6404,2.6441,-4.3826,3.9652,0.8348
545,9.1202,3.6021,2.5291,-3.7565,4.1739,0.8348
550,9.1202,3.5638,2.6058,-3.0609,4.4522,0.4174
555,9.0819,3.5638,2.6058,-2.1565,4.7304,0.4174
560,9.1202,3.7937,2.5675,-1.3217,5.0087,0.0696
565,9.1586,3.6404,2.4908,-0.4174,5.2174,-0.0696
570,9.1202,3.6021,2.5291,0.4174,5.3565,-0.3478
575,9.1586,3.6404,2.9123,1.3217,5.4261,-0.2783
580,9.0436,3.6787,2.6058,1.8783,5.3565,-0.5565
585,9.1586,3.6404,2.6824,2.2957,5.287,-0.5565
590,9.1586,3.6021,2.5675,2.5739,5.0087,-0.7652
595,9.1202,3.832,2.6058,2.6435,5.0087,-0.7652
600,9.0819,3.7937,2.6441,2.5739,4.9391,-0.9739
605,9.0819,3.832,2.5675,2.3652,4.7304,-0.8348
610,9.2352,3.7554,2.6441,2.087,4.4522,-0.9739
615,9.1202,3.7937,2.6824,1.8087,4.2435,-0.6957
620,9.1969,3.8704,2.7207,1.3913,4.1043,-0.6957
625,9.1969,3.7554,2.6058,1.1826,3.8957,-0.2783
630,9.1202,3.832,2.7974,0.9739,3.687,-0.2783
635,9.0436,3.9087,2.6824,0.6957,3.5478,0.0696
640,9.1969,3.8704,2.6058,0.6261,3.4783,0.0696
645,9.1202,3.7554,2.5291,0.6261,3.3391,0.4174
650,9.0819,3.832,2.6824,0.487,3.2,0.487
655,9.1202,3.947,2.6058,0.487,3.2,0.6957
660,9.1586,3.7937,2.6058,0.3478,3.0609,0.8348
665,9.0819,3.947,2.7207,0.2087,2.8522,1.3217
670,9.1969,3.9087,2.6824,0.0,2.713,1.3913
675,9.2352,3.7937,2.7591,-0.0696,2.6435,1.6696
680,9.2352,3.7937,2.6824,-0.3478,2.5739,1.8783
685,8.8137,3.832,2.8357,-0.487,2.5043,2.1565
690,9.1969,3.6404,2.7974,-0.6261,2.2957,2.2957
695,9.1202,3.7171,2.7974,-0.8348,2.087,2.6435
700,9.2352,3.7171,2.6824,-0.9739,1.9478,2.713
705,9.1969,3.7171,2.5675,-1.0435,1.7391,2.8522
710,9.3118,3.6404,2.7974,-1.0435,1.6,2.9217
715,9.1969,3.7937,2.6441,-1.113,1.6696,2.9217
720,9.2352,3.6787,2.8357,-0.8348,1.7391,2.8522
725,9.1586,3.6787,2.7207,-0.6957,1.6696,2.7826
730,9.3502,3.7171,2.6058,-0.2087,1.6696,2.5739
735,9.3885,3.4871,2.7974,0.4174,1.5304,2.6435
740,9.3502,3.4871,2.7974,0.6957,1.3217,2.5739
745,9.4268,3.5255,2.7207,1.2522,1.2522,2.5043
750,9.2735,3.6021,2.6441,1.4609,1.0435,2.3652
755,9.3885,3.5255,2.7591,1.6,1.0435,2.2261
760,9.3502,3.6404,2.6441,1.8783,0.8348,2.2261
765,9.3885,3.6021,2.6441,1.8783,0.9043,2.2957
770,9.4268,3.5255,2.5291,2.087,0.9043,2.087
775,9.3502,3.6404,2.5675,1.9478,0.9043,2.0174
780,9.3502,3.6404,2.4908,1.8087,0.9043,1.8087
785,9.4268,3.4871,2.5675,1.6696,0.9739,1.6696
790,9.3118,3.5255,2.2226,1.6696,1.1826,1.6
795,9.2735,3.5255,2.7207,1.3913,1.3217,1.4609
800,9.2735,3.6404,2.4525,1.4609,1.4609,1.3217
805,9.4651,3.6021,2.4908,1.3913,1.6696,1.2522
810,9.4651,3.6404,2.5291,1.3913,1.8087,1.2522
815,9.3885,3.4871,2.4908,1.3913,2.0174,1.113
820,9.4268,3.6021,2.5675,1.4609,2.2261,1.113
825,9.3118,3.6787,2.4908,1.3913,2.1565,0.9739
830,9.3502,3.6787,2.4908,1.5304,2.4348,0.8348
835,9.5034,3.5255,2.6824,1.6,2.5739,0.6957
840,9.3885,3.5255,2.5291,1.4609,2.713,0.8348
845,9.3502,3.5638,2.6441,1.5304,2.8522,0.6957
850,9.3118,3.6021,2.6058,1.6,2.9913,0.6957
855,9.4268,3.5638,2.5675,1.6,3.1304,0.5565
860,9.4268,3.5638,2.5291,1.6696,3.1304,0.6261
865,9.3118,3.5638,2.5675,1.6,3.1304,0.5565
870,9.4651,3.6021,2.6441,1.6696,3.3391,0.5565
875,9.4651,3.5255,2.4908,1.7391,3.2696,0.487
880,9.4651,3.6021,2.5291,1.7391,3.2696,0.5565
885,9.4651,3.6404,2.6824,1.7391,3.4087,0.487
890,9.5034,3.5638,2.4908,1.6696,3.2696,0.5565
895,9.3502,3.6787,2.4525,1.6696,3.2696,0.3478
900,9.4651,3.5638,2.4908,1.6,3.3391,0.6261
905,9.4268,3.6404,2.3759,1.3913,3.3391,0.487
910,9.5034,3.5255,2.6058,1.2522,3.2696,0.487
915,9.5034,3.6787,2.5291,1.0435,3.3391,0.3478
920,9.5034,3.6404,2.4525,0.9739,3.3391,0.4174
925,9.5418,3.6021,2.4908,0.7652,3.3391,0.3478
930,9.5034,3.6021,2.5675,0.6261,3.3391,0.3478
935,9.4268,3.5638,2.5291,0.487,3.4783,0.0
940,9.5034,3.6021,2.4908,0.487,3.687,-0.0696
945,9.3885,3.6787,2.4142,0.2783,3.8261,-0.2783
950,9.3885,3.7171,2.5675,0.0696,4.0348,-0.2783
955,9.5034,3.6021,2.4525,0.0,4.2435,-0.5565
960,9.4268,3.7171,2.5291,0.0,4.313,-0.5565
965,9.4268,3.7554,2.4525,-0.1391,4.5217,-0.9043
970,9.5418,3.5638,2.5291,-0.2087,4.7304,-0.7652
975,9.4651,3.6404,2.5291,-0.4174,4.7304,-1.0435
980,9.4651,3.7554,2.4525,-0.4174,4.8,-0.9043
985,9.4268,3.5638,2.5291,-0.5565,5.0087,-1.0435
990,9.4651,3.6787,2.5675,-0.487,5.1478,-0.9739
995,9.5418,3.6787,2.4525,-0.487,5.2174,-1.2522
1000,9.3885,3.6021,2.4908,-0.4174,5.4957,-1.113
1005,9.4651,3.5638,2.6058,-0.3478,5.4957,-1.3217
1010,9.4651,3.6021,2.5291,-0.1391,5.4957,-1.113
1015,9.4651,3.5638,2.3759,-0.1391,5.4957,-1.2522
1020,9.2735,3.5638,2.5675,0.1391,5.4957,-1.0435
1025,9.3118,3.6021,2.6058,0.2783,5.6348,-1.3217
1030,9.2735,3.5638,2.4525,0.487,5.7043,-1.3217
1035,9.3502,3.5638,2.5675,0.6957,5.7739,-1.5304
1040,9.3118,3.6404,2.5291,0.8348,5.9826,-1.4609
1045,9.3118,3.6787,2.5291,1.113,6.1217,-1.8783
1050,9.3118,3.5638,2.5675,1.2522,6.4,-1.8783
1055,9.3118,3.6404,2.5291,1.5304,6.4696,-2.2957
1060,9.2352,3.6787,2.5291,1.6696,6.5391,-2.2957
1065,9.2352,3.7554,2.5675,1.6696,6.6087,-2.5739
1070,9.2735,3.7171,2.6824,1.6696,6.6783,-2.3652
1075,9.2352,3.7937,2.5291,1.7391,6.6783,-2.5739
1080,9.2735,3.7554,2.4908,1.6696,6.6087,-2.3652
1085,9.3502,3.6787,2.5291,1.4609,6.6783,-2.5739
1090,9.2352,3.7554,2.6441,1.3217,6.6783,-2.2957
1095,9.3502,3.7171,2.7207,1.1826,6.6783,-2.3652
1100,9.2735,3.7171,2.5675,1.0435,6.8174,-2.2261
1105,9.4651,3.6787,2.6824,0.8348,6.887,-2.2261
1110,9.3502,3.7171,2.7207,0.6957,6.8174,-2.2957
1115,9.3885,3.7937,2.5675,0.7652,6.9565,-2.087
1120,9.3885,3.6787,2.6441,0.7652,6.9565,-1.7391
1125,9.4268,3.7937,2.6058,0.5565,6.8174,-1.8087
1130,9.2735,3.7171,2.5291,0.4174,6.7478,-1.6
1135,9.2735,3.7554,2.6441,0.2783,6.887,-1.6
1140,9.3118,3.8704,2.5675,0.1391,6.887,-1.4609
1145,9.3118,3.7171,2.5291,0.0,6.8174,-1.6
1150,9.3118,3.7171,2.6058,-0.2087,6.887,-1.3913
1155,9.3118,3.7937,2.5291,-0.4174,7.0261,-1.4609
1160,9.3885,3.5638,2.5675,-0.5565,6.887,-1.3217
1165,9.3502,3.7171,2.5675,-0.5565,6.887,-1.5304
1170,9.3118,3.6021,2.5675,-0.6261,6.8174,-1.4609
1175,9.2352,3.7171,2.6058,-0.6261,6.9565,-1.6
1180,9.2735,3.7554,2.6441,-0.5565,7.0957,-1.5304
1185,9.2735,3.7554,2.5675,-0.3478,7.3043,-1.6696
1190,9.2735,3.7554,2.5291,-0.1391,7.3739,-1.7391
1195,9.1586,3.7171,2.5675,0.0696,7.4435,-1.8087
1200,9.2735,3.7554,2.6058,0.4174,7.4435,-1.6696
1205,9.2352,3.7171,2.5675,0.7652,7.513,-1.8087
1210,9.3118,3.6404,2.7207,1.0435,7.5826,-1.8783
1215,9.2735,3.832,2.5675,1.2522,7.513,-1.9478
1220,9.3118,3.7171,2.4908,1.3913,7.513,-1.9478
1225,9.2352,3.7171,2.6824,1.3913,7.5826,-1.9478
1230,9.2352,3.6787,2.4908,1.3217,7.5826,-2.087
1235,9.1586,3.7171,2.6824,1.2522,7.513,-2.087
1240,9.1969,3.832,2.5675,1.2522,7.6522,-2.087
1245,9.2735,3.7937,2.6441,1.0435,7.7217,-2.1565
1250,9.2735,3.7554,2.6058,0.9739,7.6522,-2.087
1255,9.0819,3.832,2.6441,0.6957,7.6522,-2.1565
1260,9.2352,3.8704,2.5675,0.5565,7.5826,-1.9478
1265,9.2352,3.7554,2.6824,0.2783,7.5826,-2.0174
1270,9.2352,3.7937,2.7207,0.0,7.4435,-2.1565
1275,9.2735,3.832,2.6824,-0.1391,7.4435,-2.1565
1280,9.2352,3.7554,2.7207,-0.2087,7.3739,-2.1565
1285,9.1969,3.7554,2.6824,-0.3478,7.3739,-2.087
1290,9.1969,3.832,2.7207,-0.2783,7.2348,-2.1565
1295,9.3885,3.6787,2.8357,-0.2087,7.1652,-2.087
1300,9.2735,3.7554,2.6441,0.0,7.1652,-2.087
1305,9.2352,3.7937,2.7207,0.0696,7.0261,-2.087
1310,9.2352,3.7937,2.6824,0.2087,6.8174,-2.1565
1315,9.1969,3.7554,2.6441,0.3478,6.6783,-2.0174
1320,9.1969,3.7937,2.7207,0.487,6.6087,-2.1565
1325,9.2735,3.7171,2.7591,0.6261,6.5391,-2.087
1330,9.2352,3.6787,2.7591,0.6261,6.4696,-2.1565
1335,9.1202,3.7937,2.5675,0.6957,6.4696,-2.0174
1340,9.2352,3.6787,2.7207,0.6261,6.4,-2.087
1345,9.2735,3.832,2.8357,0.6261,6.4696,-1.9478
1350,9.2352,3.8704,2.6058,0.487,6.5391,-2.1565
1355,9.1586,3.832,2.6824,0.4174,6.6087,-2.0174
1360,9.2352,3.7171,2.6824,0.2783,6.7478,-2.087
1365,9.3118,3.8704,2.5291,0.2087,6.6087,-2.0174
1370,9.2352,3.7937,2.6824,0.1391,6.6783,-2.1565
1375,9.2735,3.7937,2.7207,-0.1391,6.6783,-2.0174
1380,9.1969,3.7554,2.7591,-0.0696,6.6783,-2.087
1385,9.2735,3.832,2.6058,0.0,6.7478,-2.0174
1390,9.1969,3.7937,2.7591,0.0,6.8174,-2.1565
1395,9.2352,3.832,2.7207,0.1391,6.7478,-2.0174
1400,9.1586,3.6787,2.8357,0.4174,6.8174,-2.1565
1405,9.2352,3.8704,2.874,0.5565,6.7478,-1.9478
1410,9.2735,3.832,2.6824,0.9739,6.6783,-2.1565
1415,9.1969,3.7554,2.6058,1.3217,6.6087,-2.0174
1420,9.2352,3.7937,2.7591,1.5304,6.5391,-2.1565
1425,9.1969,3.7554,2.8357,1.8783,6.4696,-1.9478
1430,9.2735,3.8704,2.5291,2.1565,6.3304,-2.2261
1435,9.2352,3.7171,2.7207,2.2261,6.4,-2.2957
1440,9.2352,3.7554,2.7974,2.2261,6.4,-2.2957
1445,9.0819,4.0236,2.6824,2.3652,6.3304,-1.8087
1450,9.2352,3.7937,2.7974,2.3652,6.1217,-1.8087
1455,9.1969,3.8704,2.5675,2.5043,6.0522,-1.6
1460,9.3118,3.832,2.8357,2.5739,5.9826,-1.6696
1465,9.3118,3.9087,2.7591,2.5739,5.913,-1.4609
1470,9.3118,3.832,2.7974,2.5739,5.8435,-1.6
1475,9.3118,3.832,2.7591,2.6435,5.913,-1.3913
1480,9.2735,3.832,2.6441,2.7826,5.8435,-1.6
1485,9.2735,3.9087,2.7974,2.7826,5.7043,-1.3217
1490,9.2352,3.832,2.7207,3.0609,5.5652,-1.3913
1495,9.3502,3.832,2.6824,3.2696,5.5652,-1.113
1500,9.3885,3.832,2.7207,3.4783,5.4261,-1.2522
1505,9.1969,3.832,2.7591,3.5478,5.5652,-1.113
1510,9.3118,3.7937,2.6058,3.687,5.5652,-1.2522
1515,9.3118,3.8704,2.6824,3.7565,5.4957,-1.0435
1520,9.3502,3.7171,2.6058,3.8261,5.5652,-1.1826
1525,9.4268,3.8704,2.5291,3.9652,5.5652,-1.0435
1530,9.4268,3.7171,2.5675,4.1739,5.6348,-1.1826
1535,9.4651,3.6787,2.6058,4.1739,5.7043,-1.113
1540,9.4268,3.6787,2.6824,4.3826,5.913,-1.3217
1545,9.4268,3.832,2.6824,4.3826,6.2609,-1.3217
1550,9.6184,3.6787,2.6058,4.3826,6.4696,-1.4609
1555,9.5418,3.7171,2.6441,4.3826,6.6087,-1.4609
1560,9.4651,3.3339,2.4142,4.3826,6.6783,-1.5304
1565,9.6184,3.6787,2.5291,4.4522,6.6087,-1.3217
1570,9.5418,3.7554,2.5291,4.4522,6.6783,-1.4609
1575,9.5801,3.6404,2.4908,4.313,6.8174,-1.2522
1580,9.5801,3.7554,2.5675,3.7565,6.8174,-1.4609
1585,9.6184,3.7171,2.5291,2.9913,6.9565,-1.3913
1590,9.695,3.7554,2.4908,1.8087,7.5826,-1.7391
1595,9.7334,3.7171,2.4525,0.5565,8.1391,-1.8783
1600,9.6184,3.7171,2.4142,-0.6261,8.5565,-2.1565
1605,9.4651,3.6787,2.5675,-1.8087,9.1826,-2.2957
1610,9.5034,3.7171,2.5675,-2.5043,9.5304,-2.5739
1615,9.4268,3.947,2.6058,-3.4783,9.8087,-2.6435
1620,9.3885,4.062,2.7974,-4.3826,9.9478,-2.6435
1625,9.4268,4.2919,3.0273,-5.4957,9.7391,-2.2261
1630,9.3885,4.4068,3.1039,-6.9565,9.3217,-1.8783
1635,9.3118,4.5218,3.0273,-8.7652,8.9739,-1.3217
1640,9.5418,4.4452,3.1806,-10.9217,8.3478,-0.9043
1645,9.5418,4.3685,3.1423,-13.7043,8.0696,-0.5565
1650,9.81,4.1003,2.9123,-15.5826,7.7913,-0.3478
1655,9.7334,4.0236,3.0273,-16.6957,7.7217,-0.0696
1660,9.81,3.7937,2.9123,-17.113,7.8609,0.0
1665,9.7717,3.5638,2.874,-16.8348,8.0696,0.0
1670,9.695,3.3339,2.7974,-16.3478,8.487,-0.4174
1675,9.5418,3.2572,2.4908,-16.0,8.7652,-1.1826
1680,9.3885,3.0656,2.7207,-15.8609,9.113,-2.0174
1685,9.3118,3.0656,2.874,-15.7913,9.5304,-2.713
1690,9.1969,3.1806,3.0656,-15.513,9.7391,-3.4783
1695,9.1969,3.1039,3.0273,-14.2609,9.7391,-4.1043
1700,9.1202,3.1806,3.1806,-12.8,9.6696,-4.4522
1705,9.0436,3.4105,3.4488,-10.713,9.4609,-4.8
1710,9.0053,3.5638,3.5255,-8.3478,8.9739,-4.8
1715,9.1202,3.5638,3.832,-6.1217,7.8609,-4.6609
1720,9.0819,3.6404,3.7171,-4.1739,6.4,-4.3826
1725,8.967,3.7171,3.7171,-2.4348,4.5913,-3.8957
1730,9.1586,3.7937,3.6787,-1.2522,2.6435,-3.3391
1735,9.1586,3.9087,3.6021,-0.1391,0.6261,-2.5739
1740,9.1586,3.9087,3.6404,0.6957,-1.2522,-1.7391
1745,9.2352,3.7937,3.1423,1.3913,-2.5043,-1.1826
1750,9.0436,3.9087,2.989,1.5304,-3.4087,-0.6261
1755,8.9286,4.1003,2.9123,0.9043,-3.7565,-0.3478
1760,8.737,4.1386,2.6824,-0.2783,-4.0348,0.2087
1765,8.8137,4.2152,2.7207,-1.9478,-4.2435,0.7652
1770,8.8137,4.1386,2.6824,-4.0348,-4.5217,1.6696
1775,8.4305,4.062,2.9123,-6.2609,-4.7304,2.0174
1780,8.8137,3.9853,2.5291,-8.2087,-4.7304,2.1565
1785,8.967,3.9087,2.4908,-9.9478,-4.2435,1.8087
1790,8.967,3.9087,2.6441,-11.3391,-3.3391,1.3217
1795,9.0819,3.9087,2.5291,-12.5913,-1.9478,0.487
1800,8.967,3.8704,2.5675,-13.6348,0.0,-0.487
1805,9.0819,3.7554,2.5675,-14.1913,1.6696,-1.3913
1810,8.8137,3.9087,2.7207,-14.6087,3.4783,-2.2261
1815,8.8137,3.832,2.7974,-14.5391,5.1478,-3.4087
1820,8.6987,4.0236,2.7207,-14.4,6.8174,-4.4522
1825,8.6604,4.2152,2.7974,-13.913,8.5565,-5.6348
1830,8.7754,4.3302,2.7974,-12.8696,10.2261,-6.4
1835,8.8903,4.4068,2.7207,-11.687,11.9652,-7.3739
1840,9.0053,4.5984,2.6058,-10.5043,13.913,-8.0
1845,9.1202,4.6751,2.4525,-9.5304,15.5826,-8.9739
1850,9.1586,4.6751,2.4142,-9.0435,16.6957,-9.7391
1855,9.4268,4.6368,2.4525,-8.8348,16.9739,-10.5043
1860,9.3885,4.7517,2.2226,-8.9739,16.4174,-10.7826
1865,9.5418,4.8667,2.2226,-9.2522,15.3739,-11.0609
1870,9.5418,4.8667,2.3759,-9.3913,13.7043,-10.5739
1875,9.5418,4.905,2.3375,-9.1826,11.3391,-9.9478
1880,9.3118,4.8667,2.4908,-8.487,8.3478,-8.6261
1885,9.4651,4.8284,2.3375,-7.5826,5.2174,-7.6522
1890,9.3118,4.9433,2.3759,-6.7478,2.087,-6.7478
1895,9.0053,5.02,2.2992,-6.4,-0.4174,-6.6783
1900,8.9286,5.0966,1.9927,-7.0261,-1.9478,-6.887
1905,8.6987,5.4032,1.7627,-9.113,-2.713,-7.8609
1910,8.5454,5.5948,1.6478,-13.6348,-2.8522,-8.5565
1915,8.3155,5.6331,1.6095,-18.4348,-2.6435,-9.6696
1920,8.1239,5.7097,1.6478,-23.513,-2.2957,-10.3652
1925,7.8557,5.748,1.6095,-28.5913,-1.3913,-10.9913
1930,7.779,5.7864,1.4179,-33.7391,-0.3478,-11.3391
1935,7.6257,6.0546,1.7627,-38.4696,0.7652,-11.7565
1940,7.779,6.2079,1.7244,-42.6435,1.7391,-11.687
1945,7.6257,6.4378,1.916,-46.1217,2.2957,-11.6174
1950,7.6257,6.3612,2.031,-49.0435,2.3652,-10.8522
1955,7.779,6.3229,2.031,-51.5478,1.8087,-9.7391
1960,7.9323,5.978,2.3375,-53.287,1.8783,-6.1913
1965,8.1622,5.6331,2.4525,-54.3304,2.4348,-2.3652
1970,8.3538,5.4032,2.5291,-54.4,3.4087,1.3217
1975,8.6987,5.3265,2.6441,-53.7739,5.2174,4.1043
1980,8.7754,5.0583,2.6824,-53.0783,8.487,6.5391
1985,9.0436,4.9433,2.7591,-52.6609,11.687,7.0957
1990,9.3502,4.8284,2.9123,-52.3826,15.513,7.6522
1995,9.3118,4.79,3.0656,-52.313,19.4087,7.3739
2000,9.1969,4.6368,3.2189,-52.8,22.1913,6.5391
2005,9.4651,4.3685,3.0656,-53.1478,24.0696,6.0522
2010,9.5801,4.062,3.1806,-53.1478,25.3913,5.913
2015,9.5418,3.947,3.3722,-52.5217,25.3913,4.8696
2020,9.7717,3.9853,3.4105,-50.6435,24.6261,4.8
2025,9.925,3.9853,3.4488,-48.6261,24.1391,5.1478
2030,10.0016,4.062,3.2572,-47.1652,22.887,5.287
2035,10.0782,4.4452,3.1423,-46.6783,20.0348,5.4957
2040,10.1932,4.4452,3.0273,-47.3739,16.5565,6.4696
2045,9.9633,4.5984,2.9123,-49.0435,12.2435,7.0261
2050,10.0016,4.4452,2.4525,-51.4783,7.0261,7.8609
2055,10.1932,4.4452,2.4142,-54.5391,1.8783,8.6957
2060,10.0782,4.1769,2.031,-58.087,-1.2522,10.5739
2065,9.9633,4.062,2.1076,-62.2609,-2.713,10.5739
2070,9.81,3.9087,2.3375,-67.8957,-3.9652,8.7652
2075,9.8866,3.8704,2.4908,-72.0696,-3.7565,7.513
2080,9.5801,3.7554,2.8357,-75.8957,-1.6696,5.9826
2085,9.6184,3.947,3.2572,-79.1652,0.0696,3.2696
2090,9.6567,4.0236,3.3339,-81.6696,2.2957,0.9043
2095,9.81,4.0236,3.6021,-83.4087,5.0783,-1.6
2100,10.0016,3.7937,3.6787,-84.5913,8.3478,-3.5478
2105,9.695,3.8704,3.9087,-85.1478,11.5478,-5.9826
2110,9.5801,3.7937,3.8704,-85.8435,14.3304,-7.7913
2115,9.5801,3.4488,4.2536,-86.4696,16.8348,-9.113
2120,9.81,3.5638,4.1003,-86.887,18.7826,-11.1304
2125,9.8483,3.1806,4.1769,-87.513,21.8435,-11.8957
2130,9.7334,3.2955,4.4835,-87.8609,23.6522,-13.0783
2135,9.7334,3.1039,4.5984,-87.5826,24.8348,-13.3565
2140,9.5801,2.8357,4.6368,-86.5391,25.2522,-12.8696
2145,9.6184,2.1843,4.6751,-85.287,25.3913,-11.5478
2150,9.6567,1.8011,4.905,-83.8957,25.6696,-10.7826
2155,9.7334,1.3029,4.9816,-81.3217,26.5043,-10.5739
2160,9.81,1.0346,5.02,-77.7739,27.687,-11.3391
2165,9.6567,0.9197,5.1349,-73.3217,28.9391,-13.287
2170,9.7717,0.843,5.0966,-68.8696,29.9826,-15.8609
2175,9.7717,0.6131,4.79,-64.6261,31.513,-18.9913
2180,9.6184,0.6131,4.7517,-60.4522,33.6,-22.3304
2185,9.1202,0.0766,4.7134,-57.6,35.2,-25.7391
2190,9.1202,0.3066,4.2919,-56.4174,35.0609,-31.7913
2195,9.3885,0.2682,3.947,-56.3478,36.1043,-36.8
2200,9.2352,0.0383,3.5255,-56.9739,39.1652,-40.0
2205,8.5838,-0.3832,3.9853,-57.4609,42.3652,-43.687
2210,8.3155,-0.2682,3.7171,-57.3217,43.0609,-48.1391
2215,8.5454,-0.0383,3.8704,-56.8348,45.3565,-49.1826
2220,8.3155,-0.3066,4.4068,-56.1391,47.6522,-49.6
2225,7.5108,-0.8814,5.02,-53.7739,47.8609,-49.7391
2230,8.2005,-0.9963,5.02,-49.8087,42.5043,-49.9478
2235,8.4688,-1.3412,5.1732,-43.0609,39.3043,-47.1652
2240,8.6221,-1.4562,5.2499,-36.5913,36.9391,-45.8435
2245,8.5838,-1.4179,5.4032,-30.8174,36.4522,-45.0087
2250,8.0089,-1.5711,5.5948,-25.6696,37.3565,-43.8957
2255,8.0473,-1.6095,5.6331,-20.6609,38.3304,-41.8783
2260,7.3575,-1.6861,6.0546,-15.7913,39.3739,-39.7913
2265,7.3192,-1.8011,5.5564,-10.2957,37.287,-38.4696
2270,7.2809,-1.7244,5.2116,-6.887,33.8783,-39.0261
2275,6.9743,-1.7627,4.6368,-3.9652,30.1217,-40.4174
2280,7.3192,-1.5711,4.7517,-1.6696,27.2696,-42.5739
2285,7.2809,-1.4562,4.4835,1.0435,27.4783,-43.7565
2290,7.6641,-1.2263,4.3685,4.1739,28.7304,-45.7739
2295,7.0509,-0.8047,4.5218,7.5826,30.7478,-46.887
2300,7.0509,-0.4598,4.1003,11.4087,31.7217,-46.7478
2305,6.936,-0.0383,4.1386,14.4,32.8348,-43.7565
2310,6.8977,0.0383,4.1769,17.113,33.6,-40.6261
2315,6.821,0.5365,4.062,19.7565,32.4174,-38.5391
2320,6.7061,1.1879,3.9853,21.8435,29.287,-37.8435
2325,6.7444,1.6478,3.947,23.3739,24.487,-37.3565
2330,6.0546,1.6478,4.4835,24.6261,18.4348,-37.3565
2335,7.1659,2.5291,3.832,26.087,8.2783,-40.0
2340,7.8557,2.6058,3.7554,26.2957,3.8261,-40.0
2345,7.9323,2.4525,3.8704,26.5043,3.2,-39.9304
2350,7.6641,2.3759,4.0236,26.9913,4.1043,-42.2957
2355,7.5108,2.3375,3.947,27.4087,4.5217,-44.7304
2360,7.3575,2.2992,4.2152,27.3391,4.3826,-46.9565
2365,7.4341,2.2226,4.0236,27.0609,3.2,-48.0696
2370,7.5491,2.031,4.2536,26.5739,2.2261,-48.6261
2375,7.5108,1.916,4.1769,26.5739,0.6957,-49.0435
2380,7.5491,1.8394,4.4835,27.2696,-0.6261,-49.7391
2385,7.5491,1.9927,4.5984,28.5913,-1.6696,-50.087
2390,7.6257,2.031,4.8284,31.0261,-3.0609,-50.713
2395,7.5108,2.1076,5.1732,33.7391,-4.1739,-50.1565
2400,7.3575,2.0693,5.0583,37.1478,-5.8435,-49.1826
2405,7.5108,1.9543,4.9816,40.8348,-8.487,-47.2348
2410,7.5108,1.9927,4.905,44.5217,-11.5478,-45.3565
2415,7.3958,2.1459,5.0583,47.7913,-14.5391,-43.2696
2420,7.4341,2.3375,5.02,50.5739,-16.9739,-41.9478
2425,7.4725,2.6824,5.4415,52.5913,-18.5043,-41.2522
2430,7.3958,3.0273,5.4032,54.0522,-19.6174,-41.3913
2435,7.3575,3.4105,5.7864,54.9565,-19.7565,-41.6696
2440,7.6641,3.6787,5.6714,55.5826,-19.2696,-42.9913
2445,7.894,3.9853,5.6331,56.0,-17.6,-44.8
2450,8.3921,4.2536,5.7864,56.4174,-14.6087,-48.487
2455,8.8903,4.905,5.978,57.2522,-9.6,-54.0522
2460,9.5034,6.0163,6.1313,58.4348,-2.4348,-62.4
2465,10.1549,7.4341,6.4761,59.687,6.8174,-73.3913
2470,10.768,9.3502,6.5145,61.1478,17.113,-86.1913
2475,10.9596,11.1129,6.4761,62.4,26.1565,-96.5565
2480,10.768,12.0709,5.978,62.9565,29.9826,-100.0348
2485,10.0782,12.4541,5.02,62.8174,24.5565,-91.2696
2490,9.8483,12.3008,3.5638,59.4087,9.7391,-69.3565
2495,9.7717,11.6494,1.9927,50.2957,-14.3304,-30.0522
2500,10.2698,10.5764,1.1113,30.4696,-31.8609,5.7739
2505,11.1512,9.3118,0.7664,11.2,-43.3391,38.6087
2510,11.5344,7.9706,1.1879,-4.5217,-47.7913,63.7913
2515,10.9979,7.0126,1.8394,-11.4087,-45.9826,80.3478
2520,10.4998,6.2079,2.2992,-8.9043,-39.7217,89.6696
2525,9.7717,5.5181,2.7974,0.4174,-30.3304,95.0957
2530,8.8137,5.2882,3.5638,12.4522,-19.9652,96.2087
2535,8.0089,5.4415,4.3685,22.5391,-9.5304,94.9565
2540,7.5491,5.1349,4.8284,29.2174,0.9043,91.8261
2545,6.7444,5.0583,5.863,31.8609,11.3391,85.4261
2550,6.1696,5.1732,6.3612,32.0,22.1217,76.5217
2555,5.6714,5.2116,7.0509,30.6087,30.6087,65.8783
2560,5.2116,5.1732,7.4341,30.2609,38.6087,55.0957
2565,5.4032,5.1349,7.894,31.7217,46.1217,44.9391
2570,5.3265,4.8284,8.4305,35.5478,53.0087,33.8783
2575,5.4798,4.9433,8.3921,42.5739,59.3391,21.9826
2580,5.7864,4.9433,8.5454,51.7565,65.9478,11.1304
2585,5.7864,4.905,8.967,63.7217,72.6261,1.0435
2590,5.4798,4.6368,9.1586,78.6087,79.0957,-8.5565
2595,5.0966,4.3685,9.4651,96.0,84.0348,-17.1826
2600,5.02,4.2536,9.5801,113.8783,86.3304,-27.0609
2605,5.4032,3.9853,9.5418,132.6609,85.6348,-33.8783
2610,6.3229,4.0236,9.3502,144.2783,83.2696,-38.5391
2615,7.2042,4.4068,8.6604,151.1652,81.113,-41.9478
2620,8.1622,4.79,8.1622,151.8609,80.8348,-43.9652
2625,8.5838,5.3648,7.0893,147.7565,82.8522,-45.4957
2630,8.8903,5.6714,5.7864,138.8522,87.2348,-45.7739
2635,9.2352,6.0929,4.79,126.1913,93.1478,-44.1043
2640,9.5418,6.2079,3.9087,110.6783,99.6174,-40.9739
2645,10.0782,6.0929,2.9507,93.6348,105.6696,-37.0087
2650,10.768,6.7444,2.7591,77.7043,111.3043,-34.2957
2655,11.0746,7.0126,2.5291,63.6522,117.4957,-35.8957
2660,11.6111,7.1659,2.1076,50.8522,122.9913,-39.513
2665,11.9176,7.2042,2.031,43.687,128.5565,-44.1739
2670,11.841,7.3192,2.2226,39.3043,135.9304,-49.9478
2675,12.1092,7.2425,1.8777,38.4,143.6522,-57.6696
2680,11.9559,7.2809,1.5328,38.9565,151.5826,-66.0174
2685,11.726,7.0893,0.9963,38.7478,159.4435,-76.8
2690,11.4961,7.2425,0.9197,36.3826,167.3739,-89.5304
2695,11.3811,7.0893,0.2299,34.713,173.5652,-101.7043
2700,11.0363,6.8593,-0.1916,33.6696,180.0348,-112.3478
2705,10.7297,6.5528,-0.7664,32.2087,186.5043,-122.9217
2710,10.3465,6.5911,-1.1113,29.8435,194.1565,-135.0261
2715,10.1166,6.3995,-1.6478,26.3652,200.4174,-144.2783
2720,10.2315,6.1313,-1.8394,22.2609,205.9826,-151.1652
2725,9.8483,6.0929,-2.1459,16.5565,210.4348,-157.2174
2730,9.2735,6.1313,-2.2992,9.7391,213.9826,-161.4609
2735,8.5454,6.2845,-2.0693,2.5043,216.9739,-163.7565
2740,7.6641,6.2845,-1.6861,-4.1739,219.6174,-163.3391
2745,7.4725,6.2462,-0.958,-9.8783,220.6609,-161.1826
2750,7.0126,6.0163,-0.4982,-13.7043,220.5217,-157.9826
2755,6.821,5.9396,-0.3066,-16.2783,219.4783,-154.6435
2760,6.2462,5.6331,0.115,-17.9478,218.087,-149.2174
2765,5.5948,5.7864,0.5365,-19.687,216.4174,-143.9304
2770,4.8667,5.7097,0.9197,-20.5913,214.6087,-138.713
2775,4.062,5.7097,1.3412,-21.4957,212.1739,-133.8435
2780,3.4105,5.6331,1.5711,-22.8174,209.113,-127.6522
2785,2.6824,5.5181,2.1843,-23.0261,205.4957,-121.3913
2790,2.1459,5.4415,2.4142,-21.3565,201.3217,-114.9913
2795,1.8777,5.5948,2.874,-18.087,196.5913,-107.9652
2800,1.4179,5.5564,2.874,-13.7739,191.9304,-101.7043
2805,0.7664,5.8247,3.2955,-9.0435,186.5739,-95.3043
2810,0.4598,5.9396,3.6021,-5.0087,181.4261,-87.5826
2815,0.115,6.1696,3.6404,-0.9739,174.9565,-78.6087
2820,0.0,6.5145,3.832,2.3652,169.4609,-70.7478
2825,-0.2682,6.7827,4.1769,3.8261,163.7565,-63.6522
2830,-0.6514,7.0893,4.2152,4.1739,157.7043,-56.4174
2835,-0.8047,7.3192,4.6368,3.4783,151.513,-50.2261
2840,-1.3412,7.4725,4.6368,2.5043,144.4174,-43.7565
2845,-2.0693,7.894,4.4835,0.4174,137.113,-37.0783
2850,-2.6824,8.2005,4.905,-3.0609,129.6696,-30.5391
2855,-3.3722,8.2005,4.9433,-7.7913,120.2783,-23.9304
2860,-3.9087,8.5071,4.9816,-13.5652,109.3565,-16.8348
2865,-4.4068,8.5838,4.8284,-20.5217,98.6435,-7.7913
2870,-4.5984,8.4305,4.905,-30.1913,86.5391,0.0
2875,-4.8284,8.3155,4.7134,-39.1652,76.9391,7.3739
2880,-4.7517,8.1239,4.7134,-48.6957,67.8957,14.887
2885,-4.7134,8.0089,4.7517,-58.5043,59.2,21.287
2890,-4.4452,7.7407,4.5984,-68.0348,51.0609,27.0609
2895,-4.2536,7.3958,4.5984,-77.3565,43.5478,31.9304
2900,-4.1386,6.8977,4.79,-85.4261,36.4522,36.5217
2905,-4.1003,6.4378,4.79,-91.3391,29.2174,40.9043
2910,-4.0236,6.0546,5.02,-94.7478,21.4261,45.7739
2915,-3.5255,5.9013,5.1732,-95.7913,12.8,50.1565
2920,-3.2189,5.7097,5.2116,-94.887,2.7826,54.3304
2925,-2.989,5.5564,5.2882,-92.0348,-10.5739,56.6261
2930,-2.5675,5.4032,5.3648,-88.6957,-22.0522,58.3652
2935,-2.3759,5.3265,5.3648,-85.4957,-32.2783,58.9217
2940,-1.9927,5.2882,5.5948,-82.5739,-40.5565,59.1304
2945,-1.5328,5.2116,5.5564,-80.2087,-46.6087,58.5739
2950,-0.8814,5.0966,5.8247,-78.887,-50.9217,57.5304
2955,-0.4982,4.9816,6.0163,-78.5391,-54.1217,55.4435
2960,-0.2682,5.02,6.0546,-78.2609,-56.7652,52.9391
2965,-0.0383,4.8667,6.0929,-77.0783,-57.8783,49.7391
2970,-0.0383,4.79,6.0929,-75.3391,-57.8087,47.2348
2975,0.1916,4.8667,5.9396,-73.2522,-57.3217,44.9391
2980,0.5748,5.02,6.0929,-70.9565,-56.3478,43.687
2985,1.1113,5.2882,6.4761,-70.7478,-54.887,41.8783
2990,1.4562,5.7097,6.6677,-72.6957,-52.313,40.1391
2995,1.9927,6.2462,7.4725,-76.7304,-48.9739,38.2609
