timestamp,accX,accY,accZ,gyroX,gyroY,gyroZ
0,-0.3449,2.4908,-9.5801,-77.2174,1.7391,-0.2087
5,-0.5365,2.7591,-9.3118,-78.4,1.113,-1.113
10,-0.4982,2.7591,-9.6184,-79.3043,0.0,-2.2957
15,-0.3066,2.874,-9.8483,-80.6957,-0.9739,-3.0609
20,-0.2299,2.9123,-9.8483,-81.4609,-1.5304,-3.0609
25,-0.2682,2.7207,-10.1166,-82.087,-1.8783,-2.8522
30,-0.3449,3.4105,-10.0399,-82.713,-1.3913,-3.0609
35,-0.0766,3.4105,-10.3082,-82.9913,-1.6,-2.5043
40,-0.0766,3.4488,-10.1549,-83.1304,-1.0435,-1.6696
45,-0.0766,3.3722,-9.9633,-82.9913,-0.0696,-0.7652
50,0.0,3.5255,-9.8483,-83.1304,0.9739,0.0696
55,0.0766,3.2572,-9.7717,-83.5478,2.087,0.9043
60,0.0,4.2152,-9.3502,-85.7739,3.4087,0.4174
65,0.1533,3.832,-9.4651,-85.3565,4.313,2.2261
70,0.1916,3.9087,-9.3502,-85.7043,5.6348,4.1739
75,-0.0766,3.9853,-9.2352,-86.1217,6.1913,4.6609
80,0.0383,3.947,-9.1969,-85.9826,6.3304,4.0348
85,0.1533,3.7554,-8.8903,-85.8435,6.3304,4.0348
90,0.0383,4.1769,-8.6987,-85.913,6.1913,4.1043
95,0.2682,4.2536,-8.5838,-85.0783,5.4261,3.7565
100,0.2299,4.2536,-8.7754,-83.6174,5.2174,4.0348
105,0.1916,4.2919,-8.6987,-82.3652,5.5652,4.1043
110,0.1533,4.2152,-8.5454,-81.5304,5.5652,3.8957
115,0.0383,4.1386,-8.8903,-81.3217,5.913,4.0348
120,0.0,4.2919,-8.8903,-81.4609,6.3304,4.4522
125,0.0,4.062,-9.1969,-80.6261,7.3043,3.8261
130,-0.2299,4.4068,-9.0436,-80.0696,7.0261,2.2261
135,-0.3832,4.3685,-9.1586,-78.887,6.7478,0.6957
140,-0.5748,4.4068,-9.1586,-76.9391,7.2348,0.6957
145,-0.6514,4.5984,-9.1586,-75.0609,7.513,0.4174
150,-0.7664,4.5218,-9.0436,-74.3652,7.3043,0.2783
155,-0.843,4.6368,-8.852,-73.1826,7.3043,0.0
160,-1.0346,4.4835,-9.0053,-72.2783,6.6783,-0.5565
165,-0.4982,5.02,-8.967,-71.7913,5.4957,-0.8348
170,-0.4598,5.0583,-8.8903,-70.1217,5.0783,0.8348
175,-0.6898,4.905,-8.967,-68.5913,5.5652,0.3478
180,-0.4215,5.0966,-9.1202,-68.0348,4.5913,-1.3913
185,-0.5365,5.2499,-9.0053,-67.8261,3.8261,-1.8087
190,-0.4982,5.4032,-8.6987,-67.0609,2.9913,-1.8087
195,-0.3066,5.2116,-9.0053,-65.6,1.4609,-1.6696
200,-0.1533,5.4798,-8.737,-65.113,1.0435,-2.6435
205,0.0766,5.4032,-8.6604,-64.3478,0.6261,-1.8783
210,0.0383,5.4032,-8.6221,-62.6087,1.7391,-0.2087
215,0.0,5.3265,-8.8903,-62.1217,2.6435,0.5565
220,0.0,5.5564,-9.0436,-61.6348,2.713,0.9739
225,0.0383,5.4032,-8.6221,-60.6609,2.4348,0.7652
230,0.115,5.3265,-8.737,-59.5478,2.2261,0.5565
235,0.1533,5.2882,-8.3921,-58.9217,2.3652,0.2087
240,0.1916,5.5181,-8.5838,-58.6435,2.5043,-0.4174
245,0.1533,5.2116,-8.5454,-56.6957,3.2,0.6957
250,0.0766,5.7097,-8.2772,-54.8174,5.2174,0.9043
255,0.2682,5.6714,-8.2389,-53.8435,6.4696,1.9478
260,0.0766,5.4415,-8.2389,-52.9391,7.7913,3.0609
265,0.0766,5.863,-8.0856,-51.8957,8.487,4.5913
270,0.0766,5.7864,-8.3155,-49.6696,9.6,4.4522
275,-0.115,5.7864,-8.3538,-48.2783,10.0174,3.7565
280,-0.115,5.863,-8.2772,-47.513,9.8087,3.1304
285,-0.2299,5.9013,-8.2005,-46.9565,9.8783,2.2957
290,-0.3066,6.1313,-8.2772,-46.7478,9.5304,0.9739
295,-0.3066,6.1696,-8.3921,-45.5652,9.3217,0.6261
300,-0.3449,5.9396,-8.3538,-44.6609,9.6696,0.1391
305,-0.6131,6.3995,-8.1622,-44.2435,10.1565,1.0435
310,-0.8047,6.5528,-8.5071,-42.0174,10.3652,-0.8348
315,-0.6131,6.4761,-8.5071,-40.7652,9.8087,-2.713
320,-0.6898,6.3995,-8.1239,-40.0,9.4609,-4.1043
325,-0.5748,6.8593,-8.4305,-39.9304,9.3217,-5.7739
330,-0.6514,7.0893,-8.2005,-39.513,10.1565,-6.2609
335,-0.4598,6.8977,-8.3538,-38.1217,9.8783,-5.8435
340,-0.5365,6.7061,-8.3538,-36.9391,9.3913,-5.3565
345,-0.2299,6.7061,-8.1239,-36.1043,8.5565,-5.4261
350,-0.4215,6.6294,-8.1622,-35.5478,8.2783,-5.7043
355,-0.4982,6.5528,-8.0856,-34.5043,7.6522,-6.0522
360,-0.2682,6.4378,-8.1239,-33.113,6.8174,-6.2609
365,-0.2299,6.3995,-7.7024,-32.2783,7.0261,-6.5391
370,-0.2682,6.4761,-7.7407,-31.0261,7.0957,-6.4696
375,-0.3832,6.3995,-7.8557,-29.7739,6.9565,-6.3304
380,-0.3832,6.2845,-7.5491,-28.6609,6.8174,-6.4
385,-0.4598,6.4378,-7.7407,-27.687,6.4,-6.6087
390,-0.2682,6.3995,-7.5874,-26.6435,6.1217,-6.9565
395,-0.4598,6.3229,-7.4725,-25.2522,5.6348,-7.4435
400,-0.3449,6.5528,-7.5874,-23.7913,5.0783,-7.9304
405,-0.4215,6.7061,-7.6641,-22.8174,4.6609,-8.4174
410,-0.3066,6.5528,-7.6641,-21.9826,4.5913,-8.6261
415,-0.2682,6.6677,-7.6257,-20.9391,4.4522,-8.5565
420,-0.2682,6.6677,-7.6257,-19.8957,4.4522,-8.487
425,-0.0766,6.5528,-7.4341,-18.9913,4.4522,-8.4174
430,0.0,6.4761,-7.5108,-18.3652,4.2435,-8.2087
435,-0.115,6.5911,-7.5108,-17.8087,4.1739,-8.0
440,-0.1533,6.5911,-7.5108,-17.1826,4.2435,-7.7217
445,-0.0383,6.5911,-7.3575,-16.2783,4.2435,-7.5826
450,-0.115,6.5528,-7.5874,-14.9565,4.313,-7.513
455,-0.2299,6.5528,-7.4725,-13.4261,4.1739,-7.513
460,-0.0766,6.6677,-7.5491,-11.8957,3.8957,-7.4435
465,-0.2682,6.7444,-7.3192,-10.7826,3.5478,-7.4435
470,-0.3066,6.821,-7.3192,-9.8783,3.2,-7.3043
475,-0.1916,6.8977,-7.0893,-9.3217,2.7826,-7.2348
480,-0.3832,6.9743,-7.2425,-9.113,2.7826,-7.0261
485,-0.4982,6.936,-7.3575,-8.9043,2.6435,-6.6087
490,-0.5365,6.8593,-7.2425,-8.4174,2.713,-6.1217
495,-0.5748,7.0893,-7.2809,-7.5826,2.4348,-5.5652
500,-0.3832,7.1276,-7.4341,-7.0957,2.713,-4.9391
505,-0.3832,6.936,-7.0126,-7.0261,3.1304,-4.2435
510,-0.3449,7.0893,-7.2809,-6.887,3.3391,-3.687
515,-0.3449,7.0126,-7.2042,-6.9565,3.4783,-3.4783
520,-0.3066,6.7444,-7.0893,-7.2348,3.6174,-3.2696
525,-0.3449,6.936,-7.2425,-7.5826,3.4783,-3.4783
530,-0.4215,6.8977,-7.1659,-6.9565,3.7565,-3.2
535,-0.3449,6.936,-7.2042,-6.1217,3.8261,-2.9913
540,-0.3066,7.0509,-7.2042,-5.4261,4.1043,-2.713
545,-0.1533,7.0509,-7.2042,-4.9391,4.3826,-2.3652
550,-0.3066,7.0126,-7.1276,-4.8696,4.5217,-1.9478
555,-0.3066,6.936,-7.2809,-4.9391,4.5913,-1.5304
560,-0.3449,7.0509,-7.1276,-5.0087,4.8696,-1.1826
565,-0.1916,7.0126,-7.1276,-5.0783,5.0783,-0.8348
570,-0.1916,7.1276,-7.2042,-5.1478,5.2174,-0.4174
575,-0.2299,7.1659,-7.1276,-5.287,5.4957,-0.1391
580,-0.2299,7.0126,-7.2425,-5.5652,5.6348,0.0
585,-0.3832,7.0126,-7.2042,-5.7739,5.8435,-0.0696
590,-0.2682,7.0893,-6.9743,-6.4,5.913,-0.2783
595,-0.2682,6.9743,-7.0509,-6.7478,5.9826,-0.4174
600,-0.4215,7.0509,-6.9743,-6.9565,6.2609,-0.4174
605,-0.3449,6.9743,-6.9743,-7.0261,6.4,-0.6261
610,-0.3449,7.0509,-7.0126,-7.0957,6.5391,-0.6261
615,-0.115,7.0509,-7.0893,-7.0261,6.7478,-0.7652
620,-0.3066,7.0126,-6.9743,-7.2348,6.8174,-0.7652
625,-0.3066,7.1276,-6.7827,-7.513,6.9565,-0.9739
630,-0.1533,7.1276,-6.8977,-8.2087,7.1652,-1.2522
635,-0.4598,7.0126,-6.821,-9.113,7.5826,-1.3217
640,-0.4215,7.0126,-6.936,-10.0174,7.7913,-1.3217
645,-0.3066,6.9743,-6.7444,-10.5043,8.0696,-1.3913
650,-0.3832,7.0126,-6.7444,-10.9217,8.4174,-1.5304
655,-0.3832,6.9743,-6.7444,-11.2696,8.8348,-1.3913
660,-0.4598,6.8977,-6.7827,-11.4783,9.1826,-1.3217
665,-0.3832,6.821,-6.8593,-11.7565,9.6696,-0.9739
670,-0.2682,6.8977,-6.8977,-11.6174,10.0174,-0.8348
675,-0.1916,6.8977,-6.936,-11.4783,10.3652,-0.6957
680,-0.3449,7.0893,-6.8593,-11.4783,10.5739,-0.4174
685,-0.2299,7.0126,-7.0126,-11.7565,10.713,-0.2783
690,-0.1533,7.2042,-7.0893,-12.1739,10.5739,-0.1391
695,0.0,7.2425,-7.0509,-12.3826,10.3652,-0.2783
700,-0.115,7.2425,-7.1659,-12.4522,10.2957,-0.1391
705,-0.0766,7.2042,-7.3192,-12.8696,10.2261,0.1391
710,0.0,7.1276,-7.0893,-13.2174,10.4348,-0.0696
715,-0.0383,7.1659,-7.2809,-13.4261,10.3652,0.0696
720,-0.0766,7.2425,-7.1659,-13.6348,10.2261,0.2783
725,0.0,7.1659,-7.1276,-13.9826,10.0174,0.3478
730,0.0383,7.0893,-7.2042,-14.1913,9.9478,0.7652
735,0.0,7.2042,-7.2425,-14.1913,10.2261,0.8348
740,0.0,7.1659,-7.2425,-14.1217,10.2261,1.2522
745,0.0383,7.2425,-7.1659,-13.913,10.5043,1.3913
750,-0.0383,7.3575,-7.2042,-13.8435,10.9217,1.3217
755,0.0,7.3192,-7.2809,-13.8435,11.3391,1.0435
760,0.0766,7.3192,-7.3192,-13.6348,11.687,0.9043
765,0.0,7.1659,-7.2425,-13.4261,11.7565,0.487
770,0.115,7.1276,-7.3575,-13.2174,12.0348,0.2783
775,0.0,7.1276,-7.2042,-12.6609,12.1739,0.4174
780,-0.0383,7.2425,-7.1276,-12.3826,12.4522,0.6261
785,-0.1533,7.0509,-7.2425,-11.8957,12.8696,1.0435
790,-0.0766,7.1276,-7.2425,-11.6174,13.287,1.3217
795,-0.0383,6.936,-7.3192,-10.9217,13.4261,1.5304
800,-0.1916,7.0509,-7.1659,-9.9478,13.6348,1.7391
805,-0.1533,6.821,-7.2042,-8.6261,13.5652,1.8783
810,-0.0766,6.8593,-7.0509,-7.513,13.3565,2.1565
815,-0.1916,6.8977,-7.0509,-6.5391,12.9391,2.2957
820,0.0,6.936,-7.1659,-5.913,12.5913,2.5043
825,-0.2299,6.9743,-7.1276,-5.0783,12.4522,2.8522
830,-0.115,6.936,-7.1276,-3.9652,12.4522,2.9217
835,-0.115,7.0509,-7.1276,-2.713,12.2435,2.9913
840,-0.2682,7.0509,-7.0893,-1.7391,12.0348,2.8522
845,-0.0766,7.0126,-7.1659,-0.9043,11.687,2.6435
850,-0.115,7.1276,-7.2042,0.0696,11.3391,2.3652
855,-0.0383,7.1276,-7.1276,0.7652,10.9913,2.2957
860,-0.0766,7.2042,-7.0126,1.113,10.6435,2.087
865,0.0,7.2042,-7.1276,1.3913,10.4348,2.0174
870,0.0383,7.0893,-7.0126,1.8783,10.2957,1.9478
875,0.0,7.1659,-7.0509,2.4348,10.087,1.8783
880,0.0,7.2809,-7.1659,2.8522,9.8783,1.8783
885,0.0383,7.0509,-7.2809,3.2696,9.8087,1.8087
890,0.0,7.2042,-7.4725,4.1739,9.8087,1.5304
895,-0.0766,7.2809,-7.2042,5.4261,9.9478,1.2522
900,0.0,7.2042,-7.3575,6.8174,10.087,1.0435
905,0.0383,7.2042,-7.2809,7.5826,10.1565,0.9043
910,0.0,7.2809,-7.1659,7.9304,10.3652,0.9739
915,0.115,7.2042,-7.0509,8.1391,10.2957,1.0435
920,0.0766,7.1276,-7.1276,8.3478,10.2957,0.9739
925,0.0,7.3575,-7.2809,8.6957,10.3652,1.113
930,0.0,7.0509,-7.3192,9.1826,10.4348,1.4609
935,0.0,6.8593,-7.1659,10.0174,10.6435,1.3913
940,0.0,6.9743,-7.2425,10.9217,10.8522,1.2522
945,0.0,7.0893,-7.1659,11.4087,10.9913,1.2522
950,0.0383,7.1659,-6.9743,11.3391,11.1304,1.113
955,0.0,7.1659,-7.0509,10.7826,11.3391,1.0435
960,0.0766,6.9743,-7.1276,10.3652,11.2696,0.9043
965,0.0766,6.9743,-7.1659,10.2261,11.3391,0.8348
970,0.0766,7.0126,-7.0893,10.3652,11.2,0.6957
975,0.115,6.936,-7.0893,10.713,11.2,0.5565
980,0.1533,6.7827,-6.9743,11.2,11.1304,0.2783
985,0.0383,6.8977,-7.1659,11.6174,10.9217,-0.0696
990,0.0383,6.8977,-6.9743,11.7565,10.9217,-0.3478
995,0.4982,6.7827,-7.7024,11.8261,11.0609,-0.5565
1000,0.5365,6.821,-6.4761,11.4783,10.9217,-0.5565
1005,0.0766,6.8977,-6.3612,11.1304,10.7826,-0.487
1010,-0.3066,6.7827,-6.7827,10.7826,10.713,-0.4174
1015,0.4982,6.5528,-7.2809,10.2957,10.6435,-0.4174
1020,0.3449,7.1276,-6.8977,10.087,10.6435,-0.4174
1025,0.3066,6.9743,-7.2425,10.1565,10.713,-0.5565
1030,0.4215,6.8977,-6.936,10.2957,10.8522,-0.6957
1035,0.1916,7.1659,-7.6641,10.4348,10.9913,-0.9739
1040,0.2299,7.0126,-7.2425,10.3652,11.2696,-1.113
1045,0.1916,7.0893,-7.1276,10.4348,11.5478,-1.113
1050,0.1916,7.0126,-7.2809,10.3652,11.6174,-1.2522
1055,0.115,7.0509,-7.2425,10.2261,11.6174,-1.3217
1060,0.1533,6.9743,-7.1659,9.8087,11.4783,-1.4609
1065,0.115,7.0126,-7.1659,9.3913,11.4087,-1.5304
1070,0.1916,6.5528,-7.2425,8.7652,11.1304,-1.6
1075,0.2299,7.6641,-7.3958,8.3478,10.6435,-1.7391
1080,0.2299,6.7444,-7.1276,8.0696,10.4348,-1.8087
1085,0.115,6.3995,-7.5108,7.7217,10.1565,-1.8087
1090,0.1916,6.5145,-7.9706,7.5826,9.8783,-1.8783
1095,0.6131,7.1659,-7.0509,7.6522,9.4609,-2.0174
1100,0.0383,7.1276,-7.0126,7.7217,9.2522,-2.087
1105,0.0766,7.0126,-7.1276,7.6522,9.0435,-2.2261
1110,0.2682,6.8977,-7.2042,7.513,8.8348,-2.2957
1115,0.1916,6.8593,-7.0893,7.2348,8.6261,-2.3652
1120,0.115,6.6677,-7.2425,7.3739,8.3478,-2.5043
1125,0.2682,6.9743,-7.3575,7.5826,7.9304,-2.9217
1130,0.1533,6.8593,-7.5491,7.3739,7.7217,-3.3391
1135,0.2682,6.821,-7.3575,7.3739,7.3739,-3.5478
1140,0.115,6.7827,-7.3192,7.2348,7.1652,-3.7565
1145,0.0766,7.0893,-6.9743,7.0261,7.0261,-3.7565
1150,0.3449,7.1659,-7.3192,7.1652,7.0261,-4.1739
1155,0.4215,6.7061,-7.1276,7.7217,6.8174,-3.687
1160,0.3066,6.7061,-7.1276,7.3043,6.8174,-3.4087
1165,0.6514,6.936,-7.2425,6.9565,6.7478,-3.1304
1170,0.2299,6.7444,-7.6257,6.8174,6.8174,-2.713
1175,0.2682,6.4761,-7.3958,6.887,6.6087,-2.5739
1180,0.3832,6.3612,-7.1659,7.1652,6.4,-2.5739
1185,0.3449,6.4761,-7.5108,7.4435,6.2609,-2.5739
1190,0.4215,6.5911,-7.6257,7.7913,6.1913,-2.5043
1195,0.4215,6.2079,-7.5491,8.1391,6.1913,-2.3652
1200,0.3449,6.3995,-7.6257,8.5565,6.2609,-2.0174
1205,0.3066,6.5528,-7.4341,8.7652,6.4,-1.8087
1210,0.3066,6.4761,-7.6257,8.5565,6.6783,-1.2522
1215,0.1916,6.936,-7.6641,8.9043,6.887,-1.0435
1220,0.1916,6.8977,-7.5874,9.6696,7.2348,-0.8348
1225,0.3066,6.821,-7.4341,9.6,7.3739,-0.3478
1230,0.3066,6.821,-7.6641,8.6957,7.513,0.0
1235,0.3066,6.7061,-7.4341,8.0,7.6522,0.0696
1240,0.1916,6.6294,-7.3575,8.0,7.8609,0.0696
1245,0.115,6.8977,-7.5491,7.9304,8.0,-0.0696
1250,0.0766,6.7061,-7.1659,7.8609,7.9304,-0.2087
1255,0.0766,6.6677,-7.4341,7.8609,7.7217,-0.7652
1260,0.2682,6.6294,-7.4341,7.8609,7.4435,-1.2522
1265,0.1533,6.6294,-7.3192,7.7913,7.1652,-1.8087
1270,0.0383,6.5911,-7.4341,7.7913,6.8174,-2.1565
1275,0.2299,6.2462,-7.5491,8.2087,6.4696,-2.4348
1280,0.2299,6.4761,-7.6641,8.3478,6.3304,-2.3652
1285,0.0383,6.3995,-7.3958,8.0696,6.1913,-2.1565
1290,0.115,6.7061,-7.4725,8.2783,6.1217,-2.087
1295,0.1916,6.6294,-7.4725,8.9043,5.9826,-1.8087
1300,0.2682,6.3995,-7.1276,8.2783,5.7739,-1.3913
1305,0.0766,6.5528,-7.6641,7.0261,5.3565,-1.2522
1310,0.1916,6.5911,-7.1659,6.2609,5.287,-1.0435
1315,0.1533,6.4761,-7.6641,6.3304,5.0783,-0.9739
1320,0.3832,6.5911,-7.7407,6.6087,4.8696,-0.8348
1325,0.115,6.5528,-7.4725,6.8174,4.7304,-0.6261
1330,0.1916,6.936,-7.5108,6.887,4.4522,-0.4174
1335,0.3832,6.5145,-7.3192,6.6783,4.2435,-0.2087
1340,-0.0766,6.5528,-7.3192,6.4696,3.9652,0.3478
1345,0.0383,6.7444,-7.7024,6.887,3.8261,0.0
1350,0.3066,6.821,-7.5874,7.3043,3.6174,0.5565
1355,0.2299,6.6677,-7.5108,6.5391,3.4087,0.7652
1360,0.1533,6.5528,-7.5874,5.7043,3.1304,0.9739
1365,0.1916,6.6294,-7.5108,5.2174,2.9913,0.9043
1370,0.115,6.5145,-7.5874,5.287,2.9913,1.113
1375,0.2682,6.5528,-7.6641,5.4261,2.8522,1.2522
1380,0.1533,6.6677,-7.779,5.6348,2.7826,1.3217
1385,0.2682,6.6294,-7.3192,5.7043,2.6435,1.4609
1390,0.0383,6.5145,-7.5491,5.5652,2.6435,1.6696
1395,0.2299,6.4761,-7.6641,5.287,2.7826,1.8087
1400,0.4215,6.3995,-7.7024,5.2174,2.7826,1.7391
1405,-0.1533,6.5911,-7.5874,5.4957,2.7826,1.6
1410,0.4598,6.4761,-7.4725,5.7043,2.713,1.4609
1415,0.0766,6.2845,-7.5108,5.8435,2.5043,1.113
1420,0.0766,6.3995,-7.6641,5.4261,2.2261,0.9739
1425,0.3066,6.4378,-7.9323,5.1478,2.2261,0.9043
1430,0.3449,6.3229,-8.1239,6.1217,2.0174,0.4174
1435,0.1533,6.4761,-7.5874,6.887,2.0174,0.3478
1440,0.1533,6.3995,-7.5491,6.3304,1.6696,0.3478
1445,0.1533,6.3995,-7.5874,5.7043,1.4609,0.2783
1450,0.1533,6.3612,-7.779,5.7043,1.3217,0.4174
1455,0.1916,6.3612,-7.3192,6.0522,1.2522,0.6261
1460,0.2299,6.3995,-7.8557,6.1217,1.3217,1.1826
1465,0.3066,6.2462,-7.5874,5.913,1.113,1.6696
1470,-0.0766,6.3229,-7.4725,5.4261,1.113,2.2261
1475,0.115,6.5528,-7.5874,5.0087,1.3217,2.8522
1480,0.115,6.5528,-7.6641,5.913,1.4609,2.713
1485,0.1533,6.4761,-7.7024,6.5391,1.4609,2.9217
1490,0.115,6.3995,-7.7407,5.9826,1.2522,2.9913
1495,0.1533,6.5145,-7.7407,5.4261,1.0435,2.8522
1500,0.0383,6.2462,-8.1239,5.0783,0.8348,2.7826
1505,0.115,6.2462,-7.8173,5.1478,0.6261,2.7826
1510,0.0383,6.3612,-7.7024,5.1478,0.4174,2.8522
1515,0.0766,6.3612,-7.7024,5.287,0.4174,2.713
1520,0.0,6.3995,-7.5108,5.3565,0.3478,2.6435
1525,-0.0383,6.3995,-7.8173,5.3565,0.2783,2.3652
1530,0.0383,6.3612,-7.5874,5.287,0.1391,2.2261
1535,0.0383,6.2079,-7.6257,4.9391,0.0696,2.1565
1540,0.0,6.0929,-7.3958,4.3826,-0.0696,2.2261
1545,0.0766,6.5911,-7.4341,3.8261,-0.0696,2.2261
1550,0.3066,6.7061,-6.3612,5.1478,-0.2783,2.2261
1555,0.0766,6.2079,-7.4341,5.5652,-0.5565,2.2957
1560,0.1533,6.2079,-7.779,5.3565,-0.6957,2.2957
1565,0.1533,6.3229,-7.6641,5.0087,-0.8348,2.2957
1570,0.0383,6.3612,-7.5108,5.0783,-0.9043,2.3652
1575,0.0766,6.2462,-7.8173,5.3565,-1.0435,2.3652
1580,0.115,6.1313,-7.7407,5.4957,-1.2522,2.5043
1585,0.0766,5.978,-7.5108,5.287,-1.4609,2.6435
1590,0.115,6.5911,-7.6641,4.7304,-1.4609,2.8522
1595,0.1533,6.3995,-7.9706,6.1217,-1.6,3.3391
1600,0.0766,6.3612,-7.5491,5.7739,-1.8087,3.8261
1605,0.0766,6.4378,-7.4725,4.8,-1.9478,4.1739
1610,0.115,6.4761,-7.5491,4.1043,-1.9478,4.6609
1615,0.0766,6.4761,-7.5108,3.6174,-1.6,4.8
1620,0.1533,6.3229,-7.5874,3.3391,-1.3913,5.1478
1625,0.115,6.1696,-7.6641,2.713,-1.1826,5.0783
1630,0.0383,6.6294,-7.4725,1.7391,-1.0435,5.0783
1635,0.115,6.5528,-7.779,2.5739,-0.8348,4.8696
1640,0.0766,6.3612,-7.5491,2.9913,-0.7652,4.8
1645,0.0383,6.2079,-7.779,2.3652,-0.8348,4.6609
1650,0.0766,6.2462,-7.7024,1.9478,-0.9739,4.5913
1655,0.0766,6.3229,-7.779,2.0174,-0.9043,4.6609
1660,0.0383,5.9013,-7.8557,1.8783,-0.9043,4.8
1665,0.0,6.3995,-7.7024,1.3217,-0.8348,4.8
1670,0.115,6.3612,-7.6641,2.9913,-0.6957,4.8696
1675,0.0,6.3995,-7.6257,2.9913,-0.6261,4.8
1680,0.0383,6.3229,-7.6641,2.3652,-0.6957,4.8
1685,0.0383,6.3229,-7.6641,1.8783,-0.6261,4.5217
1690,0.0766,6.3612,-7.6257,1.7391,-0.5565,4.2435
1695,0.115,6.2079,-7.6257,1.1826,-0.487,4.1043
1700,0.0766,6.3229,-7.3958,0.2783,-0.2783,3.8261
1705,0.0383,6.5911,-7.779,-0.2087,-0.2783,3.5478
1710,0.0383,6.4378,-7.5491,0.6957,-0.1391,3.2696
1715,0.0,6.3229,-7.5491,-0.2087,-0.0696,2.9913
1720,0.0383,6.3612,-7.5874,-1.3217,-0.2087,2.8522
1725,0.0,6.2079,-7.779,-1.8783,-0.1391,2.8522
1730,0.0766,6.0546,-7.7024,-1.7391,0.0,2.713
1735,0.0,6.1696,-7.4725,-1.3913,0.0,2.5739
1740,0.0383,6.1313,-7.6641,-1.0435,0.0696,2.713
1745,0.0383,5.4415,-7.894,-0.9043,0.1391,2.6435
1750,0.115,6.4761,-7.7407,-1.6696,0.2087,2.8522
1755,0.115,6.3995,-7.7024,0.2783,0.2087,3.1304
1760,0.0766,6.3995,-7.7024,0.5565,0.1391,3.3391
1765,0.0383,6.3995,-7.6257,-0.0696,0.0,3.2696
1770,0.0766,6.3612,-7.7407,-0.4174,-0.0696,3.3391
1775,0.0383,6.3995,-7.4725,-0.6261,-0.0696,3.2
1780,0.0,6.2845,-7.6257,-0.8348,-0.0696,3.1304
1785,0.0,6.3612,-7.7407,-0.9043,-0.0696,3.0609
1790,0.0,6.3612,-7.6641,-0.9043,0.0696,2.9217
1795,0.0383,6.2462,-7.779,-0.9043,0.1391,2.7826
1800,0.0,6.1313,-7.6257,-0.9739,0.4174,2.4348
1805,0.0383,5.9396,-7.5874,-1.2522,0.5565,2.087
1810,0.0766,6.4761,-7.6257,-1.6,0.7652,1.8087
1815,0.0383,6.3229,-7.7024,-0.5565,0.9739,1.6
1820,0.0,6.2462,-7.4725,-0.7652,0.9043,1.4609
1825,0.0,6.2462,-7.6257,-1.2522,1.0435,1.0435
1830,0.0766,6.2845,-7.5491,-1.4609,1.0435,0.8348
1835,0.0,6.2079,-7.8173,-1.3217,1.0435,0.5565
1840,0.0383,6.2079,-7.7024,-1.113,1.0435,0.4174
1845,-0.0766,6.2079,-7.779,-1.0435,1.1826,0.2783
1850,0.0,6.1313,-7.5491,-1.0435,1.3217,0.0696
1855,-0.0383,6.2462,-7.5874,-1.113,1.3217,-0.2783
1860,0.0,6.1696,-7.6257,-1.0435,1.3913,-0.7652
1865,0.0,6.2462,-7.7407,-1.1826,1.2522,-0.9043
1870,0.0,6.0546,-7.6641,-1.3913,1.5304,-1.113
1875,-0.0766,6.3995,-7.6257,-1.8087,1.7391,-1.4609
1880,-0.1916,6.5145,-7.8557,-0.8348,2.0174,-1.113
1885,0.0,6.3995,-7.6641,-0.3478,1.8783,-1.113
1890,0.0,6.3612,-7.779,-0.6957,1.6696,-1.1826
1895,0.0,6.3995,-7.7407,-0.9043,1.5304,-1.3217
1900,0.0,6.3995,-7.8173,-1.0435,1.5304,-1.3217
1905,0.0,6.2845,-7.779,-1.113,1.5304,-1.1826
1910,0.0,6.3229,-7.7024,-1.2522,1.4609,-0.9043
1915,0.0383,6.3612,-7.6257,-1.8087,1.5304,-0.9043
1920,0.0383,6.0546,-7.7407,-2.087,1.6696,-1.0435
1925,0.0766,6.2079,-7.8173,-2.1565,1.6,-1.1826
1930,0.1533,6.3229,-7.7407,-2.1565,1.8087,-1.6
1935,0.0383,6.1696,-7.5491,-2.1565,1.8783,-1.8783
1940,0.0383,6.2462,-7.8173,-2.2957,2.087,-2.0174
1945,0.0,6.2845,-7.7024,-2.4348,2.3652,-2.2261
1950,0.1916,6.1696,-7.9706,-2.5043,2.6435,-2.2957
1955,-0.0383,6.2845,-7.8557,-2.5043,2.9913,-2.1565
1960,0.0383,6.0163,-7.894,-2.4348,3.2,-2.0174
1965,-0.0766,6.1696,-7.8557,-2.6435,3.4087,-1.8783
1970,-0.115,6.0929,-7.4725,-2.7826,3.687,-2.0174
1975,0.0,6.3612,-7.779,-2.9217,4.0348,-1.8783
1980,0.0,6.3229,-7.9323,-1.6696,4.313,-1.8783
1985,0.0383,6.3229,-7.8557,-1.113,4.2435,-2.087
1990,0.0766,6.2462,-7.8173,-1.2522,4.1739,-2.3652
1995,0.0,6.1313,-7.8557,-1.4609,4.1043,-2.4348
2000,-0.0383,6.2845,-7.7024,-1.7391,4.0348,-2.5043
2005,-0.0383,6.1696,-7.6641,-1.6696,4.0348,-2.6435
2010,0.0,6.1696,-7.7407,-1.6,3.8957,-2.9217
2015,-0.0766,6.1696,-7.8173,-1.5304,3.8261,-2.8522
2020,0.0,6.0929,-7.9323,-1.2522,3.8261,-3.0609
2025,0.0383,6.1696,-7.779,-0.9043,3.7565,-2.9217
2030,0.0383,5.978,-7.7024,-0.487,3.7565,-2.9217
2035,0.0,6.1313,-7.7024,-0.0696,3.7565,-2.6435
2040,0.0,6.3229,-7.7407,0.0,3.5478,-2.4348
2045,0.0,6.2079,-7.7024,0.0,3.7565,-2.5043
2050,0.0,6.2079,-7.779,-0.0696,3.8957,-2.4348
2055,0.0,6.1696,-7.8173,0.0,3.8957,-2.5043
2060,0.0,6.2845,-7.9706,0.0696,3.8957,-2.3652
2065,-0.0383,6.2079,-7.894,0.2087,3.9652,-2.2957
2070,0.0,6.0546,-7.7024,0.1391,4.0348,-2.2957
2075,-0.0383,5.8247,-7.9323,0.1391,4.0348,-2.2957
2080,0.0383,6.3612,-7.7024,0.0,4.313,-2.4348
2085,-0.0383,6.2845,-7.7407,1.4609,4.5913,-2.2261
2090,0.0,6.1696,-7.7024,1.6,4.5913,-2.4348
2095,-0.0766,6.1696,-7.7024,1.3913,4.7304,-2.5043
2100,-0.0383,6.1313,-7.8173,1.4609,4.8,-2.4348
2105,-0.0766,6.2462,-7.9706,1.8087,5.1478,-2.2957
2110,0.0,6.0929,-7.9706,2.4348,5.287,-2.0174
2115,0.0,6.1313,-7.8557,2.9217,5.4261,-2.0174
2120,0.0766,6.0929,-7.9323,3.3391,5.4957,-1.8783
2125,-0.0383,5.5181,-7.894,3.4087,5.7043,-1.8783
2130,0.0,6.4378,-7.8173,2.7826,5.913,-1.8087
2135,-0.115,6.2079,-7.9706,4.6609,6.1217,-1.6
2140,-0.115,6.3229,-7.4341,5.1478,6.1217,-1.4609
2145,-0.0383,6.2079,-7.7024,4.4522,6.0522,-1.4609
2150,0.0383,6.2462,-7.7407,4.1043,6.0522,-1.3913
2155,0.0766,5.863,-7.8173,3.687,5.913,-1.2522
2160,-0.0766,6.2845,-7.9323,3.4087,5.7739,-1.8087
2165,-0.0383,6.3612,-7.8173,4.7304,5.913,-1.7391
2170,-0.115,6.3229,-7.8173,5.0783,5.913,-1.5304
2175,-0.115,6.2462,-7.7407,4.5913,5.6348,-1.4609
2180,-0.1533,6.2079,-7.8173,4.313,5.5652,-1.3217
2185,-0.0766,6.1313,-7.8557,4.4522,5.6348,-1.113
2190,-0.115,6.0163,-7.894,4.313,5.5652,-0.7652
2195,-0.0766,6.3995,-7.779,4.5217,5.5652,-1.1826
2200,-0.0383,6.1696,-7.8173,5.1478,5.5652,-0.8348
2205,0.0,5.978,-7.7024,4.8,5.4261,-0.8348
2210,-0.0766,6.0546,-7.6641,4.4522,5.4957,-0.6957
2215,0.0,6.0929,-7.7407,4.313,5.5652,-0.6261
2220,0.0,6.0929,-7.7024,4.0348,5.4957,-0.6957
2225,0.0,6.0929,-7.8173,3.8261,5.5652,-0.6957
2230,-0.0766,6.0163,-7.779,3.7565,5.4957,-0.6957
2235,-0.0383,6.1696,-7.8557,3.8957,5.4261,-0.8348
2240,-0.1916,6.0929,-7.8557,3.9652,5.4261,-0.9043
2245,-0.0383,6.1696,-7.894,3.7565,5.2174,-0.6261
2250,-0.1916,6.3612,-7.894,4.0348,4.9391,-1.2522
2255,-0.0766,6.1696,-7.8557,4.5217,4.8696,-1.3217
2260,-0.0383,6.1696,-7.8557,4.4522,4.6609,-1.3217
2265,-0.0383,6.0929,-7.9323,3.9652,4.3826,-1.3913
2270,-0.0383,6.1696,-7.8173,3.8957,4.1739,-1.3913
2275,-0.0383,6.0163,-7.8557,3.7565,4.1739,-1.3217
2280,-0.115,5.978,-7.8557,3.687,4.0348,-1.3913
2285,-0.115,6.0929,-7.8557,3.8261,3.8957,-1.3217
2290,-0.1916,6.0546,-7.894,3.8957,3.7565,-1.1826
2295,-0.1916,6.0929,-7.779,3.9652,3.5478,-0.9739
2300,-0.1916,6.1696,-7.894,4.1043,3.5478,-0.9043
2305,-0.0766,5.978,-8.0089,4.1043,3.2696,-0.6957
2310,-0.0766,6.0929,-7.9323,4.1739,3.1304,-0.487
2315,-0.0766,6.0929,-7.9323,4.1739,2.9217,-0.2783
2320,-0.115,6.0546,-7.9323,4.0348,2.713,-0.0696
2325,-0.0766,6.1313,-7.8557,3.9652,2.713,0.0
2330,-0.0383,6.0929,-7.7024,3.8261,2.5739,0.0696
2335,-0.115,6.1313,-7.779,3.6174,2.5739,0.2087
2340,-0.1533,6.0546,-7.7024,3.3391,2.6435,0.2087
2345,-0.2299,6.0163,-7.894,3.2,2.7826,0.3478
2350,-0.0766,5.9396,-7.7024,3.2696,2.7826,0.487
2355,-0.0766,6.1696,-7.6641,3.4783,2.7826,0.5565
2360,0.0,5.8247,-7.8173,3.6174,2.713,0.8348
2365,-0.115,5.8247,-7.894,3.7565,2.6435,0.8348
2370,-0.1533,5.863,-7.8557,4.1739,2.5043,0.8348
2375,-0.1916,5.978,-7.8557,4.3826,2.5043,0.9739
2380,-0.1916,5.978,-7.7024,4.5217,2.5739,0.9739
2385,-0.1533,5.978,-7.8557,4.4522,2.6435,0.9043
2390,-0.0766,6.1696,-7.894,4.3826,2.5739,0.7652
2395,-0.1916,5.863,-7.8173,4.1043,2.6435,0.6261
2400,-0.0766,6.0546,-7.8173,3.8261,2.6435,0.487
2405,-0.115,5.863,-7.894,3.7565,2.7826,0.5565
2410,-0.0383,5.8247,-7.7407,3.6174,2.8522,0.487
2415,-0.1533,5.9013,-7.7024,3.7565,2.8522,0.2783
2420,-0.115,5.863,-7.8173,3.7565,2.9217,0.2783
2425,0.0,5.9396,-7.9323,3.9652,2.7826,0.0696
2430,0.0,6.0546,-7.8557,3.9652,2.9217,-0.0696
2435,-0.0766,5.978,-7.8557,3.8957,2.713,-0.0696
2440,0.0,5.9396,-7.8173,3.8261,2.6435,-0.1391
2445,-0.115,5.9396,-7.8173,3.7565,2.6435,0.0696
2450,-0.1533,6.0163,-7.8557,3.8957,2.6435,0.3478
2455,-0.1533,5.9396,-7.894,3.8261,2.713,0.8348
2460,-0.1533,6.1313,-8.0089,3.8261,2.8522,1.113
2465,-0.115,6.1313,-8.0089,3.7565,2.9217,1.4609
2470,-0.2682,6.0929,-7.9323,3.4087,2.9217,1.4609
2475,0.0,6.0546,-7.9706,2.9217,2.8522,1.4609
2480,-0.1916,6.0546,-8.0473,2.4348,2.9217,1.4609
2485,-0.1533,5.978,-7.9706,2.087,2.9217,1.3217
2490,-0.115,6.0546,-8.0089,1.6696,3.0609,1.1826
2495,-0.1533,6.0163,-8.0473,1.4609,3.1304,1.0435
2500,-0.115,6.1696,-7.9706,1.4609,3.0609,1.0435
2505,-0.2682,6.1313,-8.0856,1.6,3.1304,1.0435
2510,-0.1533,6.0546,-8.0089,1.8087,3.2,0.9739
2515,-0.0383,6.0163,-8.0089,1.8783,3.1304,1.0435
2520,-0.3449,6.1313,-8.0089,1.8783,3.1304,1.113
2525,-0.2299,6.0163,-8.0089,2.0174,3.1304,1.113
2530,-0.115,6.0163,-8.0089,1.8783,3.2,1.0435
2535,-0.0383,5.863,-8.0089,1.7391,3.2,0.9739
2540,-0.1916,5.978,-8.0473,1.4609,3.0609,0.9739
2545,-0.2682,5.863,-8.0473,1.2522,3.0609,1.0435
2550,-0.1916,5.9013,-8.0089,1.1826,3.1304,1.0435
2555,-0.2682,5.978,-8.0473,1.0435,3.1304,1.0435
2560,-0.2299,5.9013,-7.9323,1.0435,3.1304,1.2522
2565,-0.2682,5.863,-8.0089,0.9739,3.2,1.2522
2570,-0.0766,5.9013,-8.0089,1.113,3.2,1.3217
2575,-0.3066,5.9013,-7.8173,1.1826,3.2,1.3217
2580,-0.2299,5.7864,-8.0473,1.3217,3.2696,1.5304
2585,-0.0383,5.8247,-8.0089,1.4609,3.4087,1.6696
2590,-0.1533,5.9396,-7.9323,1.7391,3.4783,1.6696
2595,0.0,5.9013,-8.0089,1.8783,3.6174,1.7391
2600,-0.0383,5.8247,-7.9323,2.1565,3.5478,1.8087
2605,-0.0766,5.8247,-7.9706,2.2261,3.6174,1.8087
2610,-0.1533,5.7097,-7.9706,2.3652,3.7565,1.8087
2615,-0.1533,5.9396,-7.9706,2.3652,3.8957,1.7391
2620,-0.1533,5.748,-7.894,2.4348,3.8261,1.6696
2625,-0.1916,5.7864,-7.8557,2.5043,4.1043,1.5304
2630,-0.2682,6.0163,-7.894,2.5043,4.1043,1.5304
2635,-0.3066,5.8247,-7.9323,2.4348,4.0348,1.3217
2640,-0.2682,5.9396,-7.8173,2.2957,3.9652,1.1826
2645,-0.115,5.863,-8.0856,2.3652,3.8261,1.113
2650,-0.3066,6.0163,-7.9706,2.2957,3.8261,0.8348
2655,-0.1533,5.8247,-8.0089,2.2957,3.8261,0.6957
2660,-0.2299,5.863,-8.0089,2.2957,3.9652,0.5565
2665,-0.0766,5.8247,-7.9323,2.2261,4.1043,0.487
2670,-0.0383,5.7864,-7.9323,2.2957,4.313,0.4174
2675,-0.0383,5.7864,-7.8557,2.2261,4.3826,0.4174
2680,-0.1916,5.7097,-8.0856,2.4348,4.5217,0.5565
2685,-0.2299,5.863,-8.0473,2.6435,4.7304,0.6261
2690,-0.1533,5.8247,-8.1622,2.9913,4.8696,0.5565
2695,-0.1916,5.8247,-8.0856,3.2,4.8696,0.7652
2700,-0.1533,5.9013,-8.0856,3.5478,4.9391,0.7652
2705,-0.2299,5.863,-8.0856,3.9652,4.9391,0.8348
2710,-0.1533,5.9013,-8.0473,4.313,5.0087,0.8348
2715,-0.1916,5.978,-8.0089,4.5217,5.0087,0.8348
2720,-0.0383,5.9013,-8.0089,4.5913,5.0783,0.6957
2725,-0.1533,6.0163,-8.0856,4.3826,5.2174,0.5565
2730,-0.0766,5.8247,-8.0089,4.2435,5.287,0.5565
2735,-0.1533,5.7864,-8.0856,4.1043,5.3565,0.5565
2740,-0.115,5.9013,-8.1622,3.8957,5.287,0.6957
2745,-0.1533,5.748,-8.1622,3.8957,5.287,0.6261
2750,-0.2299,5.9013,-7.9706,3.8957,5.1478,0.5565
2755,-0.2299,5.9396,-8.1239,4.0348,5.0087,0.487
2760,-0.1916,5.9013,-8.1622,4.2435,4.9391,0.487
2765,-0.1916,5.9396,-8.0473,4.3826,4.9391,0.4174
2770,-0.3066,5.9013,-8.0856,4.5913,4.8696,0.3478
2775,-0.1533,5.9013,-8.0473,4.7304,4.7304,0.2783
2780,-0.3449,5.863,-8.0856,4.8696,4.7304,0.2087
2785,-0.1916,5.7097,-8.1622,5.0783,4.6609,-0.0696
2790,-0.3449,5.8247,-8.0856,5.2174,4.7304,-0.2087
2795,-0.2682,5.7864,-8.0856,5.4261,4.7304,-0.487
2800,-0.2682,5.7097,-8.0089,5.5652,4.6609,-0.5565
2805,-0.1916,5.6714,-8.0856,5.7043,4.5913,-0.7652
2810,-0.1916,5.748,-8.0856,5.8435,4.5217,-0.7652
2815,-0.3066,5.748,-8.0856,5.913,4.313,-0.9739
2820,-0.115,5.5564,-8.1622,6.0522,4.313,-0.7652
2825,-0.1916,5.7097,-8.1239,6.1913,4.1739,-0.6957
2830,-0.1533,5.6714,-8.0473,6.3304,4.2435,-0.7652
2835,-0.2299,5.6714,-8.1622,6.5391,4.3826,-0.6957
2840,-0.115,5.7864,-8.2389,6.9565,4.4522,-0.7652
2845,-0.2299,5.6331,-8.0856,7.3739,4.3826,-0.6261
2850,-0.1533,5.6714,-8.0856,7.9304,4.313,-0.487
2855,-0.0383,5.5564,-8.1622,8.4174,4.313,-0.487
2860,-0.0766,5.6714,-8.1239,8.9043,4.3826,-0.487
2865,-0.2299,5.5948,-8.2389,9.5304,4.2435,-0.487
2870,-0.1916,5.7097,-8.2772,9.8783,4.1739,-0.5565
2875,-0.0766,5.6331,-8.2772,10.2957,4.2435,-0.6261
2880,-0.1533,5.6331,-8.3155,10.713,4.2435,-0.7652
2885,-0.0766,5.4798,-8.3155,10.9217,4.313,-0.8348
2890,-0.115,5.7097,-8.2005,11.4087,4.2435,-0.9043
2895,-0.115,5.863,-8.2772,11.7565,4.1739,-0.9043
2900,-0.0766,5.6331,-8.3538,12.1739,4.313,-0.8348
2905,-0.1916,5.6331,-8.3155,12.4522,4.2435,-0.9043
2910,0.0,5.7864,-8.3155,12.8,4.1739,-0.8348
2915,-0.0383,5.6714,-8.2389,13.0783,4.1043,-0.7652
2920,-0.1533,5.6331,-8.2389,13.287,3.9652,-0.6261
2925,-0.0766,5.6331,-8.2005,13.4261,3.8957,-0.4174
2930,-0.115,5.6714,-8.3155,13.4261,3.9652,-0.3478
2935,-0.0383,5.5948,-8.3155,13.5652,3.9652,-0.2783
2940,-0.0766,5.5181,-8.2772,13.5652,4.0348,-0.2087
2945,-0.1533,5.6714,-8.2772,13.7043,4.1043,0.0
2950,-0.115,5.5564,-8.2389,13.9826,4.313,0.1391
2955,-0.115,5.6714,-8.3155,14.3304,4.4522,0.1391
2960,-0.0766,5.5948,-8.2772,14.5391,4.4522,0.0
2965,-0.2299,5.5948,-8.3538,14.8174,4.5913,0.0
2970,-0.115,5.5564,-8.4305,15.0261,4.5913,-0.2087
2975,-0.1533,5.5564,-8.2389,15.1652,4.5913,-0.4174
2980,-0.2299,5.4798,-8.2005,15.2348,4.4522,-0.487
2985,-0.2682,5.3648,-8.2005,15.4435,4.3826,-0.7652
2990,-0.3066,5.4032,-8.2005,15.6522,4.3826,-0.9739
2995,-0.2682,5.4032,-8.2005,15.8609,4.3826,-1.113
