timestamp,accX,accY,accZ,gyroX,gyroY,gyroZ
0,2.3759,-9.5418,0.5748,11.4783,19.0609,-20.7304
5,2.4525,-9.3885,0.6514,12.1043,20.2435,-21.3565
10,2.4908,-9.4651,0.5748,12.3826,21.6348,-21.7739
15,2.4908,-9.4268,0.6898,12.4522,22.9565,-22.0522
20,2.4142,-9.3885,0.7281,12.0348,24.0696,-22.3304
25,2.5675,-9.2735,0.843,11.0609,25.113,-22.6783
30,2.4908,-9.3502,0.7664,9.7391,25.8087,-22.887
35,2.4525,-9.3118,0.8047,8.0,26.2261,-22.8174
40,2.2992,-9.2735,0.8047,5.9826,26.9913,-22.6087
45,2.2226,-9.3118,0.8814,3.9652,27.9652,-22.3304
50,2.3759,-9.4268,0.7281,2.087,28.8696,-21.9826
55,2.1459,-9.5801,1.073,0.5565,30.1913,-22.1217
60,2.1843,-9.7717,0.8814,-0.5565,31.7913,-22.0522
65,2.031,-9.8483,0.7281,-1.6,33.2522,-21.8435
70,2.1076,-9.925,0.7281,-2.2957,34.6435,-21.5652
75,2.1843,-10.0782,0.8047,-2.713,35.687,-20.9391
80,1.9543,-9.9633,1.0346,-2.8522,36.1043,-20.3826
85,2.2226,-10.0399,0.7281,-3.3391,35.6174,-19.2696
90,2.1843,-10.0016,0.843,-3.6174,35.0609,-18.9913
95,2.1459,-10.1166,1.0346,-3.5478,34.2957,-18.087
100,2.3759,-10.0782,0.843,-3.4783,33.4609,-17.4609
105,2.1843,-9.81,0.958,-2.7826,33.3217,-17.3217
110,1.9927,-9.7334,1.073,-2.4348,32.6957,-16.2783
115,2.2609,-9.8483,1.0346,-2.5739,30.8174,-14.6783
120,2.1843,-9.6567,0.9197,-2.2957,29.913,-14.6783
125,1.9543,-9.5801,1.1113,-2.5043,28.8696,-14.4
130,2.2609,-9.6184,0.9963,-3.1304,27.2696,-14.1217
135,1.7627,-9.3885,1.1113,-3.4783,26.8522,-14.6087
140,1.8777,-9.5418,1.073,-3.8957,26.2957,-14.4696
145,1.9543,-9.5034,1.1113,-4.7304,25.4609,-14.2609
150,2.1459,-9.4651,0.9963,-5.287,24.5565,-14.3304
155,2.4525,-9.695,1.1113,-5.4261,25.113,-14.8174
160,2.0693,-9.3885,1.1113,-5.7739,26.5739,-15.513
165,2.1843,-9.5418,1.1496,-6.4696,26.7826,-15.0957
170,1.8394,-9.3502,1.1113,-6.887,26.9913,-14.6783
175,2.4525,-9.6567,1.1879,-7.3043,26.2957,-13.7739
180,2.0693,-9.6567,1.1879,-7.513,27.1304,-13.8435
185,2.0693,-9.4268,1.1496,-7.7217,27.4783,-13.2174
190,2.2226,-9.695,1.073,-7.7913,27.2,-11.9652
195,2.4525,-9.5801,1.073,-7.9304,27.4783,-11.8957
200,2.1843,-9.6184,1.1496,-8.0696,28.6609,-12.313
205,2.1843,-9.4651,1.3029,-8.1391,28.7304,-11.687
210,2.1459,-9.4651,1.0346,-8.1391,28.5217,-10.8522
215,2.4908,-9.6567,0.9963,-8.5565,27.6174,-9.6696
220,2.2992,-9.5418,0.843,-9.0435,27.6174,-10.2957
225,2.4908,-9.695,0.843,-9.5304,27.6174,-10.4348
230,2.4142,-9.5418,0.8047,-9.1826,28.0348,-10.9913
235,2.4525,-9.5801,0.9197,-8.9739,28.4522,-11.3391
240,2.2226,-9.7334,0.7281,-8.8348,29.0783,-11.8261
245,1.8777,-9.5034,0.843,-8.9739,29.4957,-12.2435
250,2.3375,-9.5418,0.8814,-8.8348,29.2174,-11.5478
255,2.1076,-9.6567,0.8047,-8.487,28.5913,-11.1304
260,2.3759,-9.6184,0.7281,-8.3478,28.1043,-10.9217
265,2.1459,-9.7334,0.843,-8.2087,27.7565,-10.9217
270,2.1459,-9.7334,0.6131,-7.2348,26.9913,-10.4348
275,2.0693,-9.5034,0.7664,-6.2609,26.087,-9.1826
280,2.2609,-9.6184,0.6131,-5.4957,24.7652,-8.0
285,2.3375,-9.5034,0.5365,-5.2174,24.0696,-7.4435
290,2.1459,-9.5801,0.6898,-5.6348,24.0,-7.4435
295,2.1843,-9.3885,0.6898,-6.2609,23.7913,-7.3739
300,2.4908,-9.695,0.7664,-6.4696,23.9304,-6.9565
305,2.1076,-9.4268,0.7281,-6.1913,24.0696,-6.6087
310,2.3759,-9.6567,0.7664,-6.0522,23.2348,-5.7739
315,2.2609,-9.6184,0.8047,-5.7739,23.0957,-5.2174
320,2.1459,-9.4651,0.6898,-5.4957,22.6087,-4.7304
325,1.9543,-9.2735,0.7664,-5.4261,22.0522,-4.1739
330,1.916,-9.3885,0.8047,-5.287,21.0087,-3.4087
335,2.1076,-9.4651,0.7281,-5.0783,19.7565,-2.9913
340,1.9927,-9.3118,0.8047,-4.8696,18.5739,-2.8522
345,1.8394,-9.3885,0.6131,-4.3826,17.2522,-2.2957
350,1.9927,-9.5418,0.8047,-4.1739,15.6522,-1.7391
355,2.0693,-9.5418,0.8047,-4.0348,13.8435,-0.9739
360,2.1843,-9.5418,0.958,-3.6174,12.1739,-0.2783
365,2.1459,-9.6184,1.0346,-2.6435,10.7826,0.2087
370,2.3759,-9.5801,0.7664,-2.0174,9.6,0.6957
375,2.1843,-9.2735,1.073,-1.8783,9.113,0.9043
380,2.1076,-9.3885,0.9963,-1.9478,8.5565,0.7652
385,2.1076,-9.4268,0.9197,-2.1565,7.9304,0.9043
390,2.3375,-9.4651,1.073,-2.6435,7.7217,0.9043
395,2.2609,-9.5418,1.1113,-3.1304,7.8609,0.6261
400,2.2992,-9.4268,1.1113,-3.2696,8.0,0.5565
405,2.3759,-9.4268,1.073,-3.2696,8.2087,0.6957
410,2.2226,-9.3885,1.1113,-3.4783,8.487,1.113
415,2.4142,-9.3502,0.9963,-3.6174,8.5565,1.5304
420,2.5291,-9.3118,0.8047,-3.8957,8.7652,1.8087
425,2.2609,-9.4651,1.1113,-4.313,8.5565,2.1565
430,2.0693,-9.3885,0.9963,-5.0783,8.0696,2.3652
435,2.1076,-9.3502,1.1879,-5.6348,7.8609,2.8522
440,2.031,-9.4651,1.073,-6.2609,8.1391,3.4783
445,2.0693,-9.3885,1.3412,-6.8174,8.0,3.8261
450,1.9543,-9.5034,1.3795,-7.9304,7.513,3.8957
455,1.916,-9.4268,1.3795,-8.8348,6.887,4.3826
460,1.9543,-9.5801,1.5328,-9.7391,6.2609,4.8696
465,2.2609,-9.6184,1.4945,-10.6435,5.4957,5.4261
470,2.3759,-9.4268,1.4562,-11.5478,5.0783,5.9826
475,2.4525,-9.3502,1.5711,-12.5217,5.2174,6.1217
480,2.4142,-9.3502,1.5328,-13.287,5.4261,6.3304
485,2.5291,-9.4268,1.3029,-13.6348,5.9826,6.6783
490,2.4908,-9.6184,1.4945,-14.0522,6.4696,6.8174
495,2.5291,-9.6567,1.5328,-13.913,6.6783,7.0261
500,2.4908,-9.6184,1.4179,-13.7043,6.887,7.3043
505,2.4142,-9.8483,1.2646,-13.4957,7.1652,7.9304
510,2.4525,-9.9633,1.2263,-13.0087,7.513,8.5565
515,2.4525,-9.9633,1.4562,-12.4522,7.5826,9.113
520,2.4142,-10.0782,1.4179,-11.6174,7.9304,9.5304
525,2.2226,-10.1166,1.3412,-10.7826,8.2783,9.9478
530,2.0693,-10.0016,1.3412,-9.9478,8.6261,10.8522
535,1.9927,-10.0016,1.1113,-8.8348,9.1826,11.9652
540,1.916,-9.8483,1.1879,-7.8609,9.9478,13.1478
545,1.8394,-9.8483,1.0346,-6.8174,10.6435,14.0522
550,1.7627,-9.7717,0.8047,-5.913,10.9913,14.6783
555,1.6095,-9.4651,0.8047,-5.8435,11.2,15.3739
560,1.6861,-9.3885,0.6898,-6.1217,11.5478,15.9304
565,1.5711,-9.3118,0.4598,-6.3304,12.313,16.3478
570,1.4945,-9.1969,0.4598,-6.6087,12.9391,16.487
575,1.6095,-9.1969,0.4982,-6.8174,13.4261,16.5565
580,1.5711,-9.2735,0.3832,-6.9565,13.7739,16.5565
585,1.6095,-9.3502,0.3066,-7.1652,13.9826,16.487
590,1.6861,-9.5418,0.2299,-7.4435,13.2174,16.0696
595,1.7244,-9.5418,0.1533,-7.7913,12.1739,15.6522
600,1.5711,-9.6567,0.0766,-8.0696,11.0609,15.3739
605,1.6478,-9.7717,-0.0383,-8.3478,10.2261,15.3739
610,1.6478,-9.81,-0.1533,-8.6957,9.7391,15.4435
615,1.6478,-9.81,-0.115,-8.8348,9.3913,15.7217
620,1.8011,-9.8483,-0.0383,-8.2783,8.6957,16.2087
625,1.6861,-9.6184,-0.115,-7.5826,7.7913,16.6957
630,1.7627,-9.5418,-0.0766,-7.3043,6.8174,17.2522
635,1.6095,-9.4651,0.0,-7.1652,6.0522,17.6
640,1.4945,-9.3118,0.0,-7.2348,5.287,17.8087
645,1.3795,-9.2735,0.0,-7.7217,4.8,18.0174
650,1.4945,-9.2352,0.0383,-8.4174,4.0348,18.1565
655,1.5328,-9.2735,0.2299,-9.6,3.3391,18.2261
660,1.2646,-9.2352,0.1533,-10.9913,2.8522,18.087
665,1.4562,-9.2735,0.4215,-12.3826,2.5739,17.9478
670,1.4179,-9.3885,0.4215,-14.3304,2.713,17.8783
675,1.5328,-9.4651,0.5365,-16.5565,2.9217,17.6
680,1.5711,-9.4268,0.6514,-18.6435,3.4087,17.1826
685,1.7627,-9.6567,0.7281,-21.1478,3.7565,16.9739
690,1.8777,-9.6567,0.5365,-23.0957,4.4522,17.113
695,1.7627,-9.7717,0.6514,-24.4174,4.9391,17.1826
700,1.7627,-9.7717,0.958,-25.3913,5.0087,16.9739
705,2.031,-9.9633,0.6898,-26.0174,4.5217,16.9739
710,2.031,-10.2315,0.6131,-25.8783,3.8957,17.1826
715,1.9543,-10.4998,0.8047,-25.2522,3.2,17.5304
720,1.9927,-10.5381,0.8814,-24.3478,2.713,17.8783
725,2.0693,-10.4998,0.8814,-23.0957,2.3652,18.2957
730,2.031,-10.5764,0.8047,-21.6348,1.9478,18.5739
735,1.9927,-10.4231,0.7664,-20.6609,1.8783,18.8522
740,1.6478,-10.1932,0.8047,-19.9652,1.8087,19.2
745,1.9927,-10.1932,0.8047,-19.0609,1.4609,19.4087
750,1.8011,-9.925,0.7281,-18.2261,1.1826,19.7565
755,1.7627,-9.8483,0.6898,-17.2522,0.9043,19.8957
760,1.7627,-9.8483,0.8814,-16.6261,0.9739,20.2435
765,1.6861,-9.81,0.843,-16.3478,1.3913,20.5217
770,1.5711,-9.7334,0.7281,-16.5565,2.2261,21.0783
775,1.5328,-9.81,0.7281,-16.9739,3.6174,21.6348
780,1.4945,-9.7717,0.4598,-17.3913,5.4261,21.9826
785,1.4945,-9.8866,0.3449,-17.5304,6.9565,22.1913
790,1.4945,-9.8866,0.4215,-17.6,7.8609,22.1217
795,1.0346,-10.5381,0.2299,-17.6696,7.9304,21.7043
800,1.3029,-10.1166,0.5748,-17.3217,7.3739,21.0783
805,1.3412,-10.0782,0.4982,-16.6261,6.6783,20.3826
810,1.1113,-10.1549,0.4215,-15.4435,5.7739,19.5478
815,1.1496,-10.3465,0.4215,-13.8435,4.8696,19.0609
820,1.3029,-10.2698,0.1916,-12.1043,4.1043,18.5739
825,1.1113,-10.1166,0.2299,-10.713,3.4783,17.8783
830,0.843,-10.0782,0.2299,-9.8783,3.0609,17.3217
835,1.2263,-10.0016,0.1533,-9.5304,2.2261,17.0435
840,1.073,-9.8483,-0.0383,-9.3913,1.8783,16.5565
845,1.073,-9.5801,0.3832,-9.6696,1.6,16.3478
850,1.073,-9.3502,0.0383,-10.2261,1.6,16.6261
855,1.2263,-9.3502,0.0,-10.7826,1.7391,17.0435
860,1.1879,-9.3118,-0.1533,-11.4087,2.2957,17.2522
865,0.9963,-9.2735,-0.2682,-12.3826,3.2,17.6
870,1.0346,-9.3502,-0.3066,-13.4957,4.2435,18.0174
875,1.0346,-9.4268,-0.5365,-14.2609,5.3565,18.087
880,0.6898,-9.6184,-0.4215,-14.6783,6.1913,18.0174
885,0.6131,-9.6567,-0.3066,-14.5391,6.4696,18.0174
890,0.5365,-9.925,-0.3066,-13.9826,6.1217,17.8087
895,0.1533,-9.8866,-0.2682,-13.5652,5.287,17.1826
900,0.115,-9.9633,-0.2299,-13.3565,4.0348,16.7652
905,0.2682,-10.0782,-0.3449,-13.3565,3.0609,16.2783
910,0.3066,-10.0782,-0.5748,-13.1478,2.4348,15.4435
915,0.3449,-10.0782,-0.1916,-12.8,2.087,14.7478
920,0.3066,-9.9633,-0.4982,-12.4522,1.6,14.4696
925,0.5748,-9.8483,-0.4598,-12.1043,0.8348,14.2609
930,0.5748,-9.81,-0.5748,-12.3826,0.1391,14.2609
935,0.5365,-9.5801,-0.5365,-12.8696,-0.6957,14.2609
940,0.6514,-9.4651,-0.4215,-13.4957,-1.5304,14.2609
945,0.5365,-9.4268,-0.2682,-14.5391,-2.2957,14.1913
950,0.4598,-9.5034,-0.1916,-15.4435,-3.2696,14.6783
955,0.5748,-9.6184,-0.1533,-16.1391,-4.5217,15.2348
960,0.5365,-9.7334,-0.0766,-16.5565,-5.6348,15.513
965,0.4598,-9.7334,-0.115,-16.9739,-6.5391,15.7217
970,0.4982,-9.81,-0.1916,-17.3913,-7.1652,15.7913
975,0.3449,-9.8866,-0.0383,-17.9478,-7.5826,15.513
980,0.3066,-9.8483,0.115,-18.4348,-7.5826,15.3043
985,0.4982,-10.0399,-0.0383,-18.8522,-7.3739,14.887
990,0.5748,-10.1932,0.0383,-19.2696,-6.9565,14.1217
995,0.4215,-10.2315,0.115,-19.4783,-6.4696,13.2174
1000,0.6131,-10.1549,0.0383,-19.687,-6.1913,12.4522
1005,0.6131,-10.3082,-0.0383,-19.8261,-6.1913,11.687
1010,0.4598,-10.1166,0.0383,-19.687,-6.4,10.9217
1015,0.5748,-10.2315,-0.1533,-19.5478,-6.887,10.5739
1020,0.6514,-9.9633,-0.115,-19.6174,-7.0957,10.0174
1025,0.6131,-10.0016,0.0383,-20.313,-6.7478,9.5304
1030,0.4215,-10.0399,0.2682,-21.4261,-6.1913,9.6
1035,0.4598,-9.8866,0.1916,-22.4696,-5.6348,9.6
1040,0.3066,-9.9633,0.2682,-23.2348,-4.9391,9.5304
1045,0.3832,-10.0782,0.3066,-23.7913,-4.1739,9.6
1050,0.4598,-10.0399,0.2299,-24.2087,-3.6174,10.0174
1055,0.4215,-9.9633,0.1916,-24.6261,-3.3391,10.5043
1060,0.3832,-9.925,0.3066,-25.0435,-3.2,10.9913
1065,0.3832,-10.0016,0.3066,-25.4609,-3.0609,11.4087
1070,0.2682,-10.0016,0.2299,-25.6,-3.1304,11.6174
1075,0.2299,-10.0016,0.0,-25.8087,-3.2696,11.9652
1080,0.2682,-10.0016,0.2299,-26.0174,-3.2,11.8957
1085,0.1916,-10.0782,0.0766,-26.2261,-2.713,11.6174
1090,0.115,-10.0016,0.2299,-26.3652,-2.3652,11.0609
1095,0.2682,-10.0782,0.0,-26.5739,-2.2957,10.5043
1100,0.115,-9.9633,0.0766,-26.9913,-2.5739,10.087
1105,0.115,-9.925,-0.1916,-27.2,-2.8522,9.6
1110,0.115,-9.81,-0.3066,-27.687,-2.9217,9.0435
1115,0.115,-9.81,0.0,-28.4522,-2.9913,8.9043
1120,0.3066,-9.81,-0.3066,-29.0087,-3.0609,9.113
1125,0.3066,-9.81,-0.0766,-29.5652,-2.9217,9.2522
1130,0.3066,-9.7717,-0.3066,-30.1217,-2.713,9.6696
1135,0.3832,-9.81,-0.3832,-30.5391,-2.5043,9.9478
1140,0.3832,-9.7717,-0.3832,-31.1652,-2.2957,10.087
1145,0.4598,-9.925,-0.4598,-31.8609,-2.1565,10.4348
1150,0.3449,-9.81,-0.3832,-32.6261,-2.1565,10.7826
1155,0.4982,-9.7717,-0.4982,-33.4609,-2.2957,11.2696
1160,0.4215,-9.81,-0.4215,-33.9478,-2.0174,11.8957
1165,0.3449,-9.8866,-0.4982,-34.2261,-1.8087,12.313
1170,0.3832,-9.8483,-0.5365,-34.6435,-1.6,12.8
1175,0.4598,-9.7717,-0.5748,-35.1304,-1.4609,13.2174
1180,0.4215,-9.7717,-0.843,-35.4087,-0.9739,13.5652
1185,0.5365,-9.7717,-0.7664,-35.6174,-0.2783,13.7739
1190,0.3449,-9.81,-0.8814,-35.7565,0.2087,13.7739
1195,0.3832,-9.8483,-0.7281,-36.0348,0.2783,13.7043
1200,0.4215,-9.81,-0.7664,-36.1739,0.3478,13.7739
1205,0.1916,-9.925,-0.7664,-36.3826,0.3478,13.7043
1210,0.3066,-10.0399,-0.8814,-36.4522,0.0,14.0522
1215,0.1916,-9.9633,-0.9963,-36.313,-0.0696,14.4
1220,0.1916,-10.0399,-0.958,-36.3826,0.0696,14.6783
1225,0.1533,-10.1549,-1.0346,-36.313,0.0696,14.9565
1230,0.0766,-10.0399,-1.1113,-36.1739,-0.2087,15.0261
1235,0.1916,-10.1549,-1.073,-35.7565,-0.487,15.0957
1240,0.0383,-10.1166,-0.958,-35.2696,-0.8348,15.0261
1245,0.1916,-10.2315,-1.2263,-34.9217,-0.9043,14.9565
1250,0.115,-10.1549,-1.1113,-34.6435,-1.113,14.887
1255,0.1533,-10.0016,-1.1879,-34.1565,-1.3913,14.8174
1260,0.2682,-9.8866,-1.2263,-34.2261,-1.3913,14.7478
1265,0.2299,-9.925,-1.3795,-34.6435,-1.2522,14.6783
1270,0.1533,-9.9633,-1.4562,-35.2696,-0.9043,14.7478
1275,0.2299,-9.9633,-1.2646,-35.8957,-0.3478,14.8174
1280,0.2682,-10.0782,-1.3795,-36.313,0.0696,15.0261
1285,0.2299,-10.0016,-1.3412,-36.3826,0.4174,15.1652
1290,0.2682,-10.1166,-1.4562,-36.313,0.6957,15.4435
1295,0.3066,-10.0399,-1.4562,-36.313,0.9043,15.6522
1300,0.2682,-10.1166,-1.4562,-36.1739,1.113,15.9304
1305,0.115,-9.9633,-1.4179,-35.8261,1.2522,16.3478
1310,0.1916,-10.1549,-1.6478,-35.687,1.5304,16.7652
1315,0.0766,-10.0399,-1.5711,-35.5478,1.7391,17.113
1320,0.0766,-10.1166,-1.4945,-35.4783,2.0174,17.6696
1325,0.0766,-10.0016,-1.6478,-35.5478,2.2957,18.087
1330,0.0383,-9.9633,-1.7627,-35.687,2.4348,18.4348
1335,-0.0766,-10.0782,-1.6478,-35.687,2.5043,18.713
1340,-0.1533,-10.1549,-1.8394,-35.4783,2.4348,18.8522
1345,-0.2299,-10.0782,-1.6861,-35.2696,2.1565,18.8522
1350,-0.2299,-10.0399,-1.8394,-34.9913,1.8087,18.9913
1355,-0.2299,-10.0399,-1.9543,-34.7826,1.6,19.1304
1360,-0.0766,-10.1932,-1.7627,-34.713,1.6,19.1304
1365,-0.2682,-10.0016,-1.6478,-34.713,1.6696,19.0609
1370,-0.115,-9.9633,-1.916,-34.9217,1.8087,18.9913
1375,-0.1916,-9.9633,-2.031,-35.4783,2.087,18.8522
1380,0.0,-9.8483,-1.9543,-36.0348,2.4348,18.713
1385,0.0,-10.0782,-1.9543,-36.5217,2.9913,18.9217
1390,0.0,-9.9633,-2.0693,-36.8,3.4087,19.1304
1395,0.0,-9.9633,-2.0693,-37.0783,3.8957,19.1304
1400,-0.0766,-9.8483,-1.9927,-37.287,4.313,19.2
1405,0.0,-9.925,-1.916,-37.9826,4.6609,19.4087
1410,-0.3066,-9.7717,-2.031,-38.4696,5.0783,19.4783
1415,-0.1533,-9.81,-2.031,-38.8174,5.6348,19.4783
1420,-0.1916,-9.81,-2.031,-39.1652,6.2609,19.5478
1425,-0.2299,-9.8483,-2.0693,-39.3739,6.5391,19.4087
1430,-0.3066,-9.81,-2.1459,-39.7217,6.7478,19.4087
1435,-0.4215,-9.8483,-2.1459,-40.0,6.9565,19.4783
1440,-0.4598,-9.9633,-2.031,-40.2087,7.0957,19.687
1445,-0.4598,-10.0399,-2.3759,-40.1391,7.0261,19.8261
1450,-0.8047,-10.0016,-2.3759,-40.2783,7.0957,20.1043
1455,-0.6514,-10.1549,-2.2609,-40.4174,7.3043,20.3826
1460,-0.6514,-10.0782,-2.2992,-40.4174,7.2348,20.4522
1465,-0.4982,-10.1166,-2.4908,-40.6261,7.3043,20.5217
1470,-0.8047,-9.9633,-2.3375,-40.6957,7.4435,20.5913
1475,-0.8047,-9.925,-2.4142,-40.7652,7.513,20.7304
1480,-0.7281,-9.8866,-2.5291,-40.6957,7.7913,20.8696
1485,-0.6898,-9.8866,-2.5291,-40.8348,8.2087,21.2174
1490,-0.843,-9.7334,-2.5675,-41.2522,8.7652,21.4957
1495,-0.6131,-9.7334,-2.6058,-41.6,9.3913,21.7739
1500,-0.4982,-9.7717,-2.5675,-42.0174,9.9478,21.913
1505,-0.6131,-9.7717,-2.7591,-42.5739,10.2261,22.2609
1510,-0.843,-9.8483,-2.7591,-42.9913,10.3652,22.8174
1515,-0.8814,-9.81,-2.7207,-43.8957,10.1565,23.5826
1520,-0.8814,-9.9633,-2.989,-45.0783,9.7391,24.4174
1525,-1.1496,-9.8483,-3.0273,-45.8435,9.5304,25.3217
1530,-1.2263,-9.8866,-2.989,-46.5391,9.1826,26.2261
1535,-1.1496,-9.925,-3.0656,-46.6087,8.8348,26.9913
1540,-1.2263,-9.9633,-3.0656,-46.2609,8.6261,27.4783
1545,-1.2646,-9.925,-2.9123,-45.5652,8.487,27.4783
1550,-1.2646,-9.925,-2.989,-44.8696,7.9304,27.5478
1555,-1.3412,-9.8866,-2.9123,-43.9652,7.1652,27.6174
1560,-1.3029,-9.8483,-3.0273,-43.3391,6.3304,27.6174
1565,-1.2646,-9.7717,-3.0273,-43.2,5.4957,27.4783
1570,-1.3412,-9.7334,-2.9123,-43.4087,4.8696,27.6174
1575,-1.2646,-9.6567,-3.1039,-43.8957,4.0348,27.6174
1580,-1.2263,-9.5801,-2.9123,-44.8,3.5478,27.4087
1585,-1.3029,-9.5034,-3.1423,-46.0522,2.9913,27.3391
1590,-1.3795,-9.5418,-3.1423,-47.4435,2.1565,27.2
1595,-1.3029,-9.5034,-3.1423,-48.5565,1.3913,26.713
1600,-1.2646,-9.4268,-3.1806,-49.3217,0.4174,26.2957
1605,-1.7627,-9.5418,-2.874,-49.9478,-0.4174,25.8783
1610,-1.1496,-9.3885,-3.2955,-50.2261,-1.3217,25.3217
1615,-1.1879,-9.3885,-3.0273,-50.6435,-1.9478,24.8348
1620,-1.0346,-9.5418,-3.1806,-51.2,-2.4348,24.4174
1625,-1.1496,-9.4268,-3.6021,-51.687,-2.7826,23.9304
1630,-0.9963,-9.3885,-3.5255,-52.2435,-2.713,23.2348
1635,-1.073,-9.3118,-3.7171,-52.6609,-2.2957,22.5391
1640,-0.9197,-9.5034,-3.6787,-53.0783,-1.8783,21.7739
1645,-1.0346,-9.3502,-3.8704,-53.5652,-1.3913,21.1478
1650,-0.958,-9.4651,-3.8704,-53.8435,-0.7652,20.7304
1655,-0.7664,-9.1202,-3.5638,-54.0522,-0.3478,20.6609
1660,-1.073,-9.6184,-3.7171,-54.1217,-0.2783,20.5913
1665,-1.073,-9.6567,-3.6787,-53.8435,-0.2783,20.6609
1670,-1.1113,-9.6567,-3.5638,-53.287,-0.487,21.0087
1675,-1.3412,-9.6184,-3.7171,-52.9391,-0.6261,21.5652
1680,-1.2263,-9.6184,-3.832,-52.9391,-0.7652,22.2609
1685,-1.4179,-9.5034,-3.8704,-53.2174,-0.7652,22.9565
1690,-1.5711,-9.5418,-3.8704,-53.6348,-0.8348,23.7913
1695,-1.7627,-9.5034,-4.1386,-53.9826,-0.9043,24.2783
1700,-1.6478,-9.5418,-4.1003,-54.4,-0.9043,25.113
1705,-1.7244,-9.5418,-4.2919,-54.6783,-0.7652,25.8087
1710,-1.8011,-9.3885,-4.3302,-55.0957,-0.487,26.2957
1715,-1.6478,-9.5418,-4.4452,-55.3043,-0.2087,26.9217
1720,-1.8394,-9.4651,-4.4068,-55.5826,0.3478,27.4087
1725,-1.8777,-9.4651,-4.4452,-56.0,0.9739,27.9652
1730,-1.916,-9.4268,-4.5218,-56.6261,1.5304,28.313
1735,-1.916,-9.3885,-4.8284,-57.6,2.1565,28.313
1740,-1.8777,-9.4651,-4.5984,-59.0609,2.6435,28.4522
1745,-1.9543,-9.6567,-4.6368,-60.2435,2.7826,28.3826
1750,-1.9543,-9.695,-4.4835,-60.6609,2.8522,28.1739
1755,-2.031,-9.7717,-4.3685,-60.313,2.713,28.0348
1760,-2.0693,-9.8483,-4.1769,-59.3391,2.5739,27.9652
1765,-1.916,-9.8866,-4.3302,-57.8783,2.6435,27.7565
1770,-1.9927,-9.81,-4.3302,-56.2087,3.0609,27.6174
1775,-1.9543,-9.81,-4.5218,-55.0957,3.7565,27.687
1780,-1.8394,-9.8866,-4.4452,-55.0261,4.7304,27.8957
1785,-1.9543,-9.8483,-4.4835,-55.9304,5.6348,28.4522
1790,-1.7627,-9.8483,-4.5984,-57.3913,6.1217,29.2174
1795,-1.916,-9.81,-4.8284,-59.2696,6.4696,30.0522
1800,-1.8394,-9.81,-4.9433,-61.0783,6.1913,31.0261
1805,-1.8011,-9.81,-5.3265,-62.5391,5.287,31.9304
1810,-1.6861,-9.81,-5.5181,-63.7913,4.2435,32.6261
1815,-1.8011,-9.7717,-5.9013,-64.7652,2.9913,33.113
1820,-1.8394,-9.925,-6.2079,-65.3217,2.0174,33.3217
1825,-1.9927,-10.0016,-6.1313,-64.9043,1.2522,33.113
1830,-2.1076,-10.1166,-6.1696,-63.3739,1.1826,32.5565
1835,-2.1843,-10.3848,-5.6714,-60.5913,1.6,31.5826
1840,-2.3759,-10.5381,-5.4032,-56.9739,2.2261,30.0522
1845,-2.5291,-10.768,-4.9816,-52.7304,2.9913,27.7565
1850,-2.5675,-10.9596,-4.6368,-48.487,3.2,25.113
1855,-2.7974,-10.9213,-4.5984,-45.287,2.8522,22.2609
1860,-2.7207,-10.9213,-4.3685,-43.5478,2.2957,20.0348
1865,-3.0273,-10.653,-4.2919,-43.7565,1.8087,18.087
1870,-2.7974,-10.3465,-4.5984,-46.2609,1.1826,16.5565
1875,-2.6824,-10.2315,-4.79,-50.713,1.113,15.3043
1880,-2.5675,-10.0399,-5.0966,-56.6261,1.3217,14.6783
1885,-2.4525,-9.925,-5.4798,-62.887,1.5304,14.4
1890,-2.4908,-9.925,-5.6714,-68.9391,1.9478,14.4696
1895,-2.4908,-9.925,-5.5948,-74.087,2.1565,15.0261
1900,-2.3759,-10.0782,-5.863,-78.2609,2.5739,15.5826
1905,-2.2226,-10.1549,-5.9396,-80.9739,3.4087,15.4435
1910,-1.9543,-10.3082,-6.1696,-82.1565,4.6609,15.0261
1915,-1.9543,-10.4614,-6.1696,-81.1826,5.8435,14.4
1920,-2.1459,-10.6147,-6.3995,-78.5391,7.0261,14.1217
1925,-2.0693,-10.6147,-6.2845,-74.2957,8.2087,14.1217
1930,-1.9927,-10.6914,-6.5145,-68.6609,9.5304,14.2609
1935,-2.1459,-10.6147,-6.6294,-62.0522,10.9217,14.4696
1940,-2.2992,-10.5381,-6.7827,-55.5826,12.2435,14.8174
1945,-2.3759,-10.3082,-7.0126,-49.8087,13.3565,15.0261
1950,-2.4525,-10.2315,-6.9743,-45.0783,13.9826,15.2348
1955,-2.4908,-10.0782,-7.0893,-41.2522,14.5391,15.6522
1960,-2.5291,-9.8483,-7.2042,-38.4696,15.0957,16.0696
1965,-2.5291,-9.695,-7.2809,-36.4522,15.9304,16.487
1970,-2.5675,-9.4651,-7.3958,-35.1304,16.6261,16.7652
1975,-2.6441,-9.3118,-7.1659,-34.1565,17.3217,17.1826
1980,-2.5291,-9.1586,-7.2042,-33.1826,17.7391,17.4609
1985,-2.4142,-9.1969,-7.1659,-32.3478,17.8783,17.7391
1990,-2.3375,-9.0819,-7.3192,-30.9565,17.6696,17.6
1995,-2.2992,-8.967,-7.2809,-29.7739,17.3217,17.4609
2000,-2.1459,-8.967,-7.3192,-28.3826,17.0435,17.3913
2005,-1.9543,-9.0436,-7.2809,-27.2,16.8348,17.3913
2010,-1.7627,-9.0053,-7.4341,-26.0174,16.8348,17.113
2015,-1.7627,-8.8903,-7.3575,-24.9043,16.6957,16.8348
2020,-1.6478,-8.852,-7.3575,-23.9304,16.6957,16.6261
2025,-1.7627,-8.737,-7.3575,-22.887,16.6957,16.4174
2030,-1.8394,-8.5454,-7.3575,-21.7043,16.7652,16.6261
2035,-1.8777,-8.6221,-7.2809,-20.2435,16.6957,17.113
2040,-2.1076,-8.3921,-7.3958,-18.9217,16.7652,17.9478
2045,-2.2226,-8.2772,-7.3575,-17.9478,16.9739,18.9913
2050,-2.2609,-7.9323,-7.3192,-16.9739,17.1826,20.3826
2055,-2.1459,-7.8557,-7.3958,-16.1391,17.2522,21.6348
2060,-1.9543,-7.7024,-7.3192,-15.1652,17.5304,22.9565
2065,-2.0693,-7.5491,-7.4341,-14.3304,17.3913,23.6522
2070,-2.2992,-7.4725,-7.3575,-14.0522,17.2522,23.9304
2075,-2.4525,-7.4341,-7.3192,-13.6348,16.7652,24.1391
2080,-2.4525,-7.3958,-7.1276,-12.9391,16.2783,24.1391
2085,-2.5291,-7.4725,-7.0893,-11.8957,15.8609,24.0696
2090,-2.4908,-7.3958,-7.2425,-10.9217,15.5826,24.1391
2095,-2.4525,-7.3575,-7.0893,-9.8087,15.5826,24.2087
2100,-2.3375,-7.4341,-7.0893,-8.7652,15.8609,24.0696
2105,-2.5291,-7.3575,-7.0126,-8.0696,16.1391,24.0696
2110,-2.4525,-7.3575,-6.821,-7.5826,16.2783,24.2783
2115,-2.4908,-7.4341,-6.7827,-6.4696,15.8609,24.4174
2120,-2.5291,-7.5108,-6.821,-5.3565,15.2348,24.4174
2125,-2.4525,-7.6257,-6.8593,-4.5217,14.5391,24.3478
2130,-2.4525,-7.6641,-6.6677,-3.4087,13.8435,24.6261
2135,-2.4908,-7.5108,-6.8977,-2.087,13.2174,24.8348
2140,-2.6058,-7.6641,-6.936,-0.8348,12.8,25.3217
2145,-2.5675,-7.5874,-7.0126,0.1391,12.3826,25.4609
2150,-2.6441,-7.6641,-7.0509,0.9739,11.8957,25.3217
2155,-2.7591,-7.6641,-7.2042,2.1565,11.2,24.9739
2160,-2.6441,-7.6257,-7.0126,4.2435,10.7826,24.4174
2165,-2.5675,-7.6257,-7.0893,6.2609,10.713,24.4174
2170,-2.6058,-7.6257,-7.0893,7.8609,10.5739,25.1826
2175,-2.4142,-7.894,-7.0126,9.2522,10.4348,26.2957
2180,-2.6058,-7.8557,-7.2042,11.0609,10.2261,26.8522
2185,-2.5675,-7.6641,-7.2425,13.2174,9.8783,26.8522
2190,-2.4142,-7.5874,-7.1659,14.3304,9.8783,26.6435
2195,-2.4908,-7.5108,-7.0893,14.6783,9.6696,26.087
2200,-2.3759,-7.7407,-7.0126,14.4696,9.1826,25.5304
2205,-2.4525,-7.7024,-6.936,14.8174,8.6957,25.3217
2210,-2.5675,-7.7407,-7.0893,15.513,8.0696,25.3913
2215,-2.6441,-7.7024,-6.8977,16.6957,7.1652,25.1826
2220,-2.6441,-7.7024,-6.821,17.6696,6.3304,25.1826
2225,-2.6058,-7.8557,-6.936,19.3391,5.7043,25.3913
2230,-2.6441,-7.5108,-6.8977,21.0783,5.0783,25.3913
2235,-2.7591,-7.6257,-6.9743,22.4696,4.313,25.6696
2240,-2.7974,-7.5874,-7.0126,23.9304,3.8261,25.4609
2245,-2.989,-7.4725,-7.2042,24.5565,3.687,25.2522
2250,-3.0273,-7.4725,-7.2809,24.6261,3.5478,25.0435
2255,-2.9123,-7.3575,-7.1659,23.7913,3.4087,24.9043
2260,-2.7974,-7.4341,-7.1276,22.7478,3.2,24.2783
2265,-2.989,-7.4341,-7.0126,21.4261,2.8522,23.8609
2270,-2.989,-7.3958,-7.0509,20.4522,2.5739,23.3739
2275,-2.8357,-7.5874,-6.821,19.7565,2.5043,22.6783
2280,-2.9507,-7.3958,-6.8977,18.713,2.5739,22.0522
2285,-2.9507,-7.3958,-6.9743,17.6,2.0174,21.7739
2290,-2.9507,-7.3958,-7.1659,16.4174,0.9043,21.287
2295,-2.9123,-7.5108,-7.1659,15.1652,-0.5565,20.8696
2300,-2.9507,-7.4341,-7.1276,13.8435,-2.2261,20.5913
2305,-3.0656,-7.5108,-7.0893,12.9391,-3.4783,20.5217
2310,-3.0656,-7.6257,-6.936,12.6609,-4.4522,20.6609
2315,-2.874,-7.7407,-6.936,13.0087,-5.2174,20.8696
2320,-2.989,-7.6641,-6.936,13.6348,-5.4261,20.7304
2325,-2.989,-7.7407,-7.0126,14.1217,-5.3565,20.1043
2330,-3.1039,-7.7407,-7.0126,14.1217,-5.0783,19.3391
2335,-3.2955,-7.7024,-7.2425,13.4957,-4.5913,18.7826
2340,-3.1423,-7.5491,-7.1276,12.313,-4.0348,18.8522
2345,-3.1039,-7.7407,-7.1659,12.313,-3.3391,18.9913
2350,-3.0273,-7.5108,-7.1276,12.6609,-2.3652,18.5739
2355,-2.6058,-7.5491,-7.0893,12.8696,-1.0435,17.8783
2360,-2.7591,-7.5874,-7.0509,13.3565,0.3478,17.0435
2365,-2.7207,-7.3958,-7.0126,13.913,1.6696,16.3478
2370,-2.7591,-7.5491,-6.7444,14.7478,2.4348,15.6522
2375,-2.7974,-7.3575,-6.7827,15.4435,2.7826,15.0261
2380,-2.8357,-7.3575,-6.6677,15.8609,2.9217,14.4
2385,-2.989,-7.3192,-6.5911,16.2783,2.713,13.913
2390,-3.1423,-7.2425,-6.6294,16.487,2.3652,13.4261
2395,-3.3339,-7.0509,-6.4761,16.3478,1.7391,13.0087
2400,-3.3722,-7.0893,-6.4378,16.0,1.3217,12.6609
2405,-3.4871,-6.8977,-6.3995,15.6522,0.7652,11.8957
2410,-3.7171,-6.7827,-6.6677,15.513,0.2783,10.9913
2415,-3.7554,-6.6677,-6.4761,15.0957,0.1391,10.0174
2420,-4.0236,-6.5145,-6.5145,14.4696,0.3478,8.9739
2425,-4.1386,-6.3995,-6.4761,13.4957,1.0435,7.8609
2430,-4.1769,-6.2462,-6.5911,12.2435,2.1565,6.6783
2435,-4.1769,-6.2079,-6.5911,10.7826,3.3391,5.8435
2440,-4.1386,-6.1696,-6.3612,9.3913,4.8,4.9391
2445,-4.062,-6.3229,-6.4378,7.8609,6.3304,4.1739
2450,-3.947,-6.2079,-6.4378,6.5391,8.0696,3.4783
2455,-3.8704,-6.3612,-6.2462,5.3565,9.5304,2.8522
2460,-3.7171,-6.4378,-6.4378,4.6609,10.5043,2.4348
2465,-3.6404,-6.5145,-6.3612,4.1043,11.3391,2.2957
2470,-3.4488,-6.3995,-7.0126,3.7565,12.5217,2.5043
2475,-3.2572,-6.821,-6.2845,3.6174,13.7739,2.5739
2480,-3.1806,-7.0893,-6.3229,3.687,15.4435,2.3652
2485,-3.1423,-7.1659,-6.4378,4.5913,17.3217,2.2261
2490,-3.1423,-7.0509,-6.1696,6.2609,19.4087,2.1565
2495,-2.989,-7.1276,-6.2845,8.4174,21.5652,2.2261
2500,-2.7974,-7.0893,-6.0929,10.9913,24.0696,2.2957
2505,-2.6824,-7.1276,-6.2079,13.6348,26.713,2.2261
2510,-2.7974,-7.0509,-6.2079,16.1391,29.4261,2.2261
2515,-2.7974,-7.0893,-6.2462,18.2957,31.7913,2.087
2520,-2.7591,-6.8977,-6.1696,20.2435,33.9478,2.0174
2525,-3.3722,-7.0893,-6.5145,21.7739,35.687,2.2957
2530,-2.989,-6.9743,-6.3612,23.0957,37.4261,2.5739
2535,-2.874,-6.8977,-6.2845,24.2087,39.0957,2.713
2540,-3.1039,-6.7061,-6.2462,25.113,40.487,2.8522
2545,-3.1039,-6.7827,-6.2462,25.4609,41.8087,3.2
2550,-3.1806,-6.7444,-6.3229,25.4609,42.8522,3.5478
2555,-3.3722,-6.6677,-6.2079,24.9739,43.7565,3.7565
2560,-3.5638,-6.7444,-6.0546,24.7652,44.3826,3.8957
2565,-3.7554,-6.8593,-5.8247,24.9739,44.1739,3.8957
2570,-3.8704,-6.8977,-5.6714,25.8783,43.2,3.7565
2575,-3.9087,-7.0893,-5.6714,27.0609,42.4348,3.9652
2580,-4.062,-7.1659,-6.2079,28.0348,42.1565,4.1043
2585,-4.1386,-7.2425,-5.8247,28.8696,42.087,4.1043
2590,-4.2152,-7.2425,-5.863,29.287,42.087,4.2435
2595,-4.062,-7.2425,-5.9013,29.4261,42.0174,4.313
2600,-4.2152,-7.2809,-5.9013,29.6348,41.6696,4.3826
2605,-4.2536,-7.3575,-6.1696,29.5652,41.113,4.4522
2610,-4.1386,-7.4341,-6.2079,29.4957,40.6957,4.5913
2615,-3.8704,-7.5491,-6.2079,30.0522,40.487,4.8696
2620,-3.8704,-7.5491,-6.4378,30.5391,40.6957,5.0087
2625,-3.5638,-7.7024,-6.1696,31.1652,41.3217,5.2174
2630,-3.2572,-7.8173,-6.2079,32.2783,42.3652,5.287
2635,-3.2189,-7.779,-6.4378,34.0174,43.7565,5.2174
2640,-2.9123,-7.8173,-6.1696,36.0348,45.0783,4.9391
2645,-2.6441,-7.779,-6.2845,38.3304,46.0522,4.8696
2650,-2.6441,-7.7407,-6.2845,40.9043,46.9565,4.8
2655,-2.5291,-7.5874,-6.1696,43.2,47.513,4.8
2660,-2.3759,-7.7024,-6.1313,45.2174,48.2783,4.8
2665,-2.3375,-7.5874,-5.978,46.5391,49.3913,4.7304
2670,-2.1843,-7.5874,-5.978,47.2348,50.7826,4.4522
2675,-2.1076,-7.5491,-5.863,48.0,52.5217,4.1739
2680,-1.8011,-7.5108,-5.9396,48.487,54.4696,3.9652
2685,-1.7244,-7.4725,-5.7097,48.2783,57.0435,3.8957
2690,-1.3412,-7.6641,-5.8247,47.513,60.313,4.1739
2695,-0.9963,-7.8173,-5.863,46.1217,64.7652,4.7304
2700,-0.7281,-7.779,-5.863,44.5913,69.7043,5.1478
2705,-0.6131,-7.7024,-6.0163,42.9913,74.6435,5.4261
2710,-0.4982,-7.8173,-6.2462,41.6696,79.0261,5.7739
2715,-0.4598,-7.5491,-6.4761,40.487,82.9217,5.7739
2720,-0.5365,-7.4725,-6.7827,39.1652,86.2609,5.6348
2725,-0.5748,-7.4341,-6.8593,37.3565,88.9739,4.9391
2730,-0.9197,-7.3192,-6.7827,35.4783,91.687,3.7565
2735,-1.3029,-7.3575,-6.821,33.6696,94.1913,2.5739
2740,-1.6861,-7.3575,-6.5145,32.1391,96.5565,1.8087
2745,-1.8777,-7.5491,-6.2079,31.0261,98.8522,1.7391
2750,-2.1459,-7.7024,-5.9013,30.8174,100.7304,1.7391
2755,-2.2609,-8.0089,-5.5948,31.513,102.1913,1.7391
2760,-2.6441,-8.1622,-5.2882,32.6261,102.6087,1.8783
2765,-2.9123,-8.4305,-5.0583,34.3652,102.0522,2.4348
2770,-3.3339,-8.3538,-5.1732,36.1043,100.4522,3.0609
2775,-3.7171,-8.4305,-5.1349,37.913,98.2261,3.687
2780,-3.8704,-8.2772,-5.2499,39.0957,95.513,4.1739
2785,-3.9853,-8.2389,-5.4032,39.7217,92.5913,4.313
2790,-4.1003,-8.2005,-5.5564,39.4435,89.9478,4.1739
2795,-4.1386,-8.1622,-5.5948,38.6087,87.7217,3.4783
2800,-4.1003,-8.0473,-5.5181,37.6348,85.8435,2.4348
2805,-4.1003,-7.9706,-5.6331,36.5913,83.8957,1.1826
2810,-4.062,-8.0856,-5.6331,35.5478,82.2261,-0.487
2815,-3.8704,-7.9706,-5.5948,34.2957,80.7652,-2.4348
2820,-3.6021,-8.2005,-5.5181,33.0435,79.5826,-4.3826
2825,-3.3339,-8.1622,-5.4415,31.7913,78.5391,-6.2609
2830,-3.0656,-8.0856,-5.4032,30.8174,77.913,-8.5565
2835,-2.9507,-8.0089,-5.3265,29.9826,77.0783,-10.4348
2840,-2.4908,-8.0089,-5.3265,29.7043,76.1739,-11.7565
2845,-2.2992,-8.0473,-5.2882,29.287,75.2696,-12.8696
2850,-2.1076,-7.894,-5.2882,29.2174,74.4348,-13.913
2855,-1.916,-7.8557,-5.4032,29.2174,73.8783,-14.6087
2860,-1.8011,-7.779,-5.3265,29.5652,73.2522,-15.2348
2865,-1.5711,-7.8173,-5.2882,29.5652,72.9043,-15.4435
2870,-1.4179,-7.7407,-5.4032,29.3565,72.8348,-15.7913
2875,-1.3795,-7.6641,-5.2499,29.2174,72.9043,-16.2783
2880,-1.4179,-7.7407,-5.2882,29.3565,72.7652,-16.487
2885,-1.2263,-7.8173,-5.2499,29.5652,72.7652,-16.5565
2890,-1.2263,-7.9323,-5.2499,29.913,73.1826,-16.5565
2895,-1.2263,-7.894,-5.0966,30.1217,73.9478,-16.5565
2900,-1.073,-7.9323,-5.02,30.0522,75.2,-16.8348
2905,-0.958,-7.9706,-5.02,29.7739,76.5913,-17.0435
2910,-0.843,-8.0856,-4.9433,29.5652,78.3304,-17.3217
2915,-0.9197,-8.1239,-4.8667,29.2174,79.7913,-17.4609
2920,-0.9963,-8.2005,-5.2116,28.6609,80.7652,-17.6
2925,-0.843,-8.2389,-4.9816,28.1043,81.2522,-17.8087
2930,-0.8047,-8.2772,-4.9433,27.687,81.3217,-17.8783
2935,-0.8814,-8.3921,-4.8667,27.2696,81.2522,-18.0174
2940,-0.843,-8.5454,-4.9816,26.3652,81.3217,-18.4348
2945,-0.6898,-8.3538,-5.0966,25.8783,81.4609,-18.6435
2950,-0.6898,-8.5071,-5.02,25.9478,81.6,-18.3652
2955,-0.8814,-8.4688,-4.9433,26.4348,81.6696,-18.5043
2960,-0.7281,-8.5454,-4.905,27.2,82.0174,-18.8522
2965,-0.8047,-8.6987,-4.9433,28.1043,82.5739,-19.2
2970,-0.8047,-8.6987,-4.8667,28.9391,83.2696,-19.0609
2975,-0.6514,-8.5838,-5.1732,29.0783,84.2435,-19.0609
2980,-0.6514,-8.6221,-5.02,29.1478,85.5652,-19.1304
2985,-0.5365,-8.6221,-4.905,29.2174,86.9565,-19.3391
2990,-0.5365,-8.6221,-5.3265,29.2174,87.9304,-19.6174
2995,-0.5365,-8.6221,-5.02,28.8696,88.6957,-19.8261
