timestamp,accX,accY,accZ,gyroX,gyroY,gyroZ
0,0.1533,-9.4651,-2.874,3.8261,0.7652,-0.2087
5,0.1916,-9.5034,-3.0273,3.4783,0.9739,-0.2087
10,0.115,-9.4268,-2.9507,2.7826,1.113,-0.2087
15,0.1533,-9.4651,-3.1039,2.4348,1.1826,0.0
20,0.2682,-9.3502,-2.9123,2.1565,1.3913,0.0696
25,0.2682,-9.3885,-3.1423,1.9478,1.8783,0.4174
30,0.3066,-9.3502,-3.0273,1.7391,2.4348,0.4174
35,0.4982,-9.5034,-2.989,1.8087,3.0609,0.7652
40,0.4215,-9.4651,-2.7974,1.8087,3.9652,0.6957
45,0.4215,-9.5418,-2.874,1.8783,4.9391,0.6957
50,0.5748,-9.6567,-2.7591,2.1565,5.7043,0.5565
55,0.6131,-9.695,-2.8357,2.5739,5.913,0.3478
60,0.4982,-9.6184,-2.8357,3.4783,5.913,0.1391
65,0.4982,-9.7334,-2.9123,4.313,5.6348,0.2783
70,0.5365,-9.695,-2.989,5.287,4.9391,-0.2783
75,0.4215,-9.5801,-2.9123,6.2609,3.9652,-0.487
80,0.3066,-9.4268,-3.0656,7.2348,3.2696,-0.7652
85,0.3066,-9.3885,-3.0273,8.0696,2.6435,-0.7652
90,0.2682,-9.2735,-3.1806,8.3478,2.2957,-0.9043
95,0.2299,-9.1969,-3.0273,8.487,2.087,-0.8348
100,0.1533,-9.0053,-2.9507,8.1391,2.1565,-0.9043
105,0.0766,-8.9286,-3.1039,7.513,2.5739,-0.8348
110,0.0766,-9.0053,-3.0656,6.6783,3.2,-0.9043
115,0.115,-8.9286,-2.874,5.4957,3.8957,-0.7652
120,0.0,-8.8903,-3.1039,4.4522,4.5913,-0.9043
125,0.1916,-9.0436,-2.9507,3.4783,5.0783,-0.9739
130,0.2682,-9.0436,-3.1423,2.6435,5.5652,-1.2522
135,0.1916,-9.1202,-2.9507,2.0174,5.7043,-1.4609
140,0.2299,-9.1969,-3.0273,1.3913,5.7739,-1.8783
145,0.2682,-9.3118,-2.9507,0.9739,5.8435,-2.1565
150,0.2299,-9.4651,-3.0656,0.2087,5.8435,-2.5739
155,0.1916,-9.3885,-3.1039,-0.1391,5.7739,-2.713
160,0.115,-9.5034,-3.0656,-0.2087,5.7043,-3.1304
165,0.2682,-9.6567,-3.1039,0.0,5.4957,-3.2
170,0.0766,-9.6184,-3.0273,0.5565,5.4957,-3.4087
175,0.1916,-9.7717,-3.1423,1.3913,5.1478,-3.2696
180,0.1533,-9.7717,-3.1039,2.5739,4.8,-3.2
185,0.115,-9.8866,-2.8357,3.8957,4.5217,-2.9217
190,0.0383,-9.8866,-2.989,5.287,4.313,-2.9217
195,0.0383,-9.8866,-2.874,6.887,3.8957,-2.6435
200,0.1533,-9.7717,-2.7591,8.3478,3.4783,-2.5739
205,0.115,-9.8483,-2.874,9.4609,3.2,-2.5043
210,0.115,-9.7717,-2.874,10.4348,2.9913,-2.5043
215,0.0766,-9.5418,-2.9123,11.1304,2.9217,-2.2957
220,0.0766,-9.5418,-2.9507,11.4087,2.8522,-2.3652
225,0.0766,-9.5418,-2.7207,11.4783,2.9913,-2.1565
230,0.115,-9.4268,-2.7207,11.4087,3.0609,-2.2261
235,0.0383,-9.3118,-2.6441,10.9913,3.2,-2.087
240,0.115,-9.3885,-2.8357,10.5043,3.4087,-2.087
245,0.0766,-9.3118,-2.7974,10.0174,3.6174,-1.9478
250,0.115,-9.2352,-2.7207,9.3217,3.7565,-2.0174
255,0.0383,-9.3118,-2.6824,8.3478,3.687,-2.0174
260,0.0766,-9.2735,-2.8357,7.3739,3.7565,-2.1565
265,0.115,-9.3118,-2.6441,6.1913,3.8261,-2.1565
270,0.115,-9.2735,-2.874,4.9391,3.8261,-2.2957
275,0.2299,-9.4268,-2.7591,3.5478,4.1043,-2.2957
280,0.2299,-9.5034,-3.0273,1.9478,4.3826,-2.5043
285,0.1916,-9.5418,-2.8357,0.1391,4.9391,-2.5043
290,0.2682,-9.7717,-2.874,-1.4609,5.287,-2.5043
295,0.2682,-9.6184,-2.4908,-2.7826,5.8435,-2.4348
300,0.3832,-9.81,-2.874,-3.6174,6.3304,-2.3652
305,0.2682,-9.925,-2.7591,-3.7565,6.5391,-2.2957
310,0.2299,-10.1549,-2.5291,-3.4087,6.6087,-2.087
315,0.3066,-10.0399,-2.5675,-2.5043,6.3304,-1.7391
320,0.2299,-10.1549,-2.6441,-0.8348,5.8435,-1.6
325,0.2299,-10.0399,-2.7207,0.6957,5.6348,-1.0435
330,0.1916,-10.0399,-2.5675,2.4348,5.287,-0.7652
335,0.1916,-9.9633,-2.5675,4.1739,5.0783,-0.2783
340,0.1533,-9.9633,-2.5291,5.7043,4.5913,-0.2087
345,0.115,-9.7717,-2.6058,6.8174,4.0348,0.0696
350,0.115,-9.7717,-2.4525,7.5826,3.6174,0.3478
355,0.0766,-9.6567,-2.4142,7.9304,3.1304,0.487
360,0.0766,-9.6567,-2.5291,7.513,2.7826,0.3478
365,0.115,-9.5801,-2.2992,6.6087,2.5739,0.1391
370,0.0766,-9.7334,-2.4525,5.0783,2.5043,-0.2087
375,0.1533,-9.81,-2.4525,3.7565,2.5043,-0.5565
380,0.1533,-9.9633,-2.3375,2.4348,2.713,-0.9043
385,0.0,-10.0016,-2.3375,1.1826,2.6435,-1.3217
390,-0.0766,-9.9633,-2.3375,0.3478,2.5043,-1.7391
395,0.0383,-10.1932,-2.3759,-0.2087,2.2957,-2.1565
400,0.0383,-10.3082,-2.3375,-0.1391,2.1565,-2.3652
405,-0.0766,-10.4231,-2.5675,0.6261,1.9478,-2.3652
410,0.0,-10.4614,-2.5291,1.9478,1.8783,-2.2957
415,0.0383,-10.5764,-2.4908,3.3391,2.0174,-2.2261
420,0.0766,-10.4231,-2.6058,5.2174,2.2261,-2.2957
425,0.1533,-10.2698,-2.5291,6.4,2.5043,-2.2261
430,0.2682,-10.3082,-2.6058,7.3043,3.0609,-2.2957
435,0.3832,-10.2698,-2.6058,7.8609,3.687,-2.2957
440,0.4215,-10.2698,-2.5675,8.2087,4.5913,-2.4348
445,0.4598,-10.2698,-2.6824,8.2087,5.4957,-2.6435
450,0.3449,-10.2315,-2.5291,8.0696,6.2609,-2.7826
455,0.4215,-10.1549,-2.4525,7.9304,6.7478,-3.2
460,0.3449,-10.1932,-2.3759,7.6522,6.9565,-3.2
465,0.3449,-10.1932,-2.4142,7.2348,6.6783,-3.1304
470,0.3832,-10.3848,-2.2609,6.9565,5.9826,-2.8522
475,0.115,-10.2698,-2.3375,6.6783,5.3565,-2.3652
480,0.2299,-10.3082,-2.2609,6.5391,4.6609,-1.8087
485,-0.0766,-10.3465,-2.2992,6.6087,4.0348,-1.113
490,0.0766,-10.4231,-2.4142,6.887,3.8261,-0.5565
495,0.0,-10.3848,-2.3375,7.3043,3.8261,-0.1391
500,-0.0383,-10.3465,-2.3759,7.9304,3.9652,0.2783
505,0.0766,-10.3465,-2.4525,8.487,4.313,0.487
510,0.0766,-10.3848,-2.3375,8.9043,4.8696,0.6957
515,0.2682,-10.1932,-2.4142,8.9043,5.287,0.6261
520,0.2299,-10.3082,-2.3375,9.2522,5.7739,0.6261
525,0.2299,-10.3465,-2.4908,9.1826,6.1913,0.5565
530,0.3066,-10.3465,-2.6058,9.2522,6.4,0.3478
535,0.3832,-10.3082,-2.6824,9.2522,6.9565,0.1391
540,0.3066,-10.3465,-2.6441,9.3913,7.6522,-0.1391
545,0.3449,-10.4231,-2.7207,9.5304,8.4174,-0.487
550,0.4982,-10.3465,-2.7591,9.7391,9.3217,-0.6957
555,0.5365,-10.3465,-2.5291,10.0174,10.1565,-1.0435
560,0.4598,-10.2315,-2.6058,10.0174,10.6435,-1.3217
565,0.5365,-10.1549,-2.7207,9.8087,11.1304,-1.6
570,0.3832,-10.1166,-2.6058,9.4609,11.3391,-1.8783
575,0.3449,-10.1932,-2.4908,8.4174,11.687,-2.2957
580,0.3832,-10.0782,-2.4142,7.4435,11.9652,-2.5043
585,0.2682,-10.0399,-2.2226,6.4,12.2435,-2.7826
590,0.3449,-10.1166,-2.4908,5.287,12.5913,-2.7826
595,0.2299,-10.0782,-2.4525,4.5217,12.8696,-2.8522
600,0.2299,-10.0399,-2.4142,3.8261,13.1478,-2.713
605,0.2299,-10.0016,-2.4142,3.4087,13.2174,-2.7826
610,0.1916,-10.0782,-2.2609,2.9913,13.0783,-2.5739
615,0.3066,-10.0016,-2.3375,2.5739,13.0087,-2.4348
620,0.3832,-10.0782,-2.2609,1.9478,12.6609,-2.1565
625,0.3449,-10.1166,-2.4142,1.4609,12.3826,-2.087
630,0.3832,-10.1166,-2.2609,1.113,12.1043,-1.9478
635,0.2299,-10.1166,-2.2609,0.6957,11.687,-2.087
640,0.2682,-10.0782,-2.4142,0.4174,11.2696,-1.8783
645,0.2299,-10.1166,-2.2992,0.0696,10.5739,-1.9478
650,0.115,-10.1549,-2.4142,-0.1391,9.6696,-1.5304
655,-0.0383,-10.2315,-2.2992,-0.2087,8.5565,-1.3217
660,0.0766,-10.3082,-2.2609,0.2087,7.5826,-0.8348
665,0.0383,-10.3082,-2.3375,0.9739,6.6783,-0.3478
670,0.0383,-10.3082,-2.2609,1.8783,5.7739,0.3478
675,0.0383,-10.2315,-2.5291,3.4783,5.3565,0.6957
680,0.1916,-10.2315,-2.4525,5.1478,5.0783,1.3217
685,0.1916,-10.0016,-2.1843,6.6087,4.9391,1.5304
690,0.2682,-9.925,-2.4525,7.8609,5.0783,1.9478
695,0.2299,-9.8483,-2.4142,8.6261,5.3565,2.087
700,0.3832,-9.8483,-2.2992,8.8348,5.7043,2.4348
705,0.3066,-9.7334,-2.4142,8.5565,5.9826,2.3652
710,0.3449,-9.7717,-2.3759,7.9304,6.3304,2.5043
715,0.4215,-9.7334,-2.2609,7.1652,6.7478,2.4348
720,0.5748,-9.8483,-2.2609,6.3304,7.3043,2.5739
725,0.4982,-9.81,-2.3375,5.8435,8.2087,2.6435
730,0.4598,-9.8866,-2.2992,5.5652,8.9739,2.7826
735,0.3449,-9.6567,-2.1843,5.8435,9.7391,2.6435
740,0.5365,-9.8866,-2.2226,6.2609,10.2957,2.713
745,0.3832,-9.925,-2.2609,6.6783,10.8522,2.5739
750,0.4215,-9.7717,-2.1459,7.2348,11.3391,2.7826
755,0.4598,-9.925,-2.2609,7.513,11.7565,2.5043
760,0.2682,-9.7717,-2.1459,7.513,11.9652,2.5739
765,0.3832,-9.7334,-2.1843,7.1652,11.9652,2.3652
770,0.3066,-9.695,-2.1459,6.6087,12.1043,2.2957
775,0.2299,-9.6184,-2.2992,5.7043,12.1739,2.0174
780,0.1533,-9.81,-2.1459,4.6609,12.0348,2.0174
785,0.2299,-9.8483,-2.2609,4.1043,11.9652,1.8087
790,0.1916,-9.7717,-2.2226,3.8261,11.687,1.8783
795,0.1916,-9.81,-2.2226,3.8957,11.5478,1.6696
800,0.2299,-9.7717,-2.2226,4.1739,11.4783,1.9478
805,0.3066,-9.8866,-2.2609,4.5217,11.3391,1.6696
810,0.3066,-9.7717,-2.2609,4.9391,11.2,1.7391
815,0.3449,-9.7334,-1.9927,4.8696,11.1304,1.4609
820,0.3832,-9.695,-2.2609,4.5913,10.9913,1.3913
825,0.4215,-9.5418,-2.1843,3.8957,11.2,0.9739
830,0.3449,-9.7717,-2.2226,2.713,11.2696,0.9739
835,0.3066,-9.7334,-2.1843,1.3913,11.4783,0.6261
840,0.3832,-9.7717,-2.1459,0.0696,11.4783,0.5565
845,0.3449,-9.81,-2.1076,-1.1826,11.4783,0.0696
850,0.2682,-9.81,-2.2226,-2.0174,11.4087,0.0
855,0.2682,-9.9633,-2.1459,-2.8522,11.4087,-0.3478
860,0.2682,-9.925,-2.2226,-3.4087,11.4783,-0.3478
865,0.3066,-10.0016,-2.1843,-3.6174,11.4087,-0.7652
870,0.3832,-10.0016,-2.1843,-3.6174,11.4783,-0.6957
875,0.3449,-10.1166,-2.2226,-3.2696,11.5478,-0.9739
880,0.3832,-10.0782,-2.0693,-2.6435,11.4783,-0.9043
885,0.3832,-10.2698,-2.2226,-2.0174,11.4783,-1.113
890,0.4215,-10.3082,-2.1843,-1.5304,11.1304,-1.1826
895,0.3449,-10.3848,-2.1843,-0.6957,10.8522,-1.3217
900,0.3449,-10.3465,-2.1843,0.2087,10.3652,-1.113
905,0.3066,-10.3848,-2.2609,1.2522,9.8087,-1.3913
910,0.1916,-10.3082,-2.2992,2.4348,9.3217,-1.3913
915,0.1916,-10.1932,-2.2609,3.4783,8.7652,-1.5304
920,0.1916,-10.1549,-2.2992,4.2435,8.1391,-1.4609
925,0.2682,-10.1549,-2.2226,4.8696,7.513,-1.9478
930,0.2299,-10.0782,-2.2609,5.1478,6.8174,-1.8783
935,0.0766,-9.9633,-2.4142,4.8,6.4,-2.1565
940,0.2299,-9.925,-2.1843,4.0348,5.8435,-2.2261
945,0.1533,-9.9633,-2.2609,3.1304,5.2174,-2.5739
950,0.1533,-9.9633,-2.1843,2.2957,4.7304,-2.6435
955,0.0,-9.8866,-2.0693,1.6,4.0348,-2.8522
960,0.1533,-9.9633,-2.1459,1.113,3.687,-2.8522
965,0.115,-10.0016,-1.916,0.6957,3.2,-3.0609
970,0.2299,-10.0399,-2.031,0.5565,2.7826,-2.9217
975,0.4598,-10.0399,-2.1076,0.6261,2.4348,-3.0609
980,0.3832,-9.9633,-1.9927,0.9043,2.2261,-2.8522
985,0.3449,-10.0782,-1.916,1.6,2.1565,-2.9913
990,0.4215,-10.0399,-1.9543,2.2261,2.087,-2.8522
995,0.4215,-9.9633,-2.1076,2.713,1.9478,-3.0609
1000,0.4982,-9.8483,-2.031,2.9913,1.9478,-2.8522
1005,0.5748,-9.81,-2.1459,3.1304,2.0174,-3.0609
1010,0.4982,-9.7717,-2.031,2.7826,2.087,-2.9913
1015,0.4982,-9.7717,-2.0693,2.087,2.3652,-3.1304
1020,0.4215,-9.6184,-2.1076,1.113,2.713,-3.0609
1025,0.3449,-9.5801,-2.1843,0.0,2.9913,-3.2696
1030,0.3449,-9.6567,-2.1459,-1.113,3.4783,-3.0609
1035,0.3449,-9.6567,-2.2226,-2.5043,3.8957,-3.2
1040,0.2299,-9.81,-2.1076,-3.3391,4.1043,-2.7826
1045,0.2682,-9.81,-2.0693,-3.8957,4.1739,-2.6435
1050,0.2299,-9.925,-1.9927,-4.313,4.1043,-2.1565
1055,0.2682,-9.8483,-1.9543,-4.2435,3.8957,-1.9478
1060,0.2299,-9.925,-1.916,-4.0348,3.4087,-1.3217
1065,0.3449,-9.9633,-1.9543,-3.2696,2.7826,-1.0435
1070,0.3066,-9.9633,-2.0693,-2.2261,2.0174,-0.487
1075,0.2299,-9.925,-2.0693,-0.9043,1.113,-0.2087
1080,0.2682,-9.925,-2.1076,0.6261,0.3478,0.2783
1085,0.2299,-9.81,-2.0693,2.1565,-0.6261,0.3478
1090,0.2682,-9.7717,-2.0693,3.6174,-1.3913,0.6261
1095,0.3066,-9.5418,-2.1076,4.4522,-1.6696,0.4174
1100,0.3449,-9.4651,-2.1843,4.8,-2.0174,0.5565
1105,0.3066,-9.3885,-2.031,4.8,-1.8783,0.2783
1110,0.4215,-9.3118,-2.1459,4.1043,-1.6,0.2783
1115,0.4215,-9.2352,-2.0693,3.1304,-1.0435,0.0
1120,0.4598,-9.2352,-1.916,1.8087,-0.4174,-0.2783
1125,0.4598,-9.1969,-2.031,0.2087,0.2087,-0.7652
1130,0.3832,-9.2352,-2.0693,-1.3217,1.113,-0.9739
1135,0.3449,-9.2735,-2.031,-2.4348,2.2957,-1.5304
1140,0.4982,-9.2735,-2.031,-3.2,3.2,-1.8087
1145,0.4215,-9.3502,-1.8011,-3.4783,4.1043,-2.1565
1150,0.5365,-9.2735,-1.8777,-3.4087,4.8,-2.2261
1155,0.5748,-9.4268,-1.9927,-3.1304,5.3565,-2.4348
1160,0.5365,-9.3885,-1.916,-2.9913,5.7739,-2.3652
1165,0.5365,-9.3885,-1.8011,-2.7826,5.8435,-2.4348
1170,0.6131,-9.3885,-1.9543,-2.5739,5.8435,-2.2957
1175,0.6514,-9.3885,-1.8394,-2.8522,5.7043,-2.2261
1180,0.6131,-9.3885,-1.8011,-3.0609,5.4957,-2.0174
1185,0.6514,-9.4268,-1.8777,-3.5478,5.1478,-1.9478
1190,0.6131,-9.3885,-1.8777,-4.2435,4.8696,-1.7391
1195,0.5748,-9.4268,-1.8394,-4.8696,4.8,-1.7391
1200,0.5365,-9.5034,-1.916,-5.3565,4.6609,-1.6
1205,0.4982,-9.4268,-1.9927,-5.6348,4.7304,-1.6696
1210,0.4598,-9.5034,-1.9927,-5.7739,4.6609,-1.4609
1215,0.5365,-9.5418,-1.9543,-5.7739,4.5217,-1.6696
1220,0.4598,-9.5418,-2.031,-5.7043,4.4522,-1.5304
1225,0.4982,-9.5801,-1.9927,-5.5652,4.3826,-1.5304
1230,0.4215,-9.5418,-2.031,-5.1478,4.2435,-1.4609
1235,0.3832,-9.6184,-1.9543,-4.7304,4.1739,-1.5304
1240,0.4215,-9.7717,-1.9543,-4.2435,4.313,-1.3913
1245,0.3832,-9.7334,-1.8394,-3.7565,4.2435,-1.5304
1250,0.3832,-9.7717,-1.8394,-3.5478,4.313,-1.4609
1255,0.4215,-9.6567,-1.8777,-3.2,4.2435,-1.6
1260,0.3832,-9.6567,-1.9543,-3.1304,4.2435,-1.5304
1265,0.3832,-9.6567,-1.9543,-2.9913,4.1739,-1.6696
1270,0.4982,-9.695,-1.916,-3.0609,4.0348,-1.5304
1275,0.3832,-9.5034,-1.8394,-3.0609,3.9652,-1.6696
1280,0.4982,-9.695,-1.9543,-3.1304,3.8261,-1.7391
1285,0.6514,-9.81,-1.916,-3.3391,3.8957,-1.8783
1290,0.5748,-9.7717,-2.031,-3.4087,3.5478,-1.8783
1295,0.5748,-9.8483,-1.7244,-3.6174,3.4783,-2.0174
1300,0.5365,-9.8483,-1.9543,-3.4783,3.3391,-1.8783
1305,0.4598,-9.9633,-1.916,-3.2,3.2,-2.0174
1310,0.5365,-9.925,-1.916,-2.5739,3.0609,-1.8783
1315,0.5365,-10.0399,-2.0693,-1.9478,2.7826,-1.8087
1320,0.5365,-10.0016,-2.1459,-1.0435,2.5739,-1.6
1325,0.4215,-10.0016,-2.0693,-0.1391,2.4348,-1.4609
1330,0.4215,-9.9633,-2.1459,0.7652,2.2957,-1.3217
1335,0.843,-9.7334,-2.2226,1.5304,2.2957,-1.2522
1340,0.3832,-9.6567,-2.1843,2.087,2.087,-0.9043
1345,0.4982,-9.3885,-2.4908,2.3652,2.087,-0.9739
1350,0.4982,-9.8483,-2.1076,2.4348,2.2957,-0.7652
1355,0.7281,-9.7717,-1.7627,2.1565,2.3652,-0.6261
1360,0.8047,-9.9633,-2.5675,1.8087,2.3652,-0.4174
1365,0.5748,-9.5418,-1.6861,1.5304,2.4348,-0.2783
1370,0.4982,-9.7334,-1.7627,0.9739,2.5043,-0.2783
1375,0.4598,-9.695,-2.031,0.5565,2.713,-0.1391
1380,0.4215,-9.6567,-2.031,-0.0696,2.8522,-0.0696
1385,0.4982,-9.81,-2.1076,-0.487,2.9913,0.0696
1390,0.3066,-9.6567,-1.916,-1.0435,3.1304,0.0696
1395,0.4982,-9.81,-2.1076,-1.4609,3.2696,0.0696
1400,0.4215,-9.8483,-1.9927,-1.6,3.4087,0.1391
1405,0.4982,-9.8483,-2.0693,-1.6,3.4783,0.2783
1410,0.5748,-9.925,-2.2226,-1.6696,3.4087,0.4174
1415,0.4598,-9.925,-1.8777,-1.5304,3.6174,0.4174
1420,0.4982,-9.925,-2.031,-1.3217,3.6174,0.487
1425,0.5365,-9.8866,-2.0693,-1.113,3.687,0.6261
1430,0.4982,-9.8483,-2.1459,-0.6261,3.687,0.7652
1435,0.5365,-9.81,-2.031,-0.2087,3.7565,0.9043
1440,0.5748,-9.7717,-2.1459,0.0696,3.5478,1.113
1445,0.4982,-9.695,-2.031,0.3478,3.6174,1.113
1450,0.4982,-9.5034,-2.031,0.3478,3.6174,1.1826
1455,0.5748,-9.4651,-2.031,0.2783,3.8261,1.2522
1460,0.5748,-9.5801,-2.1459,-0.0696,3.8957,1.2522
1465,0.6514,-9.5418,-1.9543,-0.4174,4.2435,1.113
1470,0.5365,-9.5418,-2.1459,-0.9739,4.5217,1.2522
1475,0.4982,-9.5034,-2.031,-1.6,4.8,1.1826
1480,0.5365,-9.6184,-1.9927,-2.2261,5.0783,1.2522
1485,0.4215,-9.5418,-2.0693,-2.8522,5.287,1.2522
1490,0.4215,-9.5034,-1.9543,-3.2,5.4261,1.113
1495,0.4598,-9.5418,-1.916,-3.5478,5.4957,1.113
1500,0.4598,-9.5418,-2.0693,-3.687,5.4261,1.113
1505,0.4215,-9.7334,-1.8777,-3.687,5.3565,1.0435
1510,0.3066,-9.5801,-1.9543,-3.6174,5.287,0.9739
1515,0.4598,-9.6184,-2.0693,-3.4783,5.3565,0.9043
1520,0.4215,-9.5418,-2.1459,-3.2,5.4957,0.8348
1525,0.4598,-9.5418,-2.1076,-3.1304,5.5652,0.7652
1530,0.4215,-9.6184,-2.0693,-2.9913,5.6348,0.7652
1535,0.4982,-9.5034,-2.0693,-2.7826,5.7043,0.9043
1540,0.5748,-9.5418,-1.9927,-2.5043,5.7739,0.8348
1545,0.5748,-9.5801,-2.031,-2.4348,6.0522,0.8348
1550,0.5748,-9.5418,-2.031,-2.5739,6.0522,0.7652
1555,0.4982,-9.4651,-2.1843,-2.5043,6.2609,0.7652
1560,0.6898,-9.6184,-2.1843,-2.5739,6.3304,0.6957
1565,0.4598,-9.5418,-2.1076,-2.5739,6.6087,0.6957
1570,0.6131,-9.6184,-1.9927,-2.7826,6.6783,0.7652
1575,0.5365,-9.5801,-1.916,-2.713,7.0957,0.9043
1580,0.5748,-9.6567,-2.1459,-2.5739,7.3043,0.7652
1585,0.5748,-9.6567,-1.9927,-2.4348,7.513,0.9739
1590,0.5365,-9.5801,-2.0693,-2.3652,7.7913,0.9043
1595,0.4598,-9.6184,-2.1843,-2.1565,7.8609,1.113
1600,0.4215,-9.5034,-2.1459,-2.0174,7.8609,1.113
1605,0.4598,-9.6184,-2.1076,-1.8087,7.8609,1.2522
1610,0.2682,-9.6184,-2.1459,-1.7391,7.8609,1.2522
1615,0.3832,-9.5034,-2.1459,-1.7391,7.7913,1.4609
1620,0.3832,-9.6184,-2.1843,-1.8087,7.6522,1.3913
1625,0.2682,-9.5034,-1.9927,-1.8783,7.7913,1.5304
1630,0.2682,-9.5418,-2.1459,-1.8783,7.7217,1.4609
1635,0.3066,-9.5801,-2.031,-1.9478,7.6522,1.6696
1640,0.6131,-9.6184,-2.1459,-1.8783,7.6522,1.5304
1645,0.4598,-9.695,-2.1459,-1.8783,7.6522,1.6696
1650,0.4215,-9.6184,-2.1076,-1.8087,7.3739,1.6
1655,0.3066,-9.695,-2.1459,-1.8783,7.2348,1.6696
1660,0.3832,-9.695,-2.031,-1.8087,7.3043,1.4609
1665,0.4982,-9.7717,-2.1076,-1.6696,7.3739,1.5304
1670,0.4215,-9.695,-2.0693,-1.6,7.513,1.3217
1675,0.4598,-9.6184,-2.1843,-1.5304,7.7913,1.3217
1680,0.5365,-9.81,-2.2226,-1.6,7.9304,1.0435
1685,0.4215,-9.6567,-2.1843,-1.6,8.2087,1.113
1690,0.4215,-9.6567,-2.1459,-1.5304,8.4174,0.6957
1695,0.5748,-9.7334,-2.3375,-1.6696,8.487,0.7652
1700,0.4982,-9.7334,-2.1843,-1.8087,8.6261,0.487
1705,0.4598,-9.7717,-2.1843,-2.0174,8.6261,0.487
1710,0.4598,-9.695,-2.1459,-2.087,8.6261,0.2783
1715,0.4215,-9.7334,-2.0693,-2.3652,8.6261,0.4174
1720,0.3449,-9.695,-2.1459,-2.3652,8.6261,0.1391
1725,0.3449,-9.7334,-2.031,-2.4348,8.487,0.2783
1730,0.3832,-9.695,-2.1076,-2.5043,8.5565,0.1391
1735,0.4215,-9.6567,-2.1076,-2.7826,8.4174,0.2783
1740,0.2682,-9.6567,-2.2609,-2.9217,8.2783,0.0696
1745,0.3449,-9.7334,-2.1843,-2.9913,8.1391,0.1391
1750,0.4982,-9.81,-2.2226,-3.0609,8.0696,0.1391
1755,0.2682,-9.7334,-2.1459,-3.1304,7.6522,0.3478
1760,0.4215,-9.81,-2.1459,-3.1304,7.513,0.4174
1765,0.2682,-9.7717,-2.1843,-3.0609,7.3739,0.6261
1770,0.3449,-9.7334,-2.031,-2.8522,7.1652,0.5565
1775,0.3832,-9.7717,-2.1459,-2.5739,6.9565,0.8348
1780,0.2682,-9.7334,-2.2992,-2.3652,6.7478,0.6957
1785,0.3449,-9.695,-2.1076,-2.0174,6.6087,0.9043
1790,0.4215,-9.695,-2.1459,-1.8783,6.4,0.8348
1795,0.3449,-9.7717,-2.3375,-1.8087,6.1913,0.9043
1800,0.3832,-9.6184,-2.1076,-1.8783,6.1913,0.7652
1805,0.3449,-9.6567,-2.2609,-1.9478,6.1913,0.9043
1810,0.3449,-9.695,-2.1843,-2.0174,6.1913,0.7652
1815,0.4215,-9.6567,-2.1076,-2.087,6.2609,0.8348
1820,0.3449,-9.6567,-2.1843,-2.1565,6.3304,0.7652
1825,0.3832,-9.5801,-2.2226,-2.2957,6.4696,0.7652
1830,0.3832,-9.5034,-2.2609,-2.2957,6.6783,0.4174
1835,0.3449,-9.3885,-2.1843,-2.3652,7.0957,0.487
1840,0.3832,-9.5418,-2.1076,-2.2957,7.3739,0.2783
1845,0.4982,-9.6184,-2.1459,-2.3652,7.7913,0.3478
1850,0.4215,-9.4651,-2.0693,-2.3652,8.3478,0.0696
1855,0.4982,-9.5801,-2.1076,-2.2957,8.7652,0.0
1860,0.5365,-9.5801,-2.1459,-2.2261,9.0435,-0.2783
1865,0.4982,-9.695,-2.1459,-2.2261,9.3913,-0.2783
1870,0.4982,-9.5418,-2.0693,-2.0174,9.4609,-0.487
1875,0.4982,-9.5418,-1.9543,-1.8087,9.4609,-0.5565
1880,0.4982,-9.6184,-2.1843,-1.4609,9.1826,-0.6957
1885,0.4598,-9.6184,-2.1459,-1.0435,8.9739,-0.5565
1890,0.4598,-9.695,-2.1076,-0.6957,8.8348,-0.6957
1895,0.4982,-9.5418,-2.1459,-0.3478,8.6261,-0.5565
1900,0.3449,-9.5801,-2.1843,-0.1391,8.4174,-0.6261
1905,0.4215,-9.5034,-2.1843,0.0,7.8609,-0.4174
1910,0.3832,-9.5801,-2.1076,-0.0696,7.6522,-0.4174
1915,0.1533,-9.5034,-2.2609,-0.1391,7.2348,-0.2087
1920,0.1533,-9.4651,-2.0693,-0.2087,6.7478,-0.2087
1925,0.1916,-9.5034,-2.2609,-0.2087,6.3304,0.0
1930,0.1533,-9.6184,-2.0693,-0.1391,5.913,-0.0696
1935,0.115,-9.6184,-2.1459,0.0,5.5652,0.4174
1940,0.1533,-9.4651,-2.1076,0.0696,5.1478,0.4174
1945,0.0,-9.5418,-2.0693,0.3478,4.8,0.6957
1950,0.2682,-9.695,-2.031,0.487,4.3826,0.6957
1955,0.1916,-9.6184,-2.1459,0.5565,3.8261,0.9043
1960,0.1533,-9.5418,-2.031,0.7652,3.4783,0.9043
1965,0.1916,-9.6567,-2.1459,0.7652,3.2,1.113
1970,0.3066,-9.6567,-2.1843,0.7652,3.2,1.0435
1975,0.3832,-9.695,-2.031,0.8348,3.1304,1.1826
1980,0.3449,-9.6184,-2.1843,0.9739,3.2,0.9739
1985,0.3832,-9.6184,-2.1459,1.0435,3.2,1.0435
1990,0.4598,-9.6567,-1.9927,0.9739,3.3391,0.7652
1995,0.4598,-9.695,-2.1076,1.0435,3.4783,0.9043
2000,0.3449,-9.7334,-2.0693,1.0435,3.5478,0.6261
2005,0.3449,-9.6567,-2.1076,1.0435,3.6174,0.6261
2010,0.3066,-9.6567,-2.1076,1.0435,3.687,0.487
2015,0.3066,-9.81,-2.1076,1.113,3.6174,0.6957
2020,0.2299,-9.7717,-2.1459,1.113,3.4087,0.487
2025,0.4215,-9.8483,-2.031,1.1826,3.3391,0.6957
2030,0.3066,-9.7717,-2.0693,1.3217,3.1304,0.487
2035,0.2682,-9.7334,-2.0693,1.4609,2.9913,0.6957
2040,0.3066,-9.6184,-2.1459,1.6696,2.713,0.487
2045,0.2299,-9.695,-2.1076,1.8087,2.5739,0.6957
2050,0.2682,-9.7717,-1.9927,1.7391,2.5739,0.4174
2055,0.3449,-9.7334,-2.1843,1.6,2.4348,0.5565
2060,0.3066,-9.695,-2.0693,1.3913,2.2261,0.2783
2065,0.2299,-9.695,-2.1076,1.1826,2.2261,0.3478
2070,0.2682,-9.6184,-2.1076,0.9043,2.1565,0.2783
2075,0.3066,-9.8483,-2.1076,0.5565,2.087,0.3478
2080,0.2299,-9.81,-2.1843,0.4174,2.0174,0.2087
2085,0.2299,-9.7334,-2.031,0.3478,1.8783,0.3478
2090,0.1533,-9.7717,-2.2609,0.4174,1.8783,0.2087
2095,0.3066,-9.695,-1.9927,0.5565,1.8087,0.4174
2100,0.3449,-9.81,-2.1459,0.6957,1.8087,0.2087
2105,0.2682,-9.5801,-2.1076,0.7652,1.9478,0.4174
2110,0.3832,-9.7334,-2.1843,0.7652,2.087,0.2087
2115,0.1533,-9.6184,-2.1843,0.5565,2.3652,0.487
2120,0.1916,-9.5418,-2.1076,0.4174,2.5043,0.3478
2125,0.3066,-9.6567,-2.2226,0.0696,2.713,0.5565
2130,0.2299,-9.6184,-2.1076,-0.1391,2.5043,0.5565
2135,0.2299,-9.6184,-2.0693,-0.4174,2.5043,0.9739
2140,0.1533,-9.7334,-2.0693,-0.5565,2.4348,0.9739
2145,0.2299,-9.7334,-2.0693,-0.5565,2.1565,1.2522
2150,0.2299,-9.6184,-2.031,-0.6957,2.0174,1.3217
2155,0.3066,-9.695,-2.1459,-0.487,1.9478,1.6
2160,0.3449,-9.695,-2.0693,-0.2783,1.8087,1.6
2165,0.1916,-9.6184,-2.031,-0.1391,1.6,1.6696
2170,0.3066,-9.695,-2.1076,0.0,1.5304,1.5304
2175,0.3066,-9.695,-2.1459,0.0,1.4609,1.6696
2180,0.1916,-9.6184,-2.1076,-0.2783,1.4609,1.3913
2185,0.3066,-9.6184,-2.031,-0.2783,1.5304,1.4609
2190,0.2682,-9.695,-2.1459,-0.3478,1.6696,1.1826
2195,0.3832,-9.6567,-2.0693,-0.2783,1.7391,1.3217
2200,0.1533,-9.5034,-2.0693,-0.2087,2.0174,1.113
2205,0.1916,-9.6567,-2.0693,-0.2087,2.2261,1.113
2210,0.2299,-9.5801,-2.1076,-0.1391,2.5739,0.9043
2215,0.2299,-9.5418,-2.1843,-0.2087,2.8522,0.9043
2220,0.2299,-9.6567,-2.2226,-0.1391,2.9217,0.7652
2225,0.1533,-9.695,-2.1843,-0.1391,3.1304,0.7652
2230,0.2299,-9.6184,-2.1459,-0.0696,3.2696,0.5565
2235,0.2299,-9.695,-2.1843,-0.0696,3.2696,0.6261
2240,0.2682,-9.5034,-2.2992,0.0,3.2,0.487
2245,0.115,-9.5418,-2.1459,-0.2087,3.2,0.6261
2250,0.2682,-9.5418,-2.1459,-0.1391,3.2,0.5565
2255,0.2682,-9.5801,-1.9927,-0.0696,3.1304,0.6261
2260,0.2682,-9.5034,-2.0693,-0.1391,3.2,0.6261
2265,0.2299,-9.5034,-2.031,-0.0696,3.2,0.7652
2270,0.2682,-9.5801,-2.1843,-0.2783,3.1304,0.5565
2275,0.1916,-9.4268,-2.1459,-0.4174,3.2696,0.7652
2280,0.3449,-9.5034,-2.1459,-0.6957,3.4087,0.6261
2285,0.3066,-9.5418,-2.1076,-1.0435,3.6174,0.6957
2290,0.2682,-9.6184,-2.1076,-1.2522,3.8261,0.5565
2295,0.2682,-9.5801,-2.0693,-1.4609,4.1043,0.6261
2300,0.2299,-9.5801,-2.1843,-1.5304,4.2435,0.5565
2305,0.1916,-9.5801,-2.1076,-1.4609,4.4522,0.6261
2310,0.2682,-9.6567,-2.031,-1.4609,4.5913,0.487
2315,0.2299,-9.6184,-2.031,-1.2522,4.5913,0.5565
2320,0.3066,-9.6184,-2.1459,-1.2522,4.7304,0.4174
2325,0.2299,-9.6184,-2.1076,-1.0435,4.8696,0.4174
2330,0.1916,-9.695,-2.0693,-0.9043,4.9391,0.3478
2335,0.2299,-9.6184,-2.1076,-0.6261,5.0087,0.3478
2340,0.1533,-9.6184,-2.031,-0.487,5.0783,0.2087
2345,0.2682,-9.695,-2.0693,-0.2783,5.0783,0.2783
2350,0.1916,-9.6567,-2.0693,-0.1391,5.1478,0.2087
2355,0.2299,-9.5801,-1.916,0.0,5.2174,0.0696
2360,0.2299,-9.5801,-1.9543,0.1391,5.287,0.0696
2365,0.2682,-9.695,-1.9543,0.2783,5.2174,0.0
2370,0.3066,-9.695,-2.031,0.3478,5.1478,-0.2087
2375,0.1916,-9.6567,-2.031,0.4174,5.1478,-0.2087
2380,0.3449,-9.6567,-1.9927,0.5565,5.2174,-0.3478
2385,0.2299,-9.6184,-1.9543,0.5565,5.2174,-0.4174
2390,0.2299,-9.695,-1.9543,0.487,5.287,-0.6261
2395,0.3449,-9.6567,-1.9543,0.487,5.287,-0.6261
2400,0.3449,-9.7334,-1.916,0.4174,5.287,-0.6957
2405,0.2299,-9.6567,-2.031,0.3478,5.4261,-0.7652
2410,0.2682,-9.6184,-2.1076,0.2087,5.4957,-0.9043
2415,0.2299,-9.7334,-2.0693,0.1391,5.5652,-0.9739
2420,0.2682,-9.695,-2.031,-0.0696,5.5652,-1.113
2425,0.1916,-9.695,-1.9543,-0.2087,5.5652,-1.113
2430,0.1916,-9.5034,-2.1076,-0.2087,5.7043,-1.2522
2435,0.1916,-9.695,-2.031,-0.3478,5.6348,-1.1826
2440,0.3066,-9.8866,-1.916,-0.487,5.6348,-1.113
2445,0.2299,-9.6567,-2.1076,-0.6261,5.5652,-0.9739
2450,0.3066,-9.6567,-2.1076,-0.7652,5.4957,-0.9739
2455,0.2299,-9.7717,-1.9543,-0.8348,5.4261,-0.9739
2460,0.2299,-9.7334,-1.9927,-0.9043,5.287,-0.8348
2465,0.2682,-9.8483,-1.9927,-0.9739,5.2174,-0.6957
2470,0.3066,-9.8483,-1.916,-1.113,5.0087,-0.6957
2475,0.1916,-9.7717,-2.031,-0.9043,5.0087,-0.6957
2480,0.2682,-9.7717,-2.0693,-0.6957,5.0087,-0.6957
2485,0.2682,-9.8483,-1.9543,-0.4174,4.8696,-0.6957
2490,0.3066,-9.7334,-1.9543,-0.3478,4.8,-0.6957
2495,0.3066,-9.81,-2.1843,-0.2783,4.7304,-0.7652
2500,0.2682,-9.7717,-2.0693,-0.3478,4.7304,-0.7652
2505,0.2299,-9.7717,-2.031,-0.2087,4.8,-0.7652
2510,0.3066,-9.81,-2.0693,-0.2087,5.0087,-0.8348
2515,0.2299,-9.81,-2.0693,-0.1391,5.1478,-0.7652
2520,0.3832,-9.7717,-1.9927,0.0,5.287,-0.9739
2525,0.3066,-9.695,-2.031,0.0696,5.4261,-1.0435
2530,0.3449,-9.695,-1.9543,0.0696,5.6348,-1.1826
2535,0.3449,-9.695,-2.0693,0.0696,5.8435,-1.2522
2540,0.3066,-9.5034,-1.9543,0.0,5.7043,-1.2522
2545,0.3066,-9.5034,-2.031,-0.3478,5.7043,-1.3913
2550,0.2682,-9.6184,-2.1076,-0.6261,5.6348,-1.3913
2555,0.3066,-9.6184,-1.7627,-0.9739,5.5652,-1.4609
2560,0.3832,-9.5801,-2.0693,-1.3913,5.4261,-1.4609
2565,0.3449,-9.6184,-2.1076,-1.8783,5.4261,-1.3913
2570,0.2299,-9.5801,-1.9543,-2.4348,5.287,-1.2522
2575,0.2682,-9.5418,-2.1076,-2.5739,5.287,-1.3217
2580,0.2682,-9.695,-1.9543,-2.4348,5.287,-1.1826
2585,0.2682,-9.6567,-1.9927,-2.4348,5.2174,-1.1826
2590,0.3449,-9.81,-2.1459,-2.087,5.2174,-1.113
2595,0.2682,-9.695,-2.031,-1.7391,5.0783,-1.0435
2600,0.2299,-9.7334,-1.916,-1.3217,5.0087,-0.9043
2605,0.3066,-9.8483,-2.1076,-0.6957,5.0087,-0.8348
2610,0.2299,-9.7334,-2.1459,-0.2783,4.9391,-0.7652
2615,0.2682,-9.6567,-2.0693,0.1391,4.8696,-0.7652
2620,0.3449,-9.6567,-2.0693,0.6261,4.8696,-0.7652
2625,0.2682,-9.7334,-1.9543,0.9739,4.8,-0.7652
2630,0.1916,-9.6184,-2.031,1.113,4.8696,-0.6261
2635,0.3066,-9.6184,-1.9927,1.2522,4.8696,-0.6261
2640,0.2682,-9.6567,-1.9927,1.1826,4.6609,-0.487
2645,0.2299,-9.6184,-1.9543,1.2522,4.5217,-0.6261
2650,0.3066,-9.6567,-1.9543,1.1826,4.4522,-0.5565
2655,0.2682,-9.7717,-2.0693,1.1826,4.2435,-0.7652
2660,0.3449,-9.695,-1.9543,1.2522,4.2435,-0.5565
2665,0.3449,-9.695,-1.9927,1.1826,4.0348,-0.7652
2670,0.1916,-9.5801,-2.0693,1.113,4.0348,-0.7652
2675,0.3832,-9.7334,-2.1076,1.0435,3.9652,-0.8348
2680,0.2299,-9.7717,-1.916,0.9043,3.8957,-0.8348
2685,0.3449,-9.7334,-2.0693,0.8348,3.8261,-0.9739
2690,0.3449,-9.7717,-2.031,0.7652,3.7565,-1.0435
2695,0.2682,-9.695,-2.031,0.9043,3.7565,-1.113
2700,0.2682,-9.6567,-2.0693,0.9043,3.7565,-1.113
2705,0.3449,-9.6184,-2.031,1.0435,3.7565,-1.1826
2710,0.3449,-9.5801,-2.1843,0.9739,3.687,-1.113
2715,0.2299,-9.6567,-2.0693,0.9739,3.6174,-1.2522
2720,0.3449,-9.5418,-2.1459,0.8348,3.6174,-0.9739
2725,0.2682,-9.6184,-1.9927,0.6261,3.6174,-0.9739
2730,0.3066,-9.5801,-2.031,0.6957,3.4087,-0.9043
2735,0.3832,-9.6567,-2.0693,0.487,3.1304,-0.9043
2740,0.4215,-9.6184,-1.9543,0.2087,2.9217,-0.6957
2745,0.3449,-9.6184,-2.1459,0.1391,2.5739,-0.7652
2750,0.2299,-9.6567,-1.9927,0.0696,2.3652,-0.4174
2755,0.3066,-9.6567,-2.1459,0.2087,2.1565,-0.3478
2760,0.3066,-9.695,-2.1076,0.3478,1.8087,-0.0696
2765,0.3066,-9.695,-2.031,0.487,1.5304,-0.0696
2770,0.3066,-9.7717,-2.0693,0.6957,1.3217,0.0696
2775,0.2682,-9.6567,-2.031,1.0435,0.9043,0.2087
2780,0.2682,-9.6567,-1.9543,1.4609,0.5565,0.4174
2785,0.2299,-9.7334,-1.9927,1.7391,0.3478,0.4174
2790,0.2682,-9.6567,-1.916,2.087,0.0696,0.6957
2795,0.2299,-9.5801,-2.0693,2.4348,0.0,0.5565
2800,0.2682,-9.5034,-2.031,2.4348,-0.0696,0.6261
2805,0.3066,-9.5801,-1.9927,2.3652,0.0,0.4174
2810,0.2299,-9.4651,-2.031,2.0174,0.2087,0.4174
2815,0.2299,-9.4651,-2.031,1.6696,0.3478,0.2783
2820,0.3449,-9.4651,-1.9927,1.113,0.487,0.3478
2825,0.3066,-9.4651,-2.031,0.5565,0.5565,0.2783
2830,0.3832,-9.6184,-2.031,0.1391,0.6261,0.4174
2835,0.4215,-9.5418,-2.031,0.0,0.4174,0.487
2840,0.4215,-9.5801,-2.031,-0.2087,0.4174,0.6261
2845,0.3832,-9.5418,-1.9927,-0.2087,0.3478,0.6957
2850,0.2682,-9.5034,-2.031,-0.0696,0.3478,0.9043
2855,0.3066,-9.695,-1.9927,0.0696,0.3478,0.7652
2860,0.5365,-9.695,-1.916,0.0696,0.487,0.9043
2865,0.5365,-9.5801,-1.916,-0.2087,0.5565,0.7652
2870,0.3832,-9.81,-2.031,-0.4174,0.8348,0.7652
2875,0.4215,-9.5801,-1.916,-0.6261,0.9739,0.487
2880,0.4215,-9.5801,-1.8777,-0.6957,1.0435,0.5565
2885,0.2682,-9.6184,-1.9927,-0.7652,1.3217,0.4174
2890,0.4215,-9.5801,-1.9927,-0.8348,1.5304,0.487
2895,0.3066,-9.6184,-1.9543,-0.7652,1.6696,0.2783
2900,0.3832,-9.7334,-1.9543,-0.9043,1.6696,0.3478
2905,0.4215,-9.6567,-1.8011,-0.9739,1.6696,0.1391
2910,0.1533,-9.5801,-1.9927,-1.0435,1.7391,0.2783
2915,0.2299,-9.695,-1.9543,-1.0435,1.6696,0.0696
2920,0.3832,-9.6567,-1.9543,-1.0435,1.6,0.2087
2925,0.3066,-9.695,-1.8777,-0.9739,1.3913,-0.0696
2930,0.2682,-9.7717,-2.031,-0.6957,1.5304,0.1391
2935,0.1916,-9.7717,-1.8777,-0.487,1.4609,0.0696
2940,0.2299,-9.81,-1.9927,-0.2087,1.3913,0.2783
2945,0.2299,-9.7334,-1.8777,-0.0696,1.3913,0.1391
2950,0.1916,-9.8866,-1.916,0.1391,1.3913,0.2783
2955,0.4215,-9.8866,-1.9543,0.3478,1.3913,0.1391
2960,0.4215,-9.695,-1.8777,0.6261,1.5304,0.2783
2965,0.2682,-9.8483,-1.9927,0.7652,1.6696,0.0696
2970,0.4215,-9.81,-2.031,0.9043,1.9478,0.2783
2975,0.4598,-9.8483,-1.9927,1.1826,2.2261,0.0696
2980,0.3449,-9.7717,-2.031,1.113,2.5739,0.2087
2985,0.3832,-9.81,-1.8777,1.113,2.8522,0.0696
2990,0.3066,-9.695,-1.8777,1.1826,2.9913,0.1391
2995,0.4982,-9.7334,-2.031,0.9739,3.2,0.0696
