timestamp,accX,accY,accZ,gyroX,gyroY,gyroZ
0,1.8777,-10.6914,-2.2226,-6.3304,-28.8696,3.3391
5,1.6478,-10.4998,-1.916,-5.8435,-26.4348,2.087
10,1.6861,-10.3465,-1.6478,-5.3565,-25.7391,0.7652
15,1.9543,-10.3465,-1.3795,-5.0087,-26.7826,-0.487
20,2.2226,-10.1166,-1.0346,-4.5913,-28.1043,-1.3913
25,2.4142,-10.2698,-0.7281,-4.1739,-29.2174,-2.7826
30,2.1459,-9.7717,-0.1533,-3.7565,-28.8696,-7.1652
35,2.6824,-10.2315,-0.2682,-3.9652,-30.3304,-10.2957
40,2.9123,-10.3465,0.115,-4.5217,-33.2522,-8.2087
45,2.6058,-10.3465,0.0383,-4.8,-33.1826,-7.6522
50,2.0693,-10.3465,-0.2682,-5.0087,-32.0696,-7.8609
55,1.8394,-10.3848,-0.2299,-5.2174,-31.8609,-8.6957
60,1.5328,-10.4231,-0.6514,-6.1913,-32.2783,-9.6
65,1.3412,-10.653,-0.9197,-7.7913,-33.1826,-10.3652
70,1.1879,-10.768,-0.958,-8.9043,-34.2957,-10.8522
75,1.1113,-11.1129,-1.3795,-8.6957,-35.3391,-11.4783
80,1.1113,-11.3428,-1.8394,-8.487,-35.4783,-12.3826
85,0.9963,-11.4195,-1.9927,-7.9304,-35.4087,-13.0087
90,1.073,-11.6877,-2.1076,-6.8174,-34.9913,-13.1478
95,1.0346,-11.6494,-1.7627,-5.9826,-33.1826,-15.513
100,1.2263,-11.6494,-2.4525,-5.0783,-32.8348,-19.1304
105,1.7627,-11.6877,-2.5675,-3.5478,-34.1565,-14.4696
110,1.5328,-11.2279,-2.5675,-1.6,-31.8609,-9.6
115,1.5711,-10.8446,-3.4871,1.7391,-27.2696,-8.7652
120,1.9543,-10.5381,-4.4835,5.287,-24.0,-8.7652
125,2.1076,-10.5381,-5.4798,6.4,-21.7739,-9.7391
130,2.2992,-10.9213,-6.5528,4.5217,-20.6609,-11.8957
135,2.4525,-11.3045,-6.5911,-1.5304,-20.4522,-14.887
140,2.2992,-11.9176,-6.821,-9.5304,-20.6609,-18.6435
145,1.916,-12.4924,-6.3995,-20.1739,-20.5913,-23.3739
150,1.6861,-13.1055,-5.3648,-30.4,-19.5478,-27.4087
155,1.4562,-13.3738,-4.3685,-36.8,-17.113,-31.0261
160,1.1496,-13.4504,-2.989,-37.5652,-14.1913,-33.3913
165,0.8047,-13.1439,-2.9123,-31.0957,-10.9913,-34.4348
170,0.4982,-12.4924,-3.0273,-21.3565,-8.5565,-33.5304
175,0.0383,-11.7643,-3.1806,-11.6174,-7.0957,-32.4174
180,-0.4215,-10.6914,-3.4871,-2.7826,-5.9826,-32.0
185,-0.4598,-9.695,-3.8704,6.5391,-8.4174,-29.0783
190,-0.4982,-8.4688,-4.2919,13.4261,-10.5739,-23.4435
195,-0.7281,-7.5874,-4.5601,17.4609,-11.7565,-20.5913
200,-1.2263,-6.7061,-4.7134,19.7565,-13.3565,-18.3652
205,-1.1879,-6.3229,-4.5601,21.3565,-15.6522,-16.8348
210,-1.4179,-5.9396,-4.79,22.1913,-18.7826,-15.0957
215,-1.4179,-5.5564,-4.0236,21.6348,-22.4696,-13.5652
220,-1.6861,-5.5564,-6.2462,17.9478,-26.1565,-11.7565
225,-1.6861,-5.5948,-6.3229,9.8783,-28.7304,-10.4348
230,-1.6095,-5.8247,-6.6677,-1.8087,-31.5826,-9.2522
235,-1.3795,-6.3612,-5.8247,-17.7391,-32.7652,-9.2522
240,-1.2646,-7.0893,-4.6751,-28.1739,-32.6957,-9.6696
245,-1.3795,-7.5491,-3.6787,-31.7217,-32.6261,-10.5739
250,-1.4562,-7.8173,-3.5638,-29.4261,-34.087,-10.8522
255,-1.1496,-8.1239,-3.832,-26.087,-34.9913,-10.2957
260,-0.8814,-8.6221,-3.5255,-23.2348,-34.3652,-8.3478
265,-0.4215,-9.0436,-3.2955,-18.713,-32.1391,-6.8174
270,-0.1533,-9.4651,-3.4105,-13.6348,-29.2174,-5.9826
275,-0.0766,-9.6567,-3.4488,-8.6261,-25.8783,-5.3565
280,0.1533,-10.0399,-3.1039,-3.7565,-22.3304,-2.9913
285,0.2682,-10.0782,-3.4488,5.0783,-18.9217,-0.6261
290,0.4215,-10.0782,-4.2536,11.6174,-15.3043,2.713
295,0.843,-10.0016,-4.5601,13.287,-10.2261,6.1913
300,0.8814,-9.8483,-4.6368,11.5478,-5.3565,10.3652
305,0.9197,-9.5034,-4.2536,9.113,-0.5565,14.6087
310,1.1496,-9.3118,-4.0236,7.7913,4.0348,19.3391
315,1.073,-9.3118,-3.832,7.4435,8.2087,24.2087
320,1.1113,-9.1969,-3.9087,7.0261,12.3826,27.7565
325,0.9963,-9.0436,-4.0236,6.2609,15.2348,30.2609
330,1.2263,-9.0819,-3.8704,4.9391,16.9739,33.4609
335,1.1879,-9.1969,-3.6787,2.9217,18.4348,34.8522
340,1.1879,-9.1969,-3.3722,2.2957,19.1304,35.1304
345,1.1113,-9.0819,-3.4105,2.2957,19.2696,35.6174
350,1.2263,-9.3118,-3.6021,2.6435,19.687,37.2174
355,0.843,-9.1969,-3.2572,2.5739,21.4957,36.5217
360,0.7281,-9.0819,-3.3722,2.713,22.6783,35.0609
365,0.5748,-8.9286,-3.2955,2.5043,23.1652,33.8783
370,0.7281,-8.852,-3.2572,2.3652,24.0,32.6261
375,0.5748,-8.852,-3.4871,2.4348,23.513,33.3913
380,0.2299,-8.5454,-2.989,1.3217,25.113,31.5826
385,0.0766,-8.737,-2.6441,2.3652,27.2696,29.2174
390,0.0,-8.6604,-2.6824,5.3565,28.8696,28.313
395,0.0383,-8.6221,-2.6058,8.1391,30.3304,27.9652
400,0.1916,-8.737,-2.7207,10.9217,30.6087,30.1217
405,-0.4598,-8.5454,-2.7974,12.5913,33.4609,30.0522
410,-0.7281,-8.3155,-2.6824,14.1217,36.1043,27.4783
415,-0.6131,-8.3155,-3.2189,14.9565,36.3826,26.9217
420,-0.6898,-7.894,-3.4105,13.9826,36.5913,27.0609
425,-0.4982,-7.9706,-3.4871,12.3826,36.5217,29.9826
430,-1.0346,-7.7024,-3.9087,9.7391,38.9565,31.4435
435,-1.3029,-7.5491,-3.5255,5.4957,41.7391,30.1913
440,-1.1879,-7.5491,-3.4105,1.7391,42.4348,29.913
445,-1.1879,-7.5874,-3.4871,-2.0174,41.8087,31.2348
450,-1.3029,-7.5874,-3.3339,-5.7043,42.2957,31.5826
455,-1.5711,-7.6257,-3.0656,-9.3913,43.3391,29.913
460,-1.6478,-7.894,-2.9507,-11.9652,42.2957,28.2435
465,-1.5328,-8.0856,-2.7974,-13.913,40.2783,27.0609
470,-1.6095,-8.3538,-2.5291,-15.2348,38.1913,25.5304
475,-1.3795,-8.5071,-2.4142,-15.3043,35.7565,24.5565
480,-1.3795,-8.5838,-2.0693,-14.4,33.113,24.6957
485,-1.6095,-8.6604,-1.9927,-13.0783,32.7652,20.7304
490,-1.4562,-8.6987,-1.5328,-10.2957,30.2609,17.3913
495,-1.1113,-9.3885,-1.9543,-7.2348,27.4087,14.887
500,-1.1496,-8.967,-1.1496,-3.7565,25.9478,12.1739
505,-0.8814,-9.0819,-1.4179,-0.1391,24.9739,9.6
510,-0.6131,-8.6604,-1.6861,2.8522,24.2087,6.6087
515,-1.1879,-8.5071,-2.1843,5.3565,23.6522,4.5913
520,-0.0766,-8.967,-2.1843,7.9304,23.0957,3.4783
525,-0.5748,-8.6987,-1.916,10.4348,22.8174,5.9826
530,-0.6131,-8.6987,-1.7244,10.8522,25.6696,1.1826
535,-0.7281,-8.6604,-1.5711,11.6174,25.8783,-1.7391
540,-0.6131,-8.6987,-1.7244,12.3826,24.8348,-3.2
545,-0.4598,-8.6987,-1.5711,12.2435,24.3478,-2.9913
550,-0.3066,-8.6604,-1.5328,11.8957,23.0957,-1.0435
555,-0.6131,-8.5838,-1.6095,11.8261,22.6783,1.113
560,-0.6898,-8.3538,-1.5711,10.4348,23.8609,-1.6
565,-0.7281,-8.5071,-1.7627,8.6957,23.4435,-3.6174
570,-0.6131,-8.4688,-1.9543,6.6087,21.913,-4.7304
575,-0.4598,-8.6604,-2.1459,4.4522,20.8,-5.1478
580,-0.1533,-8.5838,-2.1459,2.1565,19.5478,-5.3565
585,-0.4215,-8.9286,-2.3759,-0.2087,18.2957,-3.4087
590,-0.4598,-8.8137,-2.1076,-2.9217,19.687,-5.7043
595,-0.4215,-9.1586,-2.2992,-5.6348,20.1739,-8.2087
600,-0.3832,-9.1586,-2.2226,-8.2087,19.4783,-9.3217
605,-0.3066,-9.5801,-2.1076,-10.1565,19.1304,-9.7391
610,-0.3066,-9.695,-2.1843,-11.687,18.9217,-10.2957
615,-0.2299,-9.6567,-2.1459,-12.8,18.9913,-10.5043
620,-0.3066,-9.8866,-2.1459,-13.8435,18.9217,-10.7826
625,-0.3449,-9.7334,-2.1459,-14.4696,18.713,-10.9217
630,-0.3066,-9.8866,-2.1076,-15.0957,18.8522,-10.9913
635,-0.3832,-9.9633,-2.1459,-15.5826,19.1304,-10.713
640,-0.4598,-10.0016,-2.031,-15.513,19.7565,-10.4348
645,-0.4215,-10.1932,-1.8394,-14.6783,20.8,-9.8087
650,-0.3832,-10.3465,-1.6861,-13.2174,22.0522,-9.3217
655,-0.3832,-10.3465,-1.6478,-11.6174,23.6522,-8.5565
660,-0.2682,-10.3082,-1.3795,-9.7391,25.2522,-8.0
665,-0.2299,-10.4614,-1.4562,-7.9304,26.7826,-7.4435
670,-0.2682,-10.5764,-1.4179,-6.4696,28.2435,-6.5391
675,0.0,-10.653,-1.3029,-5.1478,29.7739,-5.5652
680,0.1533,-10.883,-1.1496,-3.8261,31.0957,-4.8
685,0.2299,-11.0363,-1.2263,-2.4348,32.3478,-4.313
690,0.3449,-11.1895,-1.1496,-0.8348,33.4609,-4.0348
695,0.6898,-10.9596,-1.2646,0.9739,34.713,-3.687
700,0.7664,-11.6494,-1.1879,3.687,32.8348,3.0609
705,-0.0766,-11.4195,-0.9197,5.4957,36.313,4.1043
710,-0.115,-11.4195,-1.4562,6.4696,40.2087,-1.1826
715,0.0766,-11.2662,-1.3795,8.487,39.6522,-2.9913
720,0.4598,-11.2662,-1.3029,10.3652,38.0522,-1.113
725,0.115,-11.3045,-1.1113,11.4783,38.6087,-0.1391
730,-0.2299,-11.1129,-0.8814,12.5913,41.113,-0.9739
735,-0.3832,-10.8063,-0.5365,13.2174,42.1565,-1.3913
740,-0.3832,-10.768,-0.3066,14.5391,42.2957,0.5565
745,-0.4215,-10.7297,-0.6131,15.3739,42.7826,1.5304
750,-0.6131,-10.4998,-0.4982,15.1652,43.8957,2.087
755,-0.4215,-10.2698,-0.3066,14.2609,44.8696,2.9913
760,-0.4215,-10.1932,-0.4215,13.5652,45.5652,4.5913
765,-0.5748,-9.9633,-0.5748,12.2435,46.1913,4.9391
770,-0.4598,-9.925,-0.958,10.5739,46.4,5.0087
775,-0.3832,-9.925,-1.1113,8.487,46.1913,5.913
780,-0.4215,-9.925,-1.3029,6.6087,47.0261,6.887
785,-0.5748,-9.925,-1.6095,5.287,48.0,8.1391
790,-0.7281,-10.1549,-1.8011,3.7565,48.6957,9.3217
795,-0.958,-10.3848,-1.916,2.3652,48.6261,10.1565
800,-1.1496,-10.6914,-2.1843,1.3913,47.9304,11.2
805,-1.3412,-10.883,-2.2992,0.2783,47.1652,12.2435
810,-1.5328,-11.3045,-2.6824,-0.3478,46.2609,13.287
815,-1.8011,-11.726,-3.0273,-0.487,45.7043,13.4957
820,-1.9543,-12.2242,-3.7554,0.2087,45.0087,14.4696
825,-2.2226,-12.4158,-4.2919,1.9478,43.8261,15.5826
830,-2.4908,-12.6074,-4.905,4.5217,42.0174,17.4609
835,-3.0656,-12.684,-5.8247,6.0522,40.5565,19.7565
840,-3.5638,-13.2205,-6.4378,6.4,38.887,24.0
845,-3.8704,-13.6804,-6.9743,5.913,34.8522,29.9826
850,-3.6021,-13.9103,-7.0509,4.2435,28.6609,37.9826
855,-2.7591,-13.6804,-6.5911,1.6696,21.287,45.9826
860,-1.4562,-13.3738,-6.0929,-1.6,14.4696,53.287
865,-0.4215,-12.6074,-5.7864,-3.6174,9.8783,58.4348
870,0.115,-11.6111,-5.7864,-4.9391,8.487,55.0957
875,0.3066,-10.4231,-5.5181,-5.4261,8.1391,49.0435
880,0.4598,-9.5801,-5.3648,-3.8957,9.3913,44.313
885,0.9197,-8.8137,-5.02,-0.5565,10.9217,39.2348
890,1.5711,-8.0856,-4.7517,4.8,12.3826,34.0174
895,2.0693,-7.4341,-4.5218,11.7565,14.0522,28.3826
900,2.7974,-6.6677,-4.4835,19.0609,16.5565,23.513
905,3.2955,-6.3229,-4.3685,25.3913,19.4087,18.7826
910,3.5638,-6.3612,-4.4068,29.1478,23.6522,13.7043
915,3.9087,-6.6677,-4.4452,28.8696,28.5913,8.0696
920,4.2536,-7.0509,-4.2919,26.087,32.9043,2.9217
925,4.2536,-7.779,-4.1769,21.9826,38.0522,-4.2435
930,3.3722,-8.5454,-4.1003,16.8348,43.8957,-10.1565
935,2.5675,-9.0819,-3.8704,12.0348,47.0957,-14.6087
940,1.916,-9.6184,-3.1039,6.887,48.1391,-17.0435
945,1.8394,-10.1549,-0.4215,3.687,46.887,-19.1304
950,1.073,-10.6914,-1.8777,13.4261,44.3826,-20.9391
955,0.9197,-10.6147,-2.3375,21.4261,40.0696,-21.3565
960,0.4598,-10.6914,-2.989,23.6522,37.0087,-21.4261
965,-0.0383,-10.7297,-2.989,22.4696,34.0174,-22.4696
970,-0.5365,-10.6914,-3.1806,19.8957,31.1652,-23.3739
975,-0.4982,-10.3848,-3.1039,17.3217,28.6609,-25.8783
980,-0.4982,-10.4998,-3.0656,14.7478,23.5826,-24.6261
985,-0.5748,-10.3848,-3.1806,12.5217,21.1478,-24.9043
990,-0.958,-10.1549,-2.7974,10.1565,19.2696,-27.4783
995,-1.1879,-9.925,-2.9507,8.9739,15.9304,-29.7043
1000,-1.1113,-9.7334,-3.1039,8.6261,11.4783,-29.8435
1005,-1.2646,-9.4268,-3.0273,7.7913,8.0,-31.2348
1010,-1.3029,-8.967,-3.4105,6.6783,4.2435,-33.0435
1015,-1.073,-8.737,-3.4871,5.6348,0.0696,-33.4609
1020,-1.0346,-8.3921,-3.3722,4.3826,-2.9913,-34.087
1025,-0.7281,-7.894,-3.5255,2.8522,-5.0783,-34.9913
1030,-0.4598,-7.7407,-3.2572,2.087,-6.2609,-35.4783
1035,-0.4598,-7.4341,-3.4488,2.5043,-6.8174,-35.3391
1040,-0.3449,-7.3575,-3.2955,2.9913,-7.4435,-34.087
1045,-0.3066,-7.0509,-2.6441,4.1043,-6.8174,-33.7391
1050,0.0,-6.8977,-2.6058,6.1913,-6.5391,-34.3652
1055,0.1916,-6.821,-2.5675,8.9739,-8.3478,-33.3913
1060,0.1533,-6.8593,-2.6824,10.8522,-10.3652,-32.3478
1065,0.1533,-6.936,-2.6441,11.8261,-12.5217,-31.3043
1070,0.1916,-7.0509,-2.4525,11.7565,-15.0261,-30.6783
1075,0.0,-7.5108,-2.7974,10.6435,-18.5739,-29.7739
1080,0.5365,-7.4341,-2.4908,7.6522,-20.6609,-31.4435
1085,0.958,-7.5874,-2.8357,4.4522,-25.1826,-28.5217
1090,1.073,-7.8173,-2.7974,0.9043,-27.5478,-25.7391
1095,1.073,-8.0089,-2.6441,-2.3652,-28.0348,-24.6957
1100,1.2263,-8.2772,-2.4142,-4.8696,-28.5913,-24.4174
1105,1.3412,-8.5071,-2.3375,-6.4,-29.2174,-24.2087
1110,1.5328,-8.8137,-2.3375,-7.1652,-29.6348,-24.4174
1115,1.5711,-8.967,-2.2992,-7.4435,-29.9826,-24.3478
1120,1.5711,-9.0053,-2.1843,-7.3739,-29.8435,-24.1391
1125,1.073,-9.7717,-2.5291,-6.5391,-29.3565,-23.2348
1130,1.5328,-8.8137,-2.031,-5.0087,-27.687,-25.5304
1135,1.9543,-8.852,-2.1459,-2.8522,-28.8,-21.5652
1140,1.9927,-8.7754,-2.0693,-0.5565,-26.9913,-18.3652
1145,1.8394,-8.5071,-2.3375,1.9478,-23.5826,-15.4435
1150,1.9927,-8.5454,-2.2609,3.3391,-20.2435,-13.0783
1155,1.8777,-8.5071,-2.4142,3.8261,-16.7652,-10.5043
1160,1.916,-8.4688,-2.1459,3.8261,-13.6348,-7.9304
1165,1.9543,-8.4305,-2.0693,4.2435,-11.1304,-4.8
1170,1.9543,-8.4305,-1.916,4.5913,-9.5304,-2.3652
1175,2.031,-8.4688,-1.8777,4.8696,-8.2087,0.5565
1180,2.031,-8.4305,-1.6861,5.6348,-7.513,2.3652
1185,1.916,-8.2389,-1.6095,6.1913,-7.2348,4.2435
1190,2.1459,-8.7754,-1.7244,6.6087,-7.0261,5.913
1195,2.0693,-8.2772,-1.5711,6.887,-6.8174,7.7913
1200,2.031,-8.3538,-1.6095,6.6783,-6.1217,8.9043
1205,1.9927,-8.5454,-1.5711,5.4957,-5.6348,9.8783
1210,1.7627,-8.4688,-1.3412,3.9652,-5.3565,10.5739
1215,1.7627,-8.5838,-1.2263,2.5043,-5.7043,11.6174
1220,1.4945,-8.5838,-0.8814,2.0174,-6.6087,12.3826
1225,1.5328,-8.737,-1.1879,2.713,-7.8609,14.0522
1230,1.6861,-8.9286,-1.1113,3.5478,-8.9739,14.887
1235,1.6478,-9.0819,-1.1879,3.3391,-8.9739,15.1652
1240,1.6861,-9.1969,-1.1113,2.713,-8.2087,14.887
1245,1.2263,-9.1969,-0.958,2.7826,-7.513,14.4
1250,0.843,-9.1202,-1.1496,3.0609,-6.8174,13.5652
1255,0.2682,-8.967,-1.073,2.9913,-6.8174,13.4957
1260,-0.2299,-9.0436,-1.3412,2.5739,-8.0,13.9826
1265,-0.3449,-9.1586,-0.7664,1.1826,-8.2087,11.0609
1270,0.0,-9.3885,-1.5328,-0.6261,-12.4522,9.7391
1275,0.2299,-9.695,-1.3029,-1.4609,-16.6957,14.1217
1280,0.0766,-9.925,-1.5328,-2.087,-16.5565,14.5391
1285,0.115,-10.0782,-1.6095,-2.3652,-16.0696,14.4696
1290,-0.0766,-10.1932,-1.8777,-2.8522,-15.5826,13.7043
1295,-0.0766,-10.1932,-1.8777,-2.9913,-15.7217,13.7739
1300,-0.115,-10.3848,-2.2992,-2.9913,-16.0,13.7739
1305,0.2682,-10.3082,-2.2226,-3.2696,-16.5565,13.8435
1310,-0.5365,-11.6111,-2.989,-3.3391,-16.8348,12.8
1315,0.115,-10.2315,-1.8011,-3.6174,-15.4435,5.8435
1320,0.9197,-10.2698,-2.1459,-2.7826,-18.2957,4.0348
1325,1.3412,-10.1549,-1.9543,-2.2261,-20.9391,6.1913
1330,1.073,-10.1549,-1.8394,-1.8087,-19.8957,5.0783
1335,1.073,-10.1166,-1.6095,-1.9478,-19.2,3.3391
1340,1.0346,-10.0016,-1.4179,-2.5739,-19.8261,1.3913
1345,1.2263,-10.1932,-1.2263,-3.6174,-21.0087,0.2783
1350,1.4562,-10.3465,-1.0346,-4.9391,-21.9826,-0.5565
1355,1.5328,-10.6147,-0.7664,-6.2609,-22.6087,-1.2522
1360,0.958,-10.883,-1.0346,-7.4435,-21.7043,-4.313
1365,1.6095,-10.9979,-0.4982,-8.0,-22.0522,-8.6957
1370,1.9927,-11.2662,-0.1533,-8.2087,-25.3913,-6.6087
1375,1.916,-11.6111,-0.0383,-7.7217,-25.8087,-5.6348
1380,1.4179,-11.5727,-0.3449,-6.1217,-25.113,-6.5391
1385,0.9963,-11.6111,-0.4598,-5.0087,-25.8087,-7.7913
1390,0.843,-11.6494,-0.7664,-3.8261,-27.4087,-8.9043
1395,0.9963,-11.8027,-0.9963,-3.4783,-29.287,-9.6696
1400,1.073,-11.8027,-1.1879,-2.5739,-31.3043,-10.5739
1405,1.1113,-11.841,-1.3412,-0.9043,-32.6261,-11.8957
1410,0.6898,-12.1475,-2.3759,0.4174,-32.5565,-14.1913
1415,1.073,-11.6111,-1.6861,0.6957,-32.5565,-19.9652
1420,1.4179,-11.726,-1.8011,0.6261,-34.9913,-18.2261
1425,1.4945,-11.8027,-1.6478,0.7652,-34.8522,-14.2609
1430,1.3795,-11.6494,-1.4562,2.2261,-31.7217,-13.2174
1435,1.1113,-11.1512,-1.4945,4.3826,-29.0783,-12.9391
1440,1.2263,-10.8446,-2.2609,7.0957,-27.4783,-12.6609
1445,1.2263,-10.4998,-2.9123,9.0435,-26.7826,-12.7304
1450,1.4179,-10.5381,-3.947,9.1826,-26.2261,-12.4522
1455,1.6478,-10.768,-4.6368,7.3739,-26.2261,-12.6609
1460,1.6478,-11.0363,-5.0583,2.9913,-26.5043,-14.0522
1465,1.2263,-11.4961,-5.02,-3.4087,-27.8957,-16.5565
1470,0.8814,-12.2625,-4.6368,-9.113,-30.2609,-19.7565
1475,0.7281,-12.8373,-4.4452,-13.0087,-32.1391,-24.1391
1480,0.3832,-12.7607,-3.4105,-16.6261,-30.2609,-30.1217
1485,0.2299,-13.2205,-3.7554,-17.1826,-28.3826,-35.3391
1490,0.2682,-13.3355,-3.3722,-13.913,-26.9217,-32.2087
1495,-0.115,-12.6074,-3.3722,-8.3478,-22.8174,-30.6783
1500,-0.3066,-11.7643,-3.4488,-2.2261,-19.5478,-29.6348
1505,-0.2682,-10.4998,-4.062,2.6435,-18.2261,-28.1739
1510,-0.1916,-9.3502,-4.3302,5.3565,-17.3913,-25.6
1515,0.1533,-8.3155,-4.9433,6.4,-16.6261,-24.2087
1520,0.2682,-7.4341,-4.8284,5.0783,-15.7913,-24.0696
1525,-0.1533,-6.6677,-4.7134,3.687,-16.7652,-23.7913
1530,-0.1533,-6.1696,-4.6751,2.0174,-19.4783,-23.5826
1535,-0.3066,-5.7097,-4.905,-0.3478,-23.5826,-23.8609
1540,-0.3449,-5.6331,-6.2462,-4.4522,-28.4522,-23.7913
1545,-0.3449,-5.4032,-5.2882,-12.4522,-32.2087,-23.8609
1550,-0.4598,-5.4032,-5.6331,-23.1652,-35.8957,-23.3043
1555,-0.5748,-5.6331,-4.7517,-34.9913,-39.0261,-23.0261
1560,-0.7281,-5.863,-3.9087,-43.6174,-41.5304,-22.1913
1565,-0.8047,-6.3995,-3.2955,-45.4957,-43.7565,-21.4261
1570,-1.073,-6.7444,-3.0656,-42.7826,-44.9391,-19.8957
1575,-1.0346,-7.5108,-2.7591,-37.9826,-45.1478,-17.9478
1580,-0.7281,-7.894,-2.874,-29.7739,-44.1043,-15.3739
1585,-0.4598,-8.4688,-3.1423,-23.0957,-42.2261,-13.4261
1590,-0.2299,-8.9286,-2.3759,-16.6957,-38.9565,-11.4087
1595,-0.1533,-9.6184,-1.8777,-7.5826,-34.4348,-9.5304
1600,0.0383,-9.9633,-3.1806,6.1217,-29.6348,-6.4696
1605,0.1533,-10.1932,-3.9853,13.7043,-24.5565,-3.1304
1610,0.4215,-10.1549,-3.6404,15.0957,-19.8957,1.3217
1615,0.6514,-10.1932,-3.7171,15.3739,-15.1652,5.8435
1620,0.8814,-10.1166,-3.832,15.5826,-10.0174,11.0609
1625,1.1879,-9.925,-3.9087,14.4696,-4.4522,17.0435
1630,1.3029,-9.5418,-4.062,10.8522,2.3652,21.7739
1635,1.2263,-9.4268,-3.8704,5.7739,6.4,26.1565
1640,1.3029,-9.3885,-3.5255,0.6957,9.7391,30.4
1645,1.2646,-9.2735,-3.4488,-3.2,12.5217,32.6261
1650,1.3029,-9.4651,-3.2955,-5.7739,13.9826,34.1565
1655,1.4179,-9.5801,-3.1423,-8.0696,13.7043,35.1304
1660,1.3029,-9.695,-2.9123,-9.7391,13.0087,35.8957
1665,1.1496,-9.8483,-2.7591,-9.9478,12.3826,35.687
1670,1.1496,-9.925,-2.7974,-8.6261,11.8261,35.2
1675,1.0346,-9.8483,-2.8357,-6.7478,11.687,33.9478
1680,0.958,-9.8483,-2.6058,-5.287,12.1739,32.5565
1685,0.7281,-9.8483,-2.7207,-4.5913,12.5913,30.8174
1690,0.4598,-9.8483,-2.8357,-4.8,12.6609,29.913
1695,0.3066,-9.6567,-2.5291,-5.0783,12.8,29.0087
1700,0.2682,-9.7334,-2.4908,-4.4522,13.8435,28.2435
1705,0.1533,-9.695,-2.2226,-3.1304,15.1652,27.8261
1710,-0.0383,-9.6184,-2.3759,-0.8348,15.9304,27.7565
1715,0.0383,-9.4268,-2.2992,1.4609,16.2087,26.9913
1720,0.4598,-8.7754,-2.031,3.5478,16.2087,26.2957
1725,-0.1916,-9.3885,-2.6058,5.7043,14.2609,29.0783
1730,-0.6131,-8.852,-2.1076,6.6087,17.3217,25.113
1735,-0.6131,-8.7754,-2.5291,6.887,18.2261,23.3043
1740,-0.6898,-8.5454,-2.5291,6.3304,18.4348,22.8174
1745,-0.8814,-8.3921,-2.5291,5.0783,19.0609,22.4
1750,-0.843,-8.3921,-2.5675,4.0348,19.9652,22.3304
1755,-1.073,-8.3921,-2.4908,2.4348,20.8696,22.2609
1760,-1.1113,-8.1239,-2.4908,0.2087,21.4261,22.4
1765,-1.073,-8.1239,-1.9543,-1.2522,19.9652,26.0174
1770,-1.8394,-7.9706,-2.1843,-3.2,21.0087,27.1304
1775,-1.8011,-7.7407,-2.3759,-4.7304,22.5391,24.4174
1780,-1.5328,-7.6641,-2.2992,-6.5391,20.7304,23.6522
1785,-1.4562,-7.779,-2.3375,-8.487,19.1304,23.0261
1790,-1.3795,-7.8173,-2.1459,-10.2957,17.7391,22.1217
1795,-1.1879,-8.3155,-1.9543,-10.9913,15.1652,23.7217
1800,-1.7627,-8.0089,-1.8011,-11.687,15.5826,20.5913
1805,-1.4562,-8.2389,-1.8011,-10.6435,14.0522,17.8783
1810,-1.1879,-8.1239,-1.916,-9.113,11.1304,15.4435
1815,-0.9963,-8.3155,-2.0693,-8.5565,9.113,13.2174
1820,-0.6898,-8.5838,-2.1459,-8.487,7.5826,11.2
1825,-0.958,-8.4688,-1.8777,-8.2783,6.4696,10.5739
1830,-1.073,-8.3155,-1.7244,-8.3478,7.0957,5.1478
1835,-0.6898,-8.5838,-1.8011,-6.8174,5.3565,1.8087
1840,-0.4598,-8.6221,-1.8394,-5.7043,3.8957,-1.0435
1845,-0.4215,-8.5071,-1.6861,-4.8696,3.4783,-3.3391
1850,-0.4598,-8.6604,-1.7244,-3.8957,3.6174,-6.0522
1855,-0.5365,-8.6987,-1.7627,-3.3391,3.8261,-7.7913
1860,-0.4982,-8.7754,-1.6861,-2.6435,4.2435,-9.3913
1865,-0.4598,-8.852,-1.8394,-1.5304,4.2435,-10.3652
1870,-0.4215,-8.967,-1.7627,-0.4174,4.5913,-11.2696
1875,-0.4598,-8.9286,-1.6095,0.2783,5.0783,-11.7565
1880,-0.3449,-9.1202,-1.5711,1.3217,6.2609,-12.4522
1885,-0.3832,-9.1202,-1.8394,2.0174,7.0957,-12.5913
1890,-0.3066,-9.2352,-1.6861,2.087,7.9304,-12.9391
1895,-0.3066,-9.4268,-1.6861,1.8783,8.487,-12.7304
1900,-0.2299,-9.5034,-1.5711,1.3913,8.9043,-13.0087
1905,-0.1533,-9.5801,-1.5328,0.6957,8.9739,-12.8
1910,-0.115,-9.6567,-1.8011,0.0,8.8348,-12.8
1915,-0.2299,-9.5418,-1.8011,-0.2087,8.5565,-12.2435
1920,0.0,-9.7717,-1.6095,-0.2087,8.3478,-11.8261
1925,0.0766,-9.695,-1.8011,-0.3478,8.3478,-11.2696
1930,0.1533,-9.6184,-2.031,-0.9739,8.3478,-11.6174
1935,0.115,-9.5418,-2.0693,-1.3217,8.2783,-11.6174
1940,0.115,-9.4651,-2.1843,-2.0174,8.1391,-11.6174
1945,0.0,-9.5801,-2.3375,-3.4783,8.6957,-10.9913
1950,0.0766,-9.695,-2.2992,-5.0783,9.3913,-10.4348
1955,0.0,-9.695,-2.2226,-6.4696,10.087,-9.8087
1960,0.0383,-9.695,-2.2609,-7.9304,10.9217,-9.3913
1965,-0.0383,-9.695,-2.2992,-9.3217,11.9652,-8.4174
1970,-0.1916,-9.81,-2.1459,-10.9217,13.2174,-7.8609
1975,-0.115,-9.81,-2.1076,-12.6609,14.5391,-6.6087
1980,-0.1533,-9.8866,-2.1076,-14.3304,15.8609,-5.7043
1985,-0.3449,-10.0016,-1.8777,-15.0957,17.0435,-4.5913
1990,-0.2682,-10.0399,-1.9543,-15.6522,18.2957,-3.7565
1995,-0.2682,-10.1932,-1.8394,-15.8609,19.6174,-2.5739
2000,-0.4215,-10.2315,-1.8777,-15.513,20.5913,-1.6
2005,-0.3449,-10.3465,-1.8394,-14.6783,21.4957,-0.4174
2010,0.0383,-10.2698,-0.9197,-12.7304,20.5913,3.7565
2015,-0.6514,-10.4998,-2.1843,-10.2261,20.6609,10.9217
2020,-1.073,-10.2698,-1.8011,-9.8087,26.5043,6.3304
2025,-0.9963,-10.4998,-1.8777,-9.0435,27.4783,4.3826
2030,-0.6514,-10.653,-1.9543,-8.0,25.6,6.2609
2035,-0.7664,-10.7297,-1.7244,-7.5826,26.2957,8.5565
2040,-0.958,-10.7297,-1.4562,-7.7217,28.7304,7.513
2045,-0.958,-10.9979,-1.3795,-6.887,30.5391,6.887
2050,-0.843,-11.1895,-1.2646,-5.7739,31.0261,8.0696
2055,-1.1496,-11.0746,-0.9197,-5.0783,32.2783,9.2522
2060,-1.1879,-11.0363,-0.843,-4.7304,34.5043,8.4174
2065,-0.9963,-11.2662,-0.9963,-4.1043,35.687,8.4174
2070,-0.9197,-11.1129,-0.9963,-3.3391,36.1043,9.1826
2075,-0.843,-11.0746,-1.1113,-2.713,36.8696,10.3652
2080,-0.843,-11.0746,-0.958,-2.3652,37.913,11.2
2085,-0.6514,-11.0363,-1.0346,-1.9478,39.2348,11.9652
2090,-0.8047,-11.4578,-1.1496,-1.2522,39.513,13.913
2095,-1.0346,-11.3811,-1.3795,-0.6957,40.0696,14.0522
2100,-1.1113,-11.1129,-1.6095,0.1391,40.2783,13.7739
2105,-1.1496,-11.1895,-1.7627,0.8348,39.4435,14.0522
2110,-1.1879,-11.1512,-2.1076,1.3913,38.3304,14.6783
2115,-1.1496,-11.1512,-2.2226,1.6696,37.3565,15.2348
2120,-1.3795,-10.9979,-2.2609,1.3913,36.313,15.9304
2125,-1.073,-10.9979,-2.5291,0.9043,34.9217,17.1826
2130,-1.4945,-11.4961,-2.7591,1.2522,32.5565,21.8435
2135,-1.8011,-11.2279,-2.9123,1.7391,33.6,21.5652
2140,-1.8777,-11.5727,-3.3722,1.5304,33.5304,21.0087
2145,-2.031,-11.6877,-3.7171,1.9478,32.2087,21.7739
2150,-2.3375,-11.8027,-4.1003,1.8783,30.8174,23.513
2155,-2.5675,-12.1092,-4.5218,0.9739,29.0087,25.3913
2160,-2.7974,-12.4541,-4.7517,-0.4174,26.0174,27.7565
2165,-2.8357,-12.6457,-4.7134,-1.8087,21.7043,30.7478
2170,-2.5675,-12.7607,-4.5218,-2.3652,16.0696,35.6174
2175,-2.031,-12.9523,-4.5601,-1.0435,9.9478,42.9913
2180,-1.7244,-12.8373,-4.3302,0.487,7.6522,43.3391
2185,-0.9963,-12.6074,-3.9087,2.713,5.5652,40.1391
2190,-0.4982,-12.1859,-3.832,5.287,4.1043,35.8261
2195,-0.1916,-11.6494,-3.832,8.2783,3.9652,31.0261
2200,0.1916,-10.8063,-4.1769,11.4783,4.8,25.5304
2205,0.4982,-9.925,-4.3685,15.3739,6.4696,19.4087
2210,0.843,-9.1969,-4.6751,19.6174,8.5565,14.2609
2215,1.073,-8.7754,-4.7517,23.3043,11.0609,9.3217
2220,1.6095,-8.0089,-4.9816,26.087,13.913,5.5652
2225,2.1843,-7.5491,-4.9433,27.8261,18.0174,1.6696
2230,2.7974,-7.0509,-4.9816,28.5913,22.1913,-0.9043
2235,3.2955,-6.821,-4.9433,27.9652,26.9913,-3.4783
2240,3.4105,-6.5911,-5.02,25.4609,31.8609,-5.9826
2245,3.6021,-6.6294,-4.9433,20.6609,36.1043,-7.7913
2250,3.7171,-6.7444,-5.1732,14.6087,39.2348,-8.4174
2255,3.6021,-6.6294,-4.5601,7.5826,41.3913,-8.8348
2260,3.5255,-6.936,-3.947,2.9913,42.2261,-8.2087
2265,3.3722,-7.4341,-3.6404,1.8783,42.1565,-7.5826
2270,2.989,-8.0089,-3.7937,2.3652,41.7391,-7.0261
2275,2.5291,-8.5071,-3.9853,2.7826,40.8348,-7.2348
2280,2.031,-8.852,-4.062,1.9478,39.3739,-7.0957
2285,1.8011,-8.8137,-3.9087,0.4174,37.287,-6.887
2290,1.4562,-8.8137,-3.5638,-0.9043,34.2261,-6.4
2295,1.2263,-8.967,-3.7937,-1.8087,31.2348,-6.0522
2300,0.7664,-9.2735,-3.6404,-2.8522,28.7304,-6.0522
2305,0.3449,-9.3885,-3.5255,-4.1739,26.4348,-7.7913
2310,0.0383,-9.4651,-3.5255,-5.1478,23.3739,-10.9913
2315,-0.115,-9.3118,-3.4488,-5.8435,19.1304,-11.9652
2320,-0.2682,-9.4651,-3.1039,-5.7739,15.3739,-12.7304
2325,-0.5748,-9.81,-2.9507,-4.9391,12.2435,-15.3043
2330,-0.4598,-9.6567,-2.874,-1.8087,10.0174,-19.2696
2335,-0.4598,-9.695,-3.1423,1.3217,5.913,-20.9391
2340,-0.4598,-9.6567,-3.3722,2.7826,3.9652,-21.4261
2345,-0.6131,-9.7334,-3.4105,2.9217,3.8261,-23.4435
2350,-0.7664,-9.8483,-3.4105,2.9913,3.8957,-24.9043
2355,-0.9197,-9.8483,-3.1806,3.1304,4.0348,-26.8522
2360,-0.843,-9.695,-3.4105,3.4783,3.8261,-29.913
2365,-0.7664,-9.7334,-3.3339,4.3826,1.3217,-28.6609
2370,-0.4598,-9.695,-3.5638,5.0783,-0.1391,-26.9913
2375,-0.3066,-9.695,-3.2572,5.7739,-1.0435,-27.0609
2380,-0.2299,-9.3885,-3.2189,6.8174,-2.087,-27.4087
2385,0.0,-9.0819,-3.2189,7.7913,-2.8522,-29.1478
2390,0.3066,-8.8903,-3.2572,8.4174,-4.5913,-29.5652
2395,0.6131,-8.5838,-3.2572,8.8348,-6.8174,-26.5043
2400,0.7281,-8.1239,-2.874,9.113,-7.3043,-25.113
2405,0.8047,-8.0089,-3.0273,9.7391,-7.4435,-24.487
2410,0.958,-7.8173,-2.8357,9.9478,-8.1391,-24.1391
2415,1.0346,-7.7024,-2.9507,9.2522,-9.1826,-23.6522
2420,1.0346,-7.3575,-2.7207,7.3043,-8.9739,-25.6696
2425,1.5328,-7.5108,-2.874,5.4957,-11.2696,-26.2957
2430,1.8394,-7.4725,-2.7591,3.687,-13.4957,-23.3043
2435,1.7627,-7.5491,-2.6824,1.5304,-13.2174,-21.8435
2440,1.6478,-7.7024,-2.7207,-0.6261,-12.6609,-21.2174
2445,1.6478,-7.5108,-2.7207,-2.9913,-11.9652,-22.1217
2450,1.8394,-7.3958,-2.8357,-5.4261,-12.9391,-21.9826
2455,2.0693,-7.5491,-2.6058,-7.1652,-14.0522,-19.2696
2460,2.031,-7.5108,-2.4908,-8.3478,-13.287,-17.7391
2465,1.9543,-7.4725,-2.3759,-8.6261,-11.8957,-16.7652
2470,2.1076,-7.5108,-2.1843,-8.3478,-10.9913,-16.1391
2475,1.9927,-7.4725,-2.3759,-7.6522,-9.8783,-15.513
2480,1.9927,-7.4725,-2.5291,-7.1652,-8.7652,-14.887
2485,1.9927,-7.4725,-2.3759,-6.9565,-7.7913,-13.913
2490,1.8011,-7.5491,-2.4142,-7.0261,-6.6783,-13.0783
2495,1.8011,-7.6641,-2.2992,-7.4435,-5.4957,-11.8261
2500,1.7244,-7.8557,-2.2992,-8.0696,-4.4522,-10.7826
2505,1.8011,-8.0089,-2.4525,-8.5565,-3.2696,-9.3913
2510,1.3029,-8.8137,-2.5675,-9.4609,-1.6696,-8.2783
2515,1.4179,-8.3155,-2.1076,-10.8522,0.8348,-10.5739
2520,1.6861,-8.5454,-2.1843,-11.1304,-0.487,-7.7217
2525,1.8394,-8.8137,-2.3759,-10.9217,0.6261,-2.8522
2530,1.6861,-9.0819,-2.1843,-11.687,3.2696,-1.113
2535,1.3412,-9.2352,-1.9543,-11.6174,4.6609,0.5565
2540,1.2646,-9.1969,-1.7244,-10.9913,5.287,2.3652
2545,1.4562,-9.4651,-1.7627,-9.4609,5.4957,4.8
2550,1.4562,-9.5418,-1.3412,-7.7913,4.9391,6.6087
2555,1.5328,-9.6567,-1.5328,-5.5652,4.1739,8.5565
2560,1.6095,-9.4651,-1.4562,-3.2696,3.9652,9.8087
2565,1.5711,-9.5801,-1.4945,-1.8087,3.7565,10.9217
2570,1.6478,-9.5034,-1.5328,-0.8348,3.3391,11.6174
2575,1.4945,-9.5418,-1.5711,-0.0696,2.6435,12.1043
2580,1.3795,-9.3118,-1.5328,0.5565,1.6,12.2435
2585,1.1879,-8.852,-0.7664,0.5565,1.3217,10.7826
2590,1.1879,-9.2735,-1.6095,0.487,-0.0696,7.3739
2595,1.6478,-9.3502,-1.8011,0.3478,-3.7565,10.2957
2600,1.5711,-9.1969,-1.6861,-0.5565,-4.313,12.0348
2605,0.9963,-9.0819,-1.6095,-1.4609,-3.3391,11.8261
2610,0.7664,-9.1202,-1.4179,-2.1565,-2.9913,10.713
2615,0.3832,-9.2735,-1.3412,-3.0609,-3.7565,10.087
2620,-0.115,-9.0819,-1.3412,-3.7565,-5.3565,9.8783
2625,-0.3832,-9.1586,-1.4562,-4.4522,-8.3478,10.5043
2630,-0.3449,-9.4651,-1.6478,-4.7304,-11.2696,10.9913
2635,-0.4598,-9.4651,-1.5711,-5.2174,-14.1217,11.4087
2640,-0.4598,-9.7717,-1.5711,-6.0522,-16.4174,10.9217
2645,-0.6131,-9.8866,-1.3795,-6.5391,-18.5043,10.7826
2650,-0.5365,-9.9633,-1.3412,-5.9826,-20.5217,10.8522
2655,-0.4598,-10.1549,-1.5328,-4.8696,-22.3304,11.8261
2660,-0.3066,-10.4231,-1.8011,-3.4087,-23.7217,12.5217
2665,-0.115,-10.4998,-1.9927,-1.9478,-24.3478,13.2174
2670,-0.2299,-10.5764,-2.5291,-1.113,-23.1652,9.7391
2675,0.1533,-10.2698,-2.2609,-0.4174,-21.5652,5.1478
2680,1.1496,-10.4998,-2.4908,0.2783,-23.8609,9.2522
2685,1.2646,-10.3082,-2.3759,-0.1391,-22.3304,10.3652
2690,1.2263,-10.2315,-2.2992,-0.3478,-20.313,8.8348
2695,1.1879,-10.0782,-2.1076,-0.6957,-20.1739,7.0261
2700,1.4945,-10.0782,-1.9927,-1.5304,-20.8696,5.4957
2705,1.6095,-10.0016,-1.8777,-1.8783,-21.6348,4.6609
2710,2.031,-10.2315,-1.6478,-2.0174,-22.1217,3.687
2715,2.1459,-10.0782,-1.1496,-1.8783,-22.1913,3.0609
2720,2.3375,-10.3465,-1.073,-1.2522,-22.2609,2.4348
2725,2.5291,-10.4614,-0.5365,0.1391,-21.7739,2.3652
2730,2.6824,-10.8446,-0.4598,1.1826,-21.3565,1.6696
2735,2.6058,-11.0746,-0.6898,2.0174,-21.0783,1.1826
2740,2.4908,-11.1129,-0.8814,2.2957,-20.5217,0.0
2745,2.1076,-11.5727,-1.6861,1.6,-18.713,-3.6174
2750,2.031,-11.1129,-1.0346,0.2087,-18.5739,-9.1826
2755,2.4142,-11.7643,-0.9963,-0.2783,-21.7739,-6.7478
2760,2.1843,-11.9559,-1.3412,0.0696,-21.5652,-6.4
2765,1.7244,-11.9176,-1.6478,1.4609,-19.6174,-8.2783
2770,1.4562,-12.0709,-1.8011,2.3652,-18.1565,-10.2957
2775,1.3795,-12.1475,-1.8777,3.0609,-17.3913,-11.2696
2780,1.4562,-12.1859,-1.8394,3.7565,-17.113,-11.8957
2785,1.5711,-12.1475,-1.9543,4.8696,-16.2087,-12.5913
2790,1.3029,-11.9559,-1.916,6.2609,-14.887,-13.0087
2795,0.958,-11.6494,-1.9543,7.4435,-11.687,-17.0435
2800,1.6861,-10.883,-2.4142,9.8783,-11.687,-16.8348
2805,1.916,-10.4998,-3.1039,11.8261,-10.713,-13.6348
2810,2.0693,-10.2315,-4.062,11.9652,-6.9565,-13.913
2815,1.8394,-10.0782,-4.5984,9.7391,-4.313,-14.5391
2820,1.6478,-10.2698,-5.2499,6.2609,-4.1043,-17.8087
2825,1.6478,-10.9979,-5.7864,0.8348,-5.7739,-20.313
2830,1.8011,-11.5344,-5.7097,-5.913,-7.4435,-22.887
2835,1.6095,-12.1092,-5.0966,-12.4522,-8.0696,-25.6696
2840,1.073,-12.799,-4.5984,-16.9043,-7.0957,-28.4522
2845,0.4215,-12.4924,-3.7937,-19.5478,-4.3826,-32.9043
2850,0.5748,-12.4924,-3.4488,-18.6435,-4.313,-31.4435
2855,0.1916,-12.3391,-3.1806,-14.6783,-3.0609,-30.1217
2860,-0.2299,-11.726,-3.0273,-9.3217,-2.6435,-29.0087
2865,-0.4215,-11.1512,-3.2572,-3.3391,-3.5478,-27.2
2870,-0.6898,-10.4614,-3.4871,2.2957,-5.7739,-23.5826
2875,-0.4598,-9.6567,-3.947,8.4174,-7.3739,-20.4522
2880,-0.5748,-8.5071,-4.4835,12.313,-8.2087,-17.5304
2885,-0.8047,-7.5491,-4.5601,13.913,-9.3217,-15.7217
2890,-1.1496,-6.7827,-4.5601,14.1913,-11.3391,-14.6087
2895,-1.4179,-6.1313,-4.6368,14.0522,-14.5391,-14.1913
2900,-1.6095,-5.8247,-4.79,13.287,-18.5739,-13.3565
2905,-1.6095,-5.748,-7.3192,11.2,-22.6087,-12.8
2910,-1.4179,-5.6331,-5.978,5.1478,-25.7391,-12.5913
2915,-1.4945,-5.7864,-6.4378,-4.7304,-27.7565,-12.7304
2920,-1.4562,-5.9396,-6.5145,-17.1826,-29.6348,-13.0087
2925,-1.4179,-6.4761,-5.5564,-33.3217,-30.7478,-13.913
2930,-1.5711,-7.0509,-4.4068,-42.2261,-31.2348,-14.3304
2935,-1.4179,-7.5874,-3.6021,-43.4783,-31.8609,-14.5391
2940,-1.1113,-8.0473,-3.832,-40.0,-31.9304,-14.0522
2945,-0.9197,-8.0089,-3.0273,-35.9652,-31.3043,-13.4261
2950,-0.4598,-8.967,-3.2189,-30.5391,-29.8435,-12.2435
2955,0.0766,-9.3502,-3.2955,-24.4174,-27.2,-11.3391
2960,0.0766,-9.8866,-3.0656,-18.1565,-23.0957,-10.2957
2965,0.3449,-10.7297,-2.4908,-10.3652,-19.3391,-8.5565
2970,0.4982,-10.9213,-4.6368,1.5304,-15.8609,-4.7304
2975,1.1113,-10.5381,-4.1769,10.2957,-11.8261,-1.6696
2980,1.1496,-9.925,-3.8704,12.6609,-7.5826,1.8783
2985,1.3029,-9.4651,-4.1003,14.6783,-3.6174,5.2174
2990,1.8394,-9.8483,-4.2152,15.3739,0.487,8.6957
2995,1.2263,-9.1969,-4.3685,14.1217,4.8696,12.3826
