timestamp,accX,accY,accZ,gyroX,gyroY,gyroZ
0,-1.4562,-6.3229,0.8047,10.087,17.3913,7.1652
5,-1.3795,-5.978,0.843,10.087,14.7478,7.3043
10,-1.5711,-5.5564,0.7664,9.1826,12.3826,7.7913
15,-1.7244,-5.5948,0.6131,7.0957,10.5043,8.0
20,-1.6861,-5.7097,0.4598,3.687,9.2522,7.6522
25,-1.7244,-5.7097,0.7664,-0.487,8.5565,7.2348
30,-1.5711,-5.7864,0.958,-4.313,8.6957,6.4696
35,-1.4179,-6.1313,1.1879,-6.9565,9.3217,5.4261
40,-1.4179,-6.5145,1.4945,-8.0696,10.4348,4.2435
45,-1.2263,-6.936,1.5711,-7.7913,11.6174,2.5739
50,-1.1113,-7.3958,1.6095,-6.887,12.7304,0.7652
55,-1.1113,-7.5491,1.3412,-5.7043,13.8435,-1.3217
60,-0.9197,-8.0473,1.1496,-4.4522,15.0261,-3.6174
65,-0.9963,-8.2772,1.1879,-3.4087,15.8609,-5.913
70,-0.7664,-8.9286,1.1113,-2.4348,16.1391,-7.9304
75,-0.7281,-9.3502,1.1113,-0.9739,15.7217,-9.8783
80,-0.6898,-9.695,0.8047,0.6261,14.4696,-11.3391
85,-0.3832,-10.3465,0.8047,2.0174,12.8,-12.4522
90,-0.4215,-10.8063,0.6898,3.3391,10.6435,-13.7043
95,-0.4215,-11.726,0.7664,4.1043,8.4174,-14.6783
100,-0.4982,-12.2625,0.2682,4.7304,6.1913,-15.3043
105,-0.3832,-12.6074,0.115,5.3565,3.8261,-15.9304
110,-0.5365,-13.0289,-0.0766,5.1478,2.0174,-16.3478
115,-0.0766,-12.9906,-0.3449,4.2435,1.3217,-16.5565
120,0.3832,-13.1822,-0.5365,2.5043,1.9478,-16.9043
125,0.7281,-13.1055,-0.6514,-0.5565,3.3391,-17.9478
130,0.3832,-13.2971,-0.4982,-3.6174,4.4522,-19.3391
135,-0.3066,-12.9906,0.1916,-5.2174,4.0348,-20.1043
140,-0.9963,-13.1822,1.073,-5.0783,1.5304,-19.4087
145,-1.6095,-13.3355,2.031,-3.8957,-2.1565,-16.3478
150,-1.9543,-13.757,3.1039,-1.8087,-5.7739,-10.8522
155,-2.2609,-13.6804,3.8704,2.087,-8.0696,-4.2435
160,-2.1459,-13.757,4.5218,8.2783,-8.5565,2.5043
165,-2.3759,-13.2971,4.9433,15.6522,-7.3043,8.8348
170,-2.1076,-13.2205,5.1349,22.4696,-5.1478,14.887
175,-1.6861,-13.0289,5.4032,27.687,-3.2696,19.7565
180,-1.6478,-12.9523,5.2499,30.4696,-1.9478,23.5826
185,-0.8814,-12.6457,4.9433,31.1652,-2.2261,26.1565
190,-0.6514,-12.4158,4.062,30.2609,-4.0348,27.7565
195,-0.1916,-12.2242,3.2572,28.0348,-6.8174,29.287
200,0.3449,-12.1859,1.3412,23.9304,-10.6435,30.0522
205,0.6131,-11.8027,-0.2299,16.1391,-14.6783,30.5391
210,1.1113,-11.5727,-2.5675,2.6435,-17.6696,31.0261
215,1.1113,-11.4578,-4.1003,-14.887,-18.6435,31.7913
220,0.6514,-12.0709,-4.062,-30.5391,-17.4609,33.113
225,-0.1533,-12.9139,-3.3339,-37.7739,-15.0957,34.6435
230,-0.6898,-13.1822,-3.4105,-34.7826,-13.2174,34.9217
235,-1.8011,-12.9523,-3.7937,-24.9739,-11.0609,33.7391
240,-2.7591,-11.9559,-4.4068,-13.3565,-7.0957,33.113
245,-3.8704,-10.6914,-4.6751,-4.1739,-2.0174,33.8783
250,-4.5984,-9.8483,-4.6368,0.6957,2.2261,36.1739
255,-4.9433,-9.1202,-4.5601,1.8783,2.713,38.9565
260,-5.2882,-8.3155,-4.3302,0.7652,-1.9478,41.3217
265,-4.905,-7.894,-4.1769,-0.8348,-10.9217,43.4783
270,-4.1003,-7.6257,-4.1769,-2.9217,-21.8435,45.2174
275,-2.6058,-7.8557,-3.9853,-5.5652,-30.9565,46.3304
280,-1.0346,-8.2005,-3.5638,-9.113,-34.4348,45.8435
285,1.0346,-9.1969,-2.874,-12.6609,-30.9565,43.3391
290,2.6058,-10.3082,-2.2226,-15.7217,-22.6087,39.3739
295,3.8704,-11.3811,-1.7244,-17.8087,-12.5913,34.4348
300,4.6368,-12.3775,-1.4945,-18.087,-3.687,29.0087
305,5.02,-12.9523,-1.3412,-16.5565,2.7826,23.3043
310,4.9816,-13.2588,-1.4945,-12.5913,5.9826,18.1565
315,4.79,-13.3738,-1.8777,-7.2348,5.913,14.1913
320,4.7134,-13.2971,-2.3375,-2.4348,4.3826,10.7826
325,4.3302,-13.2205,-2.8357,0.8348,3.9652,7.6522
330,4.3302,-13.1439,-3.0656,2.5043,6.0522,4.3826
335,3.4871,-12.8373,-3.3339,2.8522,10.9913,1.2522
340,2.2609,-12.4924,-3.1039,2.4348,17.8783,-1.7391
345,1.3795,-11.9176,-2.874,2.0174,24.9043,-4.4522
350,0.4215,-11.4578,-2.4525,2.0174,31.1652,-7.513
355,-0.0383,-11.1512,-1.916,2.8522,36.3826,-11.8261
360,-0.6898,-10.7297,-1.4945,4.0348,40.9043,-17.5304
365,-1.4562,-10.1932,-1.3029,5.1478,44.2435,-24.0696
370,-2.2226,-9.7334,-0.9197,5.7043,45.7739,-30.887
375,-2.8357,-9.0436,-0.8047,5.0783,45.2174,-37.6348
380,-3.0273,-8.8137,-0.4598,3.687,42.2957,-44.2435
385,-3.4488,-8.1239,-0.5748,1.5304,37.7043,-50.6435
390,-3.7171,-7.5874,-0.3449,-0.8348,31.9304,-56.6261
395,-3.8704,-7.1276,-0.0383,-1.9478,25.5304,-62.1217
400,-3.5638,-6.5911,-0.1916,-1.3217,18.9913,-66.087
405,-3.1423,-6.5528,0.0,0.2087,13.1478,-68.0348
410,-2.4525,-6.4761,0.0,1.5304,8.1391,-68.5217
415,-2.2609,-6.6294,0.0,2.5043,4.313,-67.687
420,-1.8777,-6.7444,0.1533,2.4348,1.7391,-65.3217
425,-1.4179,-6.7061,0.3832,2.0174,-0.7652,-62.3304
430,-1.1496,-6.7827,0.3066,2.5043,-3.7565,-58.8522
435,-0.5365,-6.821,0.2682,3.8261,-7.0261,-55.4435
440,-0.3066,-6.5911,0.3449,5.3565,-10.7826,-52.8
445,-0.0766,-6.5145,0.0383,6.6783,-14.887,-50.4348
450,0.0,-6.2079,-0.0383,7.6522,-19.1304,-47.7913
455,0.1533,-5.9013,-0.115,7.9304,-23.7217,-45.4957
460,0.0766,-5.5948,-0.1916,7.1652,-28.2435,-43.8261
465,0.3449,-5.4798,-0.1533,5.1478,-31.6522,-41.4609
470,0.4215,-5.2499,-0.115,2.6435,-33.9478,-38.6783
475,0.7664,-5.0966,-0.0766,0.0696,-35.5478,-35.8957
480,0.9963,-4.9433,-0.0383,-2.3652,-36.2435,-33.1826
485,1.2263,-4.9816,0.0766,-4.6609,-36.0348,-30.2609
490,1.2646,-4.9433,0.0766,-7.0261,-35.3391,-26.9217
495,1.5711,-5.2499,0.2299,-9.6,-34.713,-23.6522
500,1.8394,-5.2882,0.5748,-11.5478,-33.9478,-20.8696
505,1.8777,-5.7864,0.5748,-13.0783,-33.6,-18.4348
510,1.9543,-5.863,0.4982,-13.9826,-33.6,-15.7217
515,2.1843,-6.3229,0.6514,-14.4,-33.8783,-13.7739
520,2.1076,-6.6294,0.6514,-14.0522,-34.8522,-12.5217
525,1.9543,-6.7444,0.5748,-13.0087,-35.9652,-11.8261
530,1.9927,-6.9743,0.3832,-11.8261,-36.5217,-11.2
535,1.8777,-7.0126,0.1916,-10.3652,-36.5217,-10.5739
540,1.9543,-7.3192,0.115,-8.6957,-35.6174,-9.8783
545,1.7244,-7.2809,0.3449,-6.4696,-34.2261,-9.5304
550,1.8011,-7.3192,0.2682,-3.8261,-32.487,-9.6
555,1.916,-7.5491,0.3832,-0.5565,-30.1217,-9.2522
560,2.2609,-7.8173,0.2299,2.7826,-27.2,-8.7652
565,2.2226,-7.8557,0.8047,6.5391,-24.1391,-7.7913
570,2.3759,-8.0473,1.1113,10.9217,-21.4957,-6.4
575,2.3375,-8.4305,1.3412,14.9565,-19.7565,-4.8
580,2.4142,-8.6221,1.4179,17.6696,-18.9217,-2.5043
585,2.3375,-8.967,1.9543,19.5478,-19.1304,0.6261
590,2.4142,-9.2352,2.1843,21.287,-20.0348,3.687
595,2.4525,-9.4268,2.3375,23.3043,-20.9391,6.4696
600,2.2992,-9.5801,2.3375,25.2522,-21.6348,8.9739
605,2.1459,-9.5801,2.1843,27.2696,-22.0522,11.2696
610,1.8777,-9.695,1.9927,28.2435,-22.2609,12.9391
615,1.8011,-10.0016,1.9543,28.1043,-22.1913,14.4
620,1.3412,-10.0399,1.916,27.1304,-21.4957,15.7217
625,0.9963,-10.2698,1.7627,25.5304,-20.5913,16.5565
630,0.5365,-10.3848,1.5711,23.513,-19.6174,17.0435
635,0.115,-10.5381,1.1496,21.2174,-18.5043,17.4609
640,-0.0383,-10.8063,0.4598,19.0609,-16.8348,18.087
645,0.0383,-10.8446,-0.4215,16.9043,-13.913,19.2
650,0.0766,-11.0363,-0.9963,14.4,-8.9043,19.8261
655,0.2682,-10.9979,-2.0693,10.9217,-1.3217,19.4783
660,0.958,-10.9213,-2.874,6.1217,8.3478,18.713
665,2.2226,-10.9213,-2.874,-0.3478,17.3913,18.1565
670,3.9853,-11.5727,-1.9543,-8.0696,22.7478,17.4609
675,4.9816,-12.3391,-0.7664,-16.2783,23.9304,14.4696
680,5.7864,-13.3355,0.9963,-24.7652,22.7478,8.7652
685,6.0546,-14.1402,3.1806,-31.1652,21.1478,1.8783
690,5.5948,-14.8683,4.9433,-32.8348,19.1304,-6.0522
695,4.7517,-15.1365,5.978,-28.9391,16.3478,-14.7478
700,4.1003,-15.2515,6.1313,-19.9652,13.1478,-23.2348
705,3.0656,-14.9449,6.0929,-8.0696,10.713,-30.5391
710,1.9543,-14.4468,5.4415,4.2435,10.2261,-35.6174
715,0.5748,-13.6037,4.8667,14.6783,12.6609,-37.2174
720,-0.5365,-13.0672,4.4452,24.8348,17.6,-35.0609
725,-0.8814,-12.4924,3.4871,33.113,24.2087,-29.9826
730,-1.0346,-12.1859,1.8011,39.3043,31.1652,-26.4348
735,-1.8394,-12.1092,-0.9963,38.0522,35.9652,-27.2696
740,-2.6058,-12.2242,-3.9853,23.7217,36.7304,-30.6087
745,-2.9123,-12.4158,-5.0966,-3.2696,29.7043,-32.9043
750,-2.1843,-13.1439,-4.9816,-31.0957,15.7913,-31.4435
755,-0.5748,-14.2935,-4.1769,-43.8261,6.8174,-29.7739
760,1.6095,-14.7916,-3.6787,-38.3304,11.1304,-29.7739
765,2.874,-14.4084,-2.9507,-22.4696,22.4,-33.6696
770,3.0273,-12.9906,-2.989,-5.1478,31.0261,-40.9043
775,3.1423,-11.5344,-3.3339,8.6261,34.2957,-47.0957
780,3.6021,-10.0782,-3.6021,17.8087,34.2261,-49.3913
785,4.0236,-8.737,-3.5255,23.1652,32.3478,-48.487
790,4.7134,-7.8557,-3.9853,25.7391,30.3304,-45.9826
795,4.9816,-7.2425,-4.5218,26.7826,29.9826,-42.8522
800,4.9816,-7.0893,-4.9433,26.087,33.7391,-40.1391
805,4.4068,-7.2809,-5.1732,22.4696,40.7652,-38.4696
810,2.7974,-7.9706,-4.9816,14.4696,46.6783,-37.6348
815,0.8814,-9.1586,-4.1386,2.8522,45.7043,-35.687
820,-0.4215,-10.4231,-2.7974,-8.8348,37.7739,-32.2783
825,-0.5748,-11.5344,-1.9543,-16.2087,26.6435,-28.0348
830,-0.7281,-12.3391,-1.073,-16.1391,16.6261,-23.5826
835,-0.6514,-12.9906,-0.9963,-7.8609,11.0609,-19.5478
840,-0.6898,-13.2205,-1.6861,5.5652,10.5739,-15.1652
845,-0.9197,-13.0672,-2.3759,19.0609,13.7739,-10.2261
850,-1.073,-12.684,-3.0273,28.6609,17.5304,-4.1043
855,-1.1879,-12.3775,-3.832,31.6522,20.4522,1.8783
860,-0.958,-12.3008,-4.2152,27.7565,21.7043,6.4696
865,-0.7281,-11.841,-3.9087,18.9217,21.7739,9.4609
870,-0.4215,-11.5344,-2.989,9.6,20.8696,11.3391
875,-0.1916,-11.4195,-2.1076,3.687,19.2,13.287
880,0.2299,-10.9213,-1.1113,2.8522,17.6696,15.7913
885,0.3449,-10.4231,-0.9197,6.2609,16.7652,18.5739
890,0.4598,-9.8483,-0.9197,11.6174,16.9739,21.287
895,0.6131,-9.2735,-1.1496,15.513,17.6696,23.8609
900,0.6898,-8.7754,-1.3029,16.2783,18.5043,26.087
905,0.8047,-8.0089,-1.5328,14.1217,19.2,28.8
910,0.7664,-7.3575,-1.8394,9.2522,19.8261,31.8609
915,0.8047,-6.5911,-1.7244,2.4348,20.7304,35.4087
920,0.9963,-6.0546,-1.7244,-4.1043,22.2609,39.0261
925,1.1496,-5.863,-1.3412,-8.9043,24.1391,41.9478
930,1.1496,-5.6714,-1.5711,-12.1043,26.5043,43.7565
935,1.5711,-5.6331,-0.9197,-14.6087,29.0783,44.5913
940,1.2263,-5.4415,-1.3029,-16.3478,31.3739,44.5217
945,1.1879,-5.3648,-1.073,-17.8783,33.6696,44.313
950,1.2646,-5.3648,-1.1879,-18.9913,35.1304,43.7565
955,0.8814,-5.3265,-1.1113,-19.687,35.9652,43.2
960,0.6131,-5.4032,-0.8047,-19.8957,36.5217,42.4348
965,0.4215,-5.5564,-0.8047,-20.0348,35.9652,39.6522
970,0.2299,-5.4415,-0.6514,-19.7565,34.2957,36.4522
975,0.115,-5.5181,-0.6131,-19.2,33.0435,34.5739
980,0.0,-5.5948,-0.7664,-18.2957,32.5565,34.5043
985,-0.0383,-5.9396,-0.6514,-17.3913,33.2522,34.7826
990,-0.6131,-5.9013,-0.9963,-16.6957,34.713,34.3652
995,-0.4982,-6.4378,-0.7281,-16.0,36.6609,33.7391
1000,-0.4215,-6.6677,-0.8047,-15.1652,39.0261,32.6261
1005,-0.4598,-6.8593,-0.5365,-13.7043,41.8087,31.1652
1010,-0.5748,-6.8593,-0.3832,-11.8957,44.5217,29.913
1015,-0.6514,-7.0126,-0.4982,-10.2957,46.5391,28.8696
1020,-0.4598,-7.2425,-0.1916,-8.6261,47.7913,28.2435
1025,-0.6514,-7.1659,-0.0383,-6.5391,48.1391,26.9217
1030,-0.7281,-7.2809,0.0,-3.6174,47.6522,26.0174
1035,-0.6898,-7.3958,0.1533,-0.3478,46.5391,25.6696
1040,-0.7281,-7.3192,0.0383,2.7826,45.2174,24.9043
1045,-0.8047,-7.1659,0.0383,5.1478,43.4087,23.8609
1050,-0.9963,-7.1276,0.0766,6.4,41.3217,23.0261
1055,-1.1879,-6.9743,0.2682,6.7478,38.8174,22.1913
1060,-1.3795,-6.821,0.2682,6.4,35.687,20.9391
1065,-1.6095,-6.7827,0.4982,6.1913,31.9304,19.687
1070,-1.5711,-6.5528,0.3832,5.9826,27.8261,18.2261
1075,-1.7627,-6.5528,0.6514,5.5652,23.5826,16.7652
1080,-1.7627,-6.3995,0.6514,5.0087,19.5478,14.8174
1085,-1.8777,-6.5145,0.5365,4.3826,15.8609,12.5217
1090,-1.8394,-6.3995,0.7281,3.7565,12.9391,10.087
1095,-1.6095,-6.3995,0.843,3.2696,10.7826,7.513
1100,-1.5328,-6.821,1.2263,2.3652,9.2522,4.5217
1105,-1.6478,-7.0126,0.6131,0.5565,8.4174,1.1826
1110,-1.8011,-7.3192,0.5748,-1.7391,8.6957,-2.0174
1115,-1.8777,-7.6257,0.843,-3.8957,9.2522,-4.7304
1120,-1.8011,-8.0473,1.073,-4.6609,10.087,-7.513
1125,-1.8777,-8.4688,1.1113,-3.8957,10.5739,-10.2261
1130,-2.1843,-8.6221,1.2646,-1.6696,10.7826,-12.5217
1135,-1.9543,-8.9286,1.3795,1.8087,10.3652,-14.2609
1140,-2.1459,-9.0819,1.4945,5.913,9.6696,-15.6522
1145,-2.031,-9.2735,1.3795,9.6,8.5565,-16.4174
1150,-1.9543,-9.3502,1.6861,12.5913,6.9565,-16.5565
1155,-2.1843,-9.2735,1.2263,14.1217,4.3826,-16.2783
1160,-2.1076,-9.6184,0.9963,14.1913,0.6957,-15.513
1165,-1.8777,-9.7334,0.8047,12.2435,-3.687,-14.1913
1170,-1.6861,-10.0782,0.4598,9.1826,-8.0,-12.5217
1175,-1.6095,-10.4998,0.1916,5.5652,-11.4087,-11.3391
1180,-1.3412,-10.9596,0.115,2.2261,-13.6348,-10.5739
1185,-1.2646,-11.4578,0.0,-0.0696,-14.8174,-10.087
1190,-0.843,-11.9559,-0.2682,-1.113,-15.3739,-9.8087
1195,-0.4215,-12.2242,-0.4982,-1.2522,-15.0957,-10.1565
1200,0.2682,-12.5307,-0.9963,-1.8783,-13.9826,-11.5478
1205,0.843,-12.5691,-1.3029,-2.9217,-11.7565,-14.1913
1210,0.4598,-12.6074,-1.0346,-5.0087,-9.9478,-17.1826
1215,-0.2682,-12.6457,-0.4982,-7.7913,-10.9217,-18.3652
1220,-0.4598,-12.8373,0.0766,-11.3391,-15.3739,-17.3217
1225,-1.0346,-13.0289,0.9197,-14.6783,-21.7043,-13.3565
1230,-1.1496,-13.5654,2.0693,-15.6522,-27.5478,-6.9565
1235,-1.4945,-13.8336,2.989,-12.1739,-31.8609,-0.7652
1240,-1.8777,-14.2552,4.1003,-4.0348,-33.9478,3.4783
1245,-1.8777,-14.2552,4.2919,7.4435,-34.3652,6.8174
1250,-1.8011,-14.1785,4.79,19.4087,-33.3217,10.5043
1255,-1.6095,-13.9869,4.79,29.3565,-31.6522,14.1913
1260,-1.3412,-13.8336,4.3302,35.3391,-29.3565,17.3217
1265,-0.9197,-13.3738,4.3685,36.4522,-26.7826,19.8261
1270,-0.4982,-13.1055,3.9853,34.6435,-24.0,21.0783
1275,0.1533,-12.7223,3.7554,31.8609,-21.287,20.9391
1280,0.4215,-12.2242,3.2189,29.8435,-18.6435,19.687
1285,0.4598,-11.726,2.3759,30.0522,-16.1391,18.3652
1290,0.5748,-10.8063,0.8047,30.9565,-13.287,17.1826
1295,0.843,-10.0399,-0.843,29.8435,-9.6696,15.2348
1300,0.6131,-9.3118,-3.3339,22.5391,-4.1739,13.4261
1305,-0.0383,-8.9286,-5.0583,6.3304,1.8087,12.4522
1310,-0.8814,-9.2352,-5.9013,-17.5304,4.5217,12.2435
1315,-2.0693,-10.0782,-5.6331,-42.4348,1.5304,11.8957
1320,-2.4525,-10.8063,-5.0583,-58.9913,-5.8435,11.2696
1325,-3.3339,-11.4961,-4.9433,-62.3304,-13.2174,11.4783
1330,-3.832,-11.841,-4.905,-54.887,-17.1826,11.8261
1335,-4.2536,-11.9176,-5.1349,-41.9478,-17.3913,13.1478
1340,-3.9087,-11.9176,-4.905,-28.313,-16.487,14.7478
1345,-3.3339,-11.726,-4.6368,-16.0696,-18.087,15.9304
1350,-2.989,-11.1129,-4.1386,-4.9391,-24.1391,17.2522
1355,-2.3375,-10.4231,-3.832,5.7043,-33.8087,19.9652
1360,-1.7627,-9.8866,-3.9087,14.8174,-45.0087,24.5565
1365,-1.1113,-9.6567,-4.1386,19.8261,-54.9565,30.1913
1370,-0.2299,-9.695,-3.947,19.2696,-60.7304,35.0609
1375,1.1496,-9.925,-3.6787,14.4,-60.6609,38.1217
1380,2.2226,-10.3465,-3.1806,7.6522,-55.6522,37.913
1385,2.8357,-10.9213,-2.4525,1.2522,-48.6261,35.0609
1390,3.0656,-11.0363,-2.2226,-2.713,-42.8522,30.6087
1395,3.0273,-11.1129,-2.1843,-4.313,-40.1391,26.1565
1400,2.989,-11.2662,-2.3759,-4.1739,-39.3043,22.1217
1405,2.6441,-11.3428,-2.5675,-3.4783,-38.887,18.7826
1410,2.4908,-11.3428,-3.1806,-3.2696,-37.5652,15.0261
1415,2.4142,-11.4961,-3.5638,-3.8957,-35.4783,11.1304
1420,1.9927,-11.1895,-3.1806,-5.287,-32.6261,7.5826
1425,1.5711,-11.2279,-3.3722,-7.5826,-29.1478,3.687
1430,0.8814,-10.9979,-3.3339,-9.7391,-25.5304,-0.3478
1435,0.5748,-10.8446,-2.7207,-10.6435,-21.913,-4.8
1440,0.1533,-10.8063,-2.4908,-10.087,-18.1565,-10.0174
1445,-0.1916,-10.653,-2.3759,-8.0696,-14.3304,-16.1391
1450,-0.5748,-10.6147,-2.0693,-5.287,-10.4348,-22.5391
1455,-1.0346,-10.2698,-1.9927,-2.0174,-7.0957,-28.6609
1460,-1.6095,-9.925,-1.916,0.9043,-4.7304,-34.1565
1465,-1.8011,-9.7717,-1.8011,3.2696,-3.7565,-39.2348
1470,-1.8011,-9.5418,-1.5328,5.2174,-4.4522,-43.9652
1475,-2.2609,-8.9286,-1.4945,7.4435,-6.6087,-48.6261
1480,-2.3759,-8.4305,-1.3029,9.3217,-9.6,-52.2435
1485,-2.2226,-7.9323,-1.073,10.7826,-12.5913,-54.6783
1490,-2.031,-7.5108,-0.8047,12.313,-15.7217,-55.7217
1495,-1.8394,-7.1659,-0.6131,13.4957,-18.2957,-55.9304
1500,-1.4562,-6.7444,-0.3449,14.2609,-20.1739,-54.887
1505,-1.0346,-6.3995,-0.1916,14.6087,-21.6348,-52.4522
1510,-0.5365,-6.3229,-0.0766,14.4696,-23.0957,-48.8348
1515,0.0766,-6.1313,-0.0383,13.9826,-24.8348,-45.1478
1520,0.4982,-6.1696,0.0,13.0087,-26.9913,-41.8087
1525,0.6898,-6.1696,-0.0383,11.8261,-29.3565,-38.5391
1530,0.9963,-6.2462,-0.4215,10.5043,-32.0696,-36.7304
1535,0.9963,-6.0546,-0.115,9.6,-35.2696,-35.7565
1540,1.2263,-6.2079,-0.3449,9.8783,-38.6783,-33.9478
1545,1.2263,-5.978,-0.2682,10.9217,-42.0174,-31.9304
1550,1.2646,-5.978,-0.5365,11.687,-45.3565,-30.9565
1555,1.3029,-5.7864,-0.5365,11.4783,-47.9304,-30.6783
1560,1.3795,-5.6331,-0.5748,10.1565,-48.9043,-30.1913
1565,1.4562,-5.6331,-0.4982,7.7913,-48.487,-29.0783
1570,1.2646,-5.4415,-0.5365,4.8,-47.0261,-27.7565
1575,1.3795,-5.5948,-0.1916,1.4609,-44.8696,-26.2957
1580,1.3029,-5.7864,-0.1533,-2.2261,-43.2,-25.6
1585,1.5711,-5.863,-0.0383,-6.0522,-42.087,-24.7652
1590,1.8777,-6.2845,0.0766,-9.3217,-41.3913,-23.6522
1595,2.0693,-6.4761,0.0383,-12.1043,-40.8348,-22.4
1600,2.2226,-6.6677,0.0766,-14.3304,-39.7913,-21.5652
1605,2.4908,-6.8593,0.4215,-15.7217,-37.9826,-20.9391
1610,2.6441,-7.0509,0.3066,-14.8174,-35.1304,-20.3826
1615,2.7207,-7.0509,0.3832,-11.8957,-30.887,-19.7565
1620,2.5675,-7.0893,0.3066,-8.0696,-24.6957,-19.4783
1625,2.6441,-7.2042,0.4982,-4.6609,-19.2,-18.9217
1630,2.4908,-7.2425,0.3449,-2.0174,-13.8435,-18.4348
1635,2.1076,-7.3192,0.5365,0.0,-9.4609,-17.7391
1640,1.8777,-7.5491,0.7664,1.2522,-6.0522,-17.113
1645,1.8394,-7.5874,0.6514,2.5043,-3.5478,-16.4174
1650,1.7244,-7.894,1.0346,3.7565,-1.9478,-15.6522
1655,1.5711,-8.2005,1.1879,4.8,-0.8348,-14.5391
1660,1.5328,-8.4305,1.6095,5.8435,-0.6261,-13.5652
1665,1.5328,-8.5071,1.6861,7.6522,-0.8348,-12.8696
1670,1.4179,-8.4305,1.8011,9.9478,-0.8348,-11.8957
1675,1.6095,-8.2389,1.6861,12.6609,-0.5565,-10.6435
1680,1.3795,-8.2389,1.7244,14.6087,-0.0696,-9.1826
1685,1.3412,-8.0473,1.3795,15.2348,0.2087,-7.5826
1690,1.4179,-7.9706,0.9963,14.6087,-0.0696,-5.7739
1695,1.3795,-8.1239,1.1113,13.2174,-0.487,-4.2435
1700,1.073,-8.2389,1.2646,11.8261,-1.0435,-2.9913
1705,1.1496,-8.5838,1.3412,10.8522,-0.7652,-1.5304
1710,1.1879,-9.0436,1.3795,10.9217,0.2087,-0.0696
1715,1.2646,-9.5418,1.1113,12.0348,1.5304,1.6
1720,1.1879,-9.8483,1.073,13.8435,2.8522,3.1304
1725,1.1113,-10.3848,0.843,15.4435,3.8261,4.8
1730,1.1113,-10.8063,0.115,16.6261,4.6609,6.4696
1735,1.1879,-11.2662,-0.7281,16.2783,5.4957,8.0696
1740,1.073,-11.3428,-1.4562,14.0522,6.2609,9.7391
1745,0.843,-11.8027,-2.0693,8.4174,6.8174,11.1304
1750,0.7664,-11.9943,-2.3759,-0.4174,7.3739,13.4261
1755,1.073,-12.1475,-2.2226,-9.7391,8.2783,17.4609
1760,1.9927,-12.3391,-1.5711,-16.4174,10.4348,20.9391
1765,2.874,-12.684,-0.7281,-20.8,13.5652,21.913
1770,3.5255,-13.3738,0.0383,-24.4174,16.9739,19.9652
1775,3.6787,-13.9869,1.5711,-27.7565,20.1739,16.3478
1780,3.3722,-14.4468,2.989,-29.1478,22.6783,11.3391
1785,2.5675,-14.7916,4.3685,-25.9478,23.1652,5.4261
1790,1.8011,-14.7916,5.1349,-17.7391,20.6609,-0.6261
1795,1.073,-14.7916,5.1732,-6.887,16.8348,-6.4
1800,0.0,-14.5617,4.8667,4.1739,13.9826,-11.0609
1805,-0.9963,-13.9486,4.4452,12.6609,13.7043,-13.9826
1810,-2.3375,-12.9906,4.1769,18.4348,14.9565,-14.887
1815,-3.1423,-12.3391,4.4835,21.6348,15.6522,-12.8696
1820,-4.1003,-11.726,4.5984,24.2783,14.2609,-8.7652
1825,-4.4452,-11.1512,4.6368,28.1043,11.5478,-5.0087
1830,-3.0273,-10.7297,3.7937,36.1739,9.3913,-2.3652
1835,-1.2646,-10.6147,1.0346,47.0957,10.6435,-3.4783
1840,-0.6514,-10.6914,-2.2992,51.8957,13.8435,-10.2957
1845,0.1533,-10.8446,-7.5108,39.9304,16.4174,-19.3391
1850,0.8814,-11.3045,-10.5381,6.2609,8.1391,-24.9739
1855,1.6861,-12.3775,-10.3465,-36.5217,-14.1217,-23.4435
1860,3.3722,-14.0252,-8.5454,-66.713,-33.6696,-18.2957
1865,4.4452,-14.6384,-6.7827,-75.3391,-38.887,-16.3478
1870,5.0966,-14.6384,-4.6751,-65.5304,-33.1826,-19.9652
1875,5.02,-13.5654,-3.3339,-43.8261,-23.513,-27.8261
1880,4.6368,-11.7643,-3.7171,-16.3478,-12.1739,-34.0174
1885,4.4452,-10.2698,-4.79,9.9478,2.0174,-35.8957
1890,4.3302,-9.6184,-5.1732,28.9391,18.3652,-35.2696
1895,3.7554,-8.9286,-5.4798,38.5391,34.3652,-34.3652
1900,2.9123,-9.1586,-5.0966,40.9739,47.0957,-34.1565
1905,1.8394,-9.5418,-3.7937,39.3739,54.4696,-33.7391
1910,0.0383,-9.7717,-2.4142,36.1739,54.0522,-32.1391
1915,-0.843,-10.0399,-1.6095,33.3913,45.3565,-28.6609
1920,-1.7627,-10.3848,-0.8814,32.2087,30.1217,-24.1391
1925,-1.8777,-10.4998,-0.7281,32.487,12.3826,-19.2696
1930,-1.8011,-10.5764,-0.958,33.6,-3.2696,-13.8435
1935,-1.4945,-10.4998,-1.8394,35.0609,-13.1478,-8.1391
1940,-1.3029,-10.768,-2.3375,35.4783,-16.2783,-3.1304
1945,-1.3412,-11.0746,-3.1806,32.6957,-14.4,0.1391
1950,-1.2646,-11.4578,-3.5638,25.8783,-10.087,1.7391
1955,-1.0346,-11.6111,-3.6404,17.3217,-5.8435,2.087
1960,-0.3832,-12.0709,-2.874,10.0174,-2.4348,1.6
1965,0.1533,-12.0326,-2.3375,6.5391,0.2783,0.8348
1970,0.7281,-11.9559,-1.6861,8.6261,2.3652,0.6957
1975,1.2263,-11.6877,-1.2646,15.1652,4.3826,1.8783
1980,1.5328,-11.2279,-1.2646,23.0261,6.0522,3.9652
1985,1.916,-10.4998,-1.5328,28.9391,7.4435,6.9565
1990,2.1843,-10.0782,-1.6478,31.0261,8.7652,10.5739
1995,2.3375,-9.3118,-1.9927,29.0783,10.3652,14.5391
2000,2.5675,-8.5838,-1.8394,24.2087,11.6174,18.7826
2005,2.7207,-7.8557,-1.6478,17.6696,12.5913,23.7217
2010,3.1039,-7.2809,-1.4945,10.7826,13.5652,29.5652
2015,3.2955,-6.8977,-1.2646,4.3826,14.887,35.4087
2020,3.3722,-6.7061,-0.6514,-0.9043,16.4174,40.9739
2025,3.1039,-6.4378,-0.6131,-5.3565,17.7391,45.8435
2030,2.4908,-6.0546,-0.2682,-8.6261,19.0609,50.2957
2035,1.916,-5.5948,-0.1533,-10.7826,20.0348,54.1913
2040,1.4179,-5.4798,-0.3449,-12.0348,20.4522,56.487
2045,0.958,-5.2116,-0.4982,-14.2609,20.5217,56.7652
2050,0.3449,-5.0583,-0.6131,-17.0435,20.1043,54.9565
2055,-0.2682,-4.9433,-0.9963,-19.687,20.0348,51.687
2060,-0.7281,-4.8284,-1.073,-22.0522,21.1478,48.2783
2065,-0.8814,-5.02,-0.958,-23.4435,23.3043,45.4261
2070,-1.1113,-4.9433,-1.4562,-23.6522,26.0174,42.2957
2075,-1.1496,-5.0966,-1.3029,-22.6087,29.2174,39.2348
2080,-1.1879,-5.2116,-1.5328,-20.7304,32.8348,36.8696
2085,-1.073,-5.2882,-1.5711,-18.4348,37.0783,35.0609
2090,-1.1879,-5.2116,-1.5328,-15.9304,41.3913,33.6696
2095,-0.958,-5.5181,-1.4179,-13.7739,45.287,32.0696
2100,-0.7664,-5.6714,-1.4562,-12.5217,48.0,30.3304
2105,-0.8047,-5.6331,-1.2646,-11.8261,49.5304,29.0783
2110,-0.843,-5.978,-1.1496,-11.8957,49.8087,28.0348
2115,-0.7664,-5.978,-1.0346,-12.313,48.8348,26.2261
2120,-0.843,-6.4761,-0.6898,-13.0783,46.887,23.5826
2125,-0.8814,-6.5528,-0.4215,-13.4261,44.9391,21.1478
2130,-0.7281,-6.8977,-0.1916,-12.9391,43.4087,19.7565
2135,-0.6898,-7.0893,-0.3066,-11.4087,42.1565,17.9478
2140,-0.8814,-7.1276,-0.115,-9.113,41.5304,16.6261
2145,-0.8047,-7.2809,0.0383,-5.9826,41.0435,15.5826
2150,-0.958,-7.2425,0.115,-2.8522,40.5565,14.4
2155,-0.843,-7.2042,0.2299,0.0696,39.9304,13.2174
2160,-0.6514,-7.0893,0.4215,2.5043,39.1652,12.4522
2165,-0.843,-6.8977,0.4982,4.313,38.4,11.4087
2170,-0.7664,-6.8977,0.4982,5.3565,37.6348,10.8522
2175,-0.843,-6.6677,0.6898,5.5652,36.8696,10.3652
2180,-0.7664,-6.5528,0.8814,4.8696,35.8261,9.8783
2185,-0.6131,-6.7827,1.2263,2.9913,34.5043,9.4609
2190,-0.6514,-6.8977,1.3412,0.3478,33.0435,8.6957
2195,-0.7281,-7.1659,1.4562,-2.5043,31.1652,7.1652
2200,-0.8047,-7.5108,1.7244,-6.0522,29.1478,5.8435
2205,-0.8814,-7.8557,1.7244,-9.1826,27.1304,4.9391
2210,-0.9197,-8.2005,1.9927,-11.3391,25.1826,4.5913
2215,-0.9197,-8.5838,1.9543,-12.0348,23.2348,4.1043
2220,-0.8814,-8.9286,2.031,-10.9913,21.2174,3.2696
2225,-0.9963,-9.2735,1.7244,-8.3478,19.2,2.5739
2230,-1.2263,-9.6567,1.5711,-4.5913,17.1826,1.9478
2235,-1.2646,-9.7334,0.843,-0.9043,15.3739,1.4609
2240,-1.3795,-9.7717,0.2682,1.5304,13.4261,0.5565
2245,-1.5711,-9.8866,-0.0766,1.6696,11.6174,-0.487
2250,-1.6861,-10.2698,-0.4215,-0.0696,9.6696,-1.6696
2255,-1.8011,-10.653,-0.5748,-1.5304,7.4435,-2.6435
2260,-1.916,-11.2662,-0.7664,-1.6,4.8,-3.5478
2265,-1.9543,-11.3811,-0.8047,-0.2087,1.7391,-4.7304
2270,-1.8011,-11.9176,-0.958,1.8087,-1.3913,-6.1217
2275,-1.5711,-12.1859,-1.3412,3.9652,-4.0348,-7.7913
2280,-0.7664,-12.3008,-1.4562,5.3565,-4.9391,-9.1826
2285,-0.0383,-12.5691,-1.6478,5.6348,-3.4087,-11.6174
2290,0.1533,-12.684,-1.3795,5.4261,-0.6957,-15.2348
2295,-0.0766,-12.4924,-0.7664,5.6348,0.9043,-19.0609
2300,-0.4598,-12.6457,-0.2299,6.5391,-0.4174,-21.0087
2305,-0.6898,-12.8756,0.4598,7.6522,-5.0087,-19.4087
2310,-0.9197,-13.2971,1.3412,8.0696,-11.1304,-15.7217
2315,-1.2263,-13.5271,2.031,9.0435,-16.6957,-11.2
2320,-1.7244,-13.6037,2.8357,11.9652,-20.7304,-6.1217
2325,-1.6861,-13.642,3.6404,17.6,-22.9565,-0.4174
2330,-1.6095,-13.757,4.3302,25.3217,-23.513,5.7043
2335,-1.1879,-13.7953,4.5984,33.9478,-22.8174,11.4087
2340,-0.6898,-13.6804,4.8284,41.4609,-20.8696,16.487
2345,0.0,-13.6037,4.7134,46.4696,-18.713,20.4522
2350,0.6514,-13.2205,4.8284,48.487,-17.113,22.9565
2355,1.1879,-12.6074,4.3685,49.113,-16.2087,23.7913
2360,1.6478,-12.3008,4.1386,49.3217,-15.5826,23.3739
2365,1.8011,-11.8027,3.7554,49.3913,-14.4696,22.4
2370,1.7627,-11.1895,2.9507,50.713,-12.5913,21.4957
2375,1.5711,-10.3465,1.3795,52.5913,-10.6435,20.9391
2380,0.958,-9.6184,-1.2646,51.8957,-7.7913,21.6348
2385,0.1533,-9.1969,-4.062,44.2435,-3.8957,23.7217
2390,-0.5748,-9.2352,-6.3995,26.4348,0.6957,26.5739
2395,-1.3795,-9.3885,-7.9323,-1.113,5.0087,28.5913
2400,-2.0693,-10.0399,-7.894,-31.9304,8.2087,28.2435
2405,-2.6058,-10.8446,-7.1659,-55.7913,10.5043,26.6435
2410,-3.0656,-11.1129,-5.978,-65.8783,12.6609,25.4609
2415,-3.1806,-11.0746,-5.2882,-62.1913,14.2609,25.4609
2420,-3.1806,-10.6147,-4.9816,-49.3217,14.3304,26.4348
2425,-3.1806,-10.0399,-4.79,-32.9739,12.2435,28.1739
2430,-3.3339,-9.695,-4.5601,-18.4348,6.1217,31.1652
2435,-3.1806,-9.4268,-4.5218,-7.4435,-6.887,35.9652
2440,-3.0273,-9.0819,-4.5984,-0.2783,-21.5652,42.5739
2445,-2.3759,-9.2352,-4.2152,2.3652,-36.5217,49.3913
2450,-1.2646,-9.6567,-4.6368,0.6957,-47.4435,55.0957
2455,0.3832,-10.3848,-4.1003,-4.1739,-50.8522,58.4348
2460,1.4945,-11.0363,-3.6021,-8.9043,-46.887,58.3652
2465,2.6441,-12.2242,-2.874,-11.8957,-38.0522,54.9565
2470,3.1806,-12.8756,-2.2992,-11.6174,-27.8261,49.8087
2475,3.2955,-13.5271,-2.0693,-6.4,-19.687,43.5478
2480,3.0273,-13.6037,-2.2609,0.9043,-14.8174,37.4957
2485,3.2572,-13.7953,-2.6058,8.7652,-12.1739,31.5826
2490,2.7591,-13.4121,-3.1039,15.4435,-10.5739,25.6
2495,2.6441,-12.7607,-3.7554,18.9913,-8.9043,18.8522
2500,2.4525,-12.4924,-3.7937,18.8522,-6.9565,12.3826
2505,1.9543,-12.0709,-3.7937,15.1652,-4.7304,6.7478
2510,1.1879,-11.5727,-3.5638,9.8087,-1.8087,1.6
2515,0.4982,-11.1895,-3.1039,5.0783,2.2957,-3.2696
2520,-0.1533,-10.768,-2.5675,1.9478,7.0261,-9.0435
2525,-0.7664,-10.4614,-2.2609,0.5565,12.2435,-16.3478
2530,-1.6861,-10.1549,-1.7627,0.7652,16.6957,-24.5565
2535,-2.0693,-9.9633,-1.4562,2.087,19.8957,-32.6957
2540,-2.6824,-9.7334,-1.1496,4.1739,21.1478,-40.1391
2545,-3.6021,-9.3502,-0.843,6.1217,20.2435,-47.0261
2550,-3.8704,-9.0053,-0.7281,6.6783,17.6696,-53.287
2555,-4.2536,-8.6604,-1.1879,5.5652,14.2609,-58.7826
2560,-4.2536,-8.3921,-0.9197,3.3391,9.8087,-64.487
2565,-4.4452,-7.9706,-0.8047,0.9739,4.5217,-70.2609
2570,-4.3685,-7.3958,-0.6131,-0.0696,-0.6957,-74.1565
2575,-3.832,-7.1659,-0.4598,0.4174,-5.6348,-76.4522
2580,-3.0656,-6.8593,-0.115,1.8087,-10.3652,-77.3565
2585,-2.5675,-6.6294,-0.0383,3.2,-14.5391,-76.0348
2590,-1.8011,-6.3612,-0.0383,4.0348,-18.0174,-72.7652
2595,-1.2263,-6.0929,-0.1533,3.8261,-21.7739,-68.0348
2600,-0.4982,-6.1313,-0.115,2.2261,-26.087,-62.4
2605,0.0,-5.8247,-0.3832,0.2087,-31.3043,-56.487
2610,0.3449,-5.5948,-0.4215,-1.0435,-36.5217,-51.687
2615,0.7281,-5.5564,-0.4982,-0.3478,-41.5304,-47.7913
2620,0.8047,-5.1349,-0.6898,2.087,-45.7043,-44.8696
2625,0.9963,-5.0583,-0.5748,5.4957,-48.9739,-43.8957
2630,1.2646,-5.0966,-0.6898,8.4174,-51.3391,-42.7826
2635,1.5328,-5.02,-0.6131,10.2957,-52.313,-40.1391
2640,1.8777,-5.2882,-0.6131,10.5043,-52.1043,-37.0087
2645,1.8777,-5.2499,-0.5748,8.8348,-50.8522,-34.7826
2650,1.9543,-5.5181,-0.4598,6.0522,-48.6957,-32.3478
2655,2.3375,-5.8247,-0.1533,3.0609,-46.2609,-29.8435
2660,2.4525,-5.9013,-0.0383,0.1391,-43.7565,-27.6174
2665,2.5291,-6.2462,0.3449,-2.087,-41.3913,-25.7391
2670,2.6058,-6.4378,0.5365,-3.2696,-38.9565,-24.2087
2675,2.7591,-6.6294,0.6514,-3.2696,-36.5217,-22.3304
2680,2.7591,-6.821,0.6514,-2.6435,-34.0174,-20.2435
2685,2.7591,-7.0893,0.6898,-1.3217,-31.513,-18.713
2690,2.7207,-7.0893,0.7281,0.3478,-29.5652,-17.6
2695,2.5291,-7.0893,0.6131,3.0609,-28.1043,-16.4174
2700,2.4908,-7.2042,0.4982,5.3565,-26.9217,-15.3739
2705,2.5675,-7.3575,0.7281,6.4,-25.8783,-14.3304
2710,2.4525,-7.1276,0.3449,6.9565,-24.6957,-13.1478
2715,1.9927,-7.0126,0.5365,7.0957,-23.4435,-11.7565
2720,1.916,-7.1276,0.6898,7.5826,-22.1217,-9.9478
2725,1.5328,-7.1276,0.843,8.1391,-20.8,-8.0696
2730,1.4562,-7.0126,0.9963,8.6261,-19.7565,-6.6087
2735,1.5711,-7.1659,1.3412,9.1826,-18.6435,-5.287
2740,1.5328,-7.3958,1.5711,10.087,-17.2522,-3.7565
2745,1.4562,-7.5491,1.8011,11.4087,-16.1391,-2.2261
2750,1.4562,-7.8557,1.8011,13.287,-15.0261,-0.6957
2755,1.2646,-8.2389,2.1843,15.7913,-14.0522,0.6957
2760,1.1879,-8.3921,2.3375,18.6435,-13.0087,2.3652
2765,1.0346,-8.6604,1.8777,21.7043,-12.1043,4.1739
2770,1.2263,-8.9286,2.1843,24.9739,-11.4783,5.9826
2775,1.3412,-9.1586,1.8394,27.7565,-11.2696,7.3043
2780,1.4945,-9.5418,1.4179,29.7739,-11.2,7.9304
2785,1.5328,-9.6567,1.1879,30.4,-11.3391,8.4174
2790,1.6478,-9.8866,0.9197,29.7739,-10.9913,8.8348
2795,1.6478,-10.0399,0.4598,28.5217,-10.2261,9.113
2800,1.6478,-10.6147,0.1533,26.7826,-8.9739,9.3217
2805,1.3029,-10.883,0.0383,24.6957,-7.7913,9.4609
2810,0.9963,-11.0746,-0.0383,21.7739,-7.2348,9.6
2815,0.4982,-11.1895,-0.5748,18.2261,-7.9304,10.4348
2820,0.0383,-11.726,-1.073,14.0522,-9.4609,12.0348
2825,-0.5748,-11.6877,-1.6095,9.0435,-10.2261,14.8174
2830,-0.7281,-11.6877,-2.031,3.7565,-8.4174,18.8522
2835,-0.115,-11.8793,-2.0693,-1.7391,-2.7826,22.5391
2840,1.3029,-12.1092,-1.8394,-6.887,6.0522,24.0
2845,2.874,-12.684,-0.7281,-11.2696,15.513,22.3304
2850,3.947,-13.6037,0.3449,-15.6522,23.2348,17.113
2855,4.2536,-14.4468,1.9543,-19.8261,27.8957,9.8783
2860,4.1003,-14.715,3.2572,-21.8435,28.8,2.1565
2865,3.6404,-15.1365,4.5601,-20.1043,25.4609,-5.9826
2870,3.1423,-15.2515,5.5564,-14.4,19.6174,-14.7478
2875,2.3375,-15.2515,5.863,-5.0087,14.1913,-22.8174
2880,1.4562,-14.8683,5.5948,6.7478,11.4783,-29.2174
2885,0.3832,-14.2935,5.3648,18.2957,12.2435,-33.0435
2890,-0.7281,-13.2971,4.6751,28.1043,16.0,-33.5304
2895,-1.8394,-12.4924,3.947,34.9217,20.7304,-30.8174
2900,-1.9927,-12.0709,2.7591,39.7913,25.6696,-26.5043
2905,-2.1076,-12.0326,1.2263,43.1304,30.6087,-23.7217
2910,-2.4908,-12.0709,-0.7664,41.7391,33.9478,-25.2522
2915,-3.2955,-11.9176,-3.2955,30.4,33.8087,-30.9565
2920,-3.6021,-12.1092,-4.4835,5.913,24.7652,-35.4783
2925,-2.5675,-12.799,-4.7134,-23.7217,4.7304,-34.8522
2930,-0.0383,-13.9869,-3.832,-42.1565,-12.1739,-31.3739
2935,1.8394,-14.5617,-3.2955,-41.3217,-13.2174,-29.0087
2940,3.4105,-14.4468,-2.6058,-26.4348,-3.2696,-30.5391
2945,3.9087,-13.1055,-2.6824,-7.2348,6.0522,-35.9652
2950,3.9853,-11.2279,-3.2955,9.6,9.3217,-41.6
2955,4.1386,-9.5418,-3.6404,21.0783,8.3478,-44.2435
2960,4.4068,-7.8173,-4.4452,26.1565,6.7478,-43.4087
2965,4.905,-6.5911,-4.8284,25.113,7.5826,-40.5565
2970,4.905,-5.863,-5.2116,21.0783,12.6609,-37.0783
2975,4.8284,-5.7097,-5.4415,16.6261,22.5391,-34.713
2980,3.7937,-6.2079,-5.2882,12.6609,34.713,-34.087
2985,2.2609,-7.1659,-4.7134,7.513,43.2696,-34.2261
2990,0.4215,-8.4688,-4.1769,-0.8348,41.9478,-34.087
2995,-0.6131,-10.0016,-2.9123,-11.5478,30.9565,-32.2783
