timestamp,accX,accY,accZ,gyroX,gyroY,gyroZ
0,0.7281,-9.7334,-0.1916,0.4174,0.2087,-0.4174
5,0.6898,-9.695,-0.3449,0.2783,0.1391,-0.4174
10,0.6898,-9.695,-0.2299,0.0696,0.1391,-0.4174
15,0.7281,-9.5418,-0.2299,-0.3478,0.2783,-0.3478
20,0.7664,-9.5801,-0.3449,-0.6957,0.6957,-0.3478
25,0.8047,-9.6567,-0.1916,-0.7652,0.9739,-0.2783
30,0.843,-9.695,-0.2682,-0.5565,1.3217,-0.2783
35,0.8814,-9.7334,-0.1533,-0.2783,1.6,-0.2087
40,0.9197,-9.8483,-0.1916,0.0,2.1565,-0.1391
45,0.9197,-9.7717,-0.2682,0.2087,2.5043,-0.1391
50,0.8814,-9.8483,-0.3832,0.487,2.9913,-0.1391
55,0.9963,-9.8866,-0.4982,0.1391,3.4783,-0.0696
60,1.073,-9.8866,-0.4215,-0.4174,3.687,0.0696
65,0.8814,-9.8866,-0.3449,-0.2087,4.2435,0.0696
70,0.9197,-9.9633,-0.4982,0.6957,4.7304,0.0696
75,0.9963,-9.9633,-0.5365,1.2522,4.9391,0.3478
80,0.9963,-9.7717,-0.4598,1.113,5.0783,0.4174
85,0.8814,-9.8483,-0.4598,1.0435,5.3565,0.4174
90,0.9197,-9.7717,-0.5748,1.5304,5.4261,0.2783
95,0.843,-9.81,-0.6898,1.7391,5.6348,0.4174
100,0.8047,-9.8483,-0.5365,1.7391,5.7043,0.2087
105,0.843,-9.9633,-0.6131,2.0174,5.9826,0.2087
110,0.8047,-9.8866,-0.5365,2.5043,6.4696,0.2087
115,0.6898,-9.9633,-0.5365,2.9217,6.6783,0.0696
120,0.6898,-9.8866,-0.5748,3.2,7.0261,0.0696
125,0.7664,-9.9633,-0.4215,3.4087,7.3739,0.0
130,0.5748,-9.8866,-0.4982,3.4783,7.7217,0.0
135,0.6131,-9.925,-0.6131,3.3391,8.0696,0.0696
140,0.6131,-9.925,-0.4215,2.8522,8.3478,0.0
145,0.4598,-9.7334,-0.4598,3.3391,8.6957,-0.1391
150,0.5748,-9.8866,-0.4215,4.6609,8.9043,-0.2783
155,0.3832,-9.925,-0.4982,5.8435,9.113,-0.3478
160,0.3066,-9.925,-0.6131,6.6087,9.3217,-0.4174
165,0.3832,-9.8483,-0.5365,7.1652,9.7391,-0.487
170,0.4215,-9.7717,-0.4982,7.513,9.9478,-0.487
175,0.3449,-9.925,-0.6514,7.7913,10.087,-0.4174
180,0.4982,-9.8483,-0.4215,7.7217,10.087,-0.2087
185,0.4215,-9.81,-0.3449,7.9304,10.2261,-0.2783
190,0.3449,-9.81,-0.3066,8.9043,10.2261,-0.2783
195,0.3832,-9.7717,-0.1916,9.8087,10.087,-0.2783
200,0.4215,-9.81,-0.3832,10.2957,9.8087,-0.3478
205,0.3832,-9.7334,-0.3449,10.2261,9.5304,-0.4174
210,0.4982,-9.6184,-0.3066,9.2522,9.113,-0.3478
215,0.3832,-9.5418,-0.3066,8.2783,8.8348,-0.5565
220,0.4982,-9.4651,-0.3449,7.7913,8.6957,-0.487
225,0.4215,-9.5034,-0.3449,7.3043,8.6261,-0.5565
230,0.5365,-9.5801,-0.3449,6.4,8.3478,-0.6261
235,0.5365,-9.4268,-0.3066,5.0783,8.1391,-0.9043
240,0.6131,-9.4651,-0.1533,3.5478,7.7913,-1.1826
245,0.6131,-9.6567,-0.3449,1.6696,7.2348,-1.6
250,0.6514,-9.5418,-0.2299,-0.4174,6.5391,-1.7391
255,0.7281,-9.7334,-0.0383,-2.3652,5.7043,-2.087
260,0.7281,-9.8483,0.1533,-2.713,5.0783,-2.4348
265,0.7664,-9.81,-0.0383,-2.2261,4.4522,-2.5043
270,0.7664,-9.81,0.0,-1.6696,3.7565,-2.4348
275,0.8047,-9.8866,-0.0383,-1.3913,3.4783,-2.2957
280,0.9197,-9.925,0.0383,-1.113,3.3391,-1.8783
285,0.8047,-9.8483,-0.0766,-0.8348,3.5478,-1.4609
290,0.9197,-9.81,-0.0383,-0.5565,3.7565,-1.0435
295,0.9197,-9.8483,-0.115,-0.2087,4.0348,-0.7652
300,0.958,-9.81,-0.0383,0.0,4.3826,-0.2783
305,0.958,-9.7717,-0.1916,0.2087,4.5913,-0.2087
310,0.958,-9.695,-0.115,0.3478,4.6609,-0.0696
315,0.8814,-9.695,-0.1916,0.5565,4.3826,-0.2087
320,0.958,-9.7717,-0.2682,0.4174,3.9652,-0.1391
325,0.7664,-9.6184,-0.2682,0.2783,3.5478,-0.2783
330,0.8814,-9.5801,-0.2682,-0.0696,3.3391,-0.2087
335,0.7664,-9.695,-0.1533,-0.3478,3.2,-0.2783
340,0.7664,-9.7334,-0.5365,-0.6261,3.2696,-0.2087
345,0.843,-9.5801,-0.1916,-1.1826,3.2696,-0.2087
350,0.6898,-9.7334,-0.2682,-1.5304,3.3391,-0.2783
355,0.7281,-9.6567,-0.1916,-1.7391,3.3391,-0.4174
360,0.5748,-9.8483,-0.1533,-1.8783,3.2696,-0.4174
365,0.6514,-9.81,-0.115,-1.9478,3.1304,-0.6261
370,0.4982,-9.7334,-0.0766,-2.0174,2.9913,-0.6957
375,0.6131,-9.8483,-0.1533,-2.1565,2.7826,-0.6957
380,0.6514,-9.695,-0.1533,-2.2261,2.713,-0.5565
385,0.6131,-9.695,-0.2682,-2.087,2.6435,-0.7652
390,0.6131,-9.7717,-0.1533,-2.2261,2.713,-0.6261
395,0.4982,-9.7334,-0.3066,-2.2957,2.7826,-0.7652
400,0.4215,-9.695,-0.2299,-2.5043,2.7826,-0.6957
405,0.6131,-9.81,-0.2299,-2.713,2.9217,-0.7652
410,0.5748,-9.81,-0.2299,-2.9217,2.9913,-0.7652
415,0.5748,-9.7334,-0.3449,-3.0609,3.1304,-0.8348
420,0.5748,-9.7717,-0.2682,-3.0609,3.1304,-0.8348
425,0.5748,-9.7717,-0.2299,-3.0609,3.1304,-0.9043
430,0.6514,-9.7717,-0.3449,-2.7826,3.1304,-0.9739
435,0.4982,-9.81,-0.4215,-2.5043,3.1304,-0.9739
440,0.6131,-9.81,-0.1916,-2.1565,3.0609,-0.8348
445,0.6514,-9.8483,-0.1916,-2.0174,2.9913,-0.9739
450,0.5365,-9.81,-0.1916,-1.6696,2.8522,-0.7652
455,0.5748,-9.7717,-0.2299,-1.3913,2.7826,-0.9043
460,0.6131,-9.81,-0.3449,-1.2522,2.5043,-0.7652
465,0.5365,-9.8866,-0.1916,-1.113,2.2261,-0.7652
470,0.6131,-9.695,-0.2682,-1.0435,1.9478,-0.5565
475,0.7281,-9.7334,-0.2682,-1.113,1.7391,-0.487
480,0.6131,-9.7334,-0.1533,-1.0435,1.6696,-0.2783
485,0.6131,-9.695,-0.2682,-1.2522,1.3913,-0.1391
490,0.6131,-9.7334,-0.3449,-1.5304,1.1826,0.0696
495,0.6131,-9.7717,-0.2299,-2.087,0.9739,0.0696
500,0.5748,-9.6184,-0.2682,-2.1565,0.9043,0.2783
505,0.5748,-9.6567,-0.3066,-2.2957,0.6957,0.2087
510,0.6514,-9.6567,-0.1916,-2.713,0.5565,0.2087
515,0.6514,-9.7334,-0.2682,-2.8522,0.487,0.0696
520,0.6514,-9.6184,-0.3066,-3.3391,0.2783,0.0696
525,0.6131,-9.6184,-0.2682,-3.687,0.1391,-0.2087
530,0.7664,-9.6184,-0.3066,-4.1043,0.0696,-0.2783
535,0.5748,-9.5801,-0.4982,-4.5217,0.1391,-0.4174
540,0.7664,-9.7334,-0.3832,-4.9391,0.0,-0.487
545,0.7281,-9.7334,-0.2682,-5.2174,0.0,-0.6957
550,0.843,-9.6567,-0.3449,-5.6348,0.0696,-0.7652
555,0.7664,-9.695,-0.4215,-5.913,0.0,-1.113
560,0.8047,-9.7334,-0.3449,-6.1217,0.0696,-1.113
565,0.7281,-9.81,-0.3449,-6.4,0.1391,-1.4609
570,0.7664,-9.8866,-0.3449,-6.6087,0.2783,-1.4609
575,0.7664,-9.81,-0.2682,-6.8174,0.3478,-1.6
580,0.8814,-9.8483,-0.3449,-7.2348,0.5565,-1.5304
585,0.8047,-9.81,-0.3449,-7.7217,0.6261,-1.6
590,0.9197,-9.925,-0.2682,-8.1391,0.9043,-1.3913
595,0.9197,-9.9633,-0.3066,-8.7652,1.1826,-1.3913
600,0.843,-9.8483,-0.3066,-9.1826,1.6696,-1.0435
605,0.8047,-9.8483,-0.2682,-9.3913,2.1565,-1.0435
610,0.9197,-9.8483,-0.4215,-9.4609,2.713,-0.6957
615,0.8047,-9.8866,-0.4215,-9.1826,3.2696,-0.6261
620,0.9197,-9.8866,-0.4215,-8.8348,4.0348,-0.2783
625,0.9197,-9.9633,-0.5365,-8.0696,4.7304,-0.2783
630,0.7664,-9.8483,-0.6131,-7.1652,5.3565,0.0
635,0.843,-9.8866,-0.4598,-6.3304,5.913,-0.0696
640,0.8047,-9.8866,-0.4982,-5.287,6.1217,0.1391
645,0.7664,-9.925,-0.5748,-4.313,6.1913,0.0
650,0.6514,-9.8483,-0.6514,-3.3391,6.1217,0.1391
655,0.7281,-9.81,-0.4598,-2.4348,5.7739,-0.1391
660,0.843,-9.8483,-0.4982,-1.5304,5.6348,0.0
665,0.7664,-9.81,-0.5365,-0.7652,5.3565,-0.2783
670,0.6898,-9.7717,-0.4598,-0.1391,5.0087,-0.1391
675,0.7664,-9.7334,-0.4598,0.4174,4.6609,-0.2087
680,0.7664,-9.7334,-0.4215,0.7652,4.5217,0.0696
685,0.8047,-9.695,-0.3449,1.0435,4.4522,0.1391
690,0.6898,-9.5418,-0.3449,0.9739,4.4522,0.3478
695,0.843,-9.6567,-0.2682,0.9739,4.4522,0.4174
700,0.6898,-9.5801,-0.1533,0.7652,4.3826,0.5565
705,0.6898,-9.6184,-0.1916,0.5565,4.313,0.4174
710,0.5748,-9.5801,-0.3066,0.4174,4.1043,0.6261
715,0.8047,-9.6567,-0.2682,0.0,3.8957,0.3478
720,0.8814,-9.7717,-0.3449,-0.4174,3.7565,0.2783
725,0.6898,-9.7334,-0.0766,-0.8348,3.4087,0.0
730,0.7281,-9.6567,-0.2682,-1.3913,3.2696,-0.0696
735,0.6898,-9.8483,-0.1916,-1.9478,3.1304,-0.3478
740,0.6898,-9.695,-0.1533,-2.4348,3.0609,-0.3478
745,0.6514,-9.695,-0.1916,-2.7826,3.0609,-0.5565
750,0.7664,-9.81,-0.3832,-2.9913,2.9913,-0.3478
755,0.7281,-9.7334,-0.3449,-2.9913,3.1304,-0.5565
760,0.6898,-9.8483,-0.3066,-2.8522,3.2696,-0.3478
765,0.6898,-9.7334,-0.4215,-2.6435,3.4087,-0.6261
770,0.843,-9.925,-0.3449,-2.5043,3.5478,-0.487
775,0.6514,-9.7717,-0.3066,-2.2261,3.7565,-0.6957
780,0.6514,-9.925,-0.3832,-1.9478,4.0348,-0.6261
785,0.7281,-9.8866,-0.4982,-1.7391,4.4522,-0.6261
790,0.6514,-9.7717,-0.5365,-1.6,4.9391,-0.487
795,0.8047,-9.81,-0.4982,-1.3913,5.1478,-0.7652
800,0.6514,-9.7334,-0.6131,-1.1826,5.4261,-0.6261
805,0.6131,-9.8483,-0.4982,-1.113,5.5652,-0.6957
810,0.6898,-9.81,-0.5365,-0.9739,5.7739,-0.487
815,0.6898,-9.8483,-0.4982,-0.9043,5.8435,-0.5565
820,0.6898,-9.7717,-0.4598,-1.0435,5.913,-0.3478
825,0.6898,-9.7717,-0.4598,-1.113,5.9826,-0.487
830,0.6898,-9.81,-0.4598,-1.113,5.8435,-0.2783
835,0.5365,-9.695,-0.4598,-1.3217,5.7043,-0.3478
840,0.6514,-9.7334,-0.6131,-1.5304,5.6348,-0.2087
845,0.6514,-9.5801,-0.4982,-1.8087,5.287,-0.2783
850,0.6514,-9.7334,-0.4215,-2.2957,5.0783,-0.0696
855,0.6898,-9.7334,-0.4982,-2.5739,4.9391,-0.2783
860,0.5748,-9.6567,-0.4982,-2.9217,4.8,-0.1391
865,0.5748,-9.7717,-0.4598,-3.0609,4.6609,-0.4174
870,0.5748,-9.6567,-0.4215,-3.1304,4.5217,-0.4174
875,0.6514,-9.7334,-0.5365,-3.2,4.5217,-0.6957
880,0.5748,-9.695,-0.4598,-3.3391,4.6609,-0.6261
885,0.6514,-9.7717,-0.3832,-3.3391,4.8,-0.9739
890,0.6898,-9.925,-0.4598,-3.3391,4.8696,-1.0435
895,0.6514,-9.81,-0.3832,-3.2,4.9391,-1.3913
900,0.6514,-9.8866,-0.4215,-3.0609,4.9391,-1.2522
905,0.6131,-9.8866,-0.4982,-2.9217,4.8,-1.6696
910,0.6898,-9.8483,-0.4982,-2.713,4.8696,-1.6
915,0.6131,-9.8483,-0.4982,-2.4348,4.6609,-1.8087
920,0.5365,-9.81,-0.4598,-2.2261,4.6609,-1.7391
925,0.6514,-9.7717,-0.3832,-1.8783,4.5217,-1.8783
930,0.6131,-9.81,-0.4598,-1.5304,4.4522,-1.6696
935,0.6898,-9.8483,-0.4215,-1.3217,4.3826,-1.8087
940,0.8047,-9.81,-0.4982,-1.113,4.3826,-1.3217
945,0.6898,-9.81,-0.4598,-0.9739,4.2435,-1.2522
950,0.8047,-9.695,-0.4598,-0.9043,4.313,-0.8348
955,0.843,-9.7717,-0.4215,-0.8348,4.4522,-0.9043
960,0.8047,-9.695,-0.3832,-0.9739,4.5217,-0.5565
965,0.7664,-9.6567,-0.4598,-1.2522,4.7304,-0.6261
970,0.8047,-9.6567,-0.4215,-1.6696,4.8,-0.5565
975,0.843,-9.6567,-0.4215,-2.087,4.7304,-0.6957
980,0.7664,-9.5801,-0.4598,-2.5739,4.8,-0.6261
985,0.8814,-9.5801,-0.3449,-3.1304,4.7304,-0.8348
990,0.843,-9.5801,-0.4982,-3.687,4.6609,-0.7652
995,0.843,-9.695,-0.4982,-4.3826,4.5217,-1.0435
1000,0.843,-9.7334,-0.2682,-4.8696,4.313,-0.9739
1005,0.8047,-9.7334,-0.5365,-5.3565,4.2435,-1.2522
1010,0.7664,-9.6567,-0.3832,-5.7739,4.0348,-1.1826
1015,0.843,-9.6184,-0.3449,-6.2609,3.9652,-1.3913
1020,0.7664,-9.7717,-0.3066,-6.5391,3.9652,-1.3217
1025,0.8047,-9.7334,-0.5365,-6.7478,3.8261,-1.6
1030,0.7664,-9.7334,-0.3832,-6.887,3.6174,-1.5304
1035,0.8047,-9.7717,-0.4215,-6.887,3.4783,-1.8087
1040,0.7664,-9.695,-0.4598,-7.0261,3.4087,-1.6
1045,0.843,-9.8483,-0.3449,-6.8174,3.3391,-1.7391
1050,0.7281,-9.81,-0.3832,-6.6783,3.4087,-1.3913
1055,0.7281,-9.81,-0.4598,-6.4,3.3391,-1.3913
1060,0.843,-9.925,-0.4598,-5.913,3.4783,-0.9043
1065,0.7281,-9.8483,-0.4982,-5.4957,3.4783,-0.8348
1070,0.7664,-9.81,-0.5365,-4.8696,3.687,-0.2087
1075,0.7281,-9.8483,-0.4598,-4.2435,3.7565,-0.1391
1080,0.7664,-9.8483,-0.5365,-3.687,3.9652,0.2783
1085,0.7281,-9.7717,-0.5365,-3.4087,4.0348,0.3478
1090,0.7281,-9.7717,-0.4982,-3.2,4.3826,0.6261
1095,0.6898,-9.81,-0.4982,-3.2,4.5913,0.5565
1100,0.6514,-9.81,-0.5365,-3.0609,4.8,0.7652
1105,0.7281,-9.7334,-0.4982,-3.0609,4.9391,0.487
1110,0.8047,-9.8483,-0.5748,-3.0609,5.0087,0.487
1115,0.8047,-9.7334,-0.6514,-2.9217,5.1478,0.1391
1120,0.7664,-9.7334,-0.5748,-2.7826,5.0087,0.0696
1125,0.8047,-9.81,-0.5365,-2.6435,5.0783,-0.2087
1130,0.7664,-9.695,-0.5365,-2.4348,5.0087,-0.2783
1135,0.6514,-9.7334,-0.4215,-2.1565,4.9391,-0.5565
1140,0.6514,-9.695,-0.5748,-1.8087,4.8,-0.487
1145,0.8047,-9.8483,-0.4598,-1.5304,4.7304,-0.487
1150,0.7664,-9.7334,-0.4598,-1.1826,4.4522,-0.1391
1155,0.7281,-9.7334,-0.5365,-1.0435,4.313,-0.2783
1160,0.843,-9.7334,-0.4215,-0.8348,3.9652,-0.0696
1165,0.7281,-9.7334,-0.5748,-0.6957,3.7565,-0.0696
1170,0.7281,-9.695,-0.4598,-0.6957,3.6174,0.2087
1175,0.6898,-9.6184,-0.5365,-0.8348,3.687,0.2087
1180,0.7281,-9.7334,-0.6131,-1.0435,3.4783,0.4174
1185,0.6898,-9.7334,-0.6131,-1.2522,3.6174,0.3478
1190,0.7281,-9.6184,-0.6131,-1.6,3.6174,0.487
1195,0.5748,-9.7334,-0.4982,-1.7391,3.5478,0.3478
1200,0.7664,-9.81,-0.4215,-2.0174,3.6174,0.4174
1205,0.6898,-9.7717,-0.5748,-2.2957,3.6174,0.2087
1210,0.6514,-9.8483,-0.6514,-2.4348,3.6174,0.3478
1215,0.6898,-9.8483,-0.5365,-2.5043,3.6174,0.1391
1220,0.7664,-9.8866,-0.5748,-2.5739,3.5478,0.2783
1225,0.6131,-9.7717,-0.6898,-2.713,3.5478,0.1391
1230,0.7281,-9.8483,-0.5365,-2.713,3.5478,0.487
1235,0.6514,-9.8483,-0.7281,-2.713,3.4783,0.5565
1240,0.6514,-9.925,-0.6514,-2.713,3.4783,0.9739
1245,0.8047,-9.8483,-0.4982,-2.5043,3.4783,0.9043
1250,0.8047,-9.8866,-0.6131,-2.2957,3.5478,1.1826
1255,0.6898,-9.8866,-0.5748,-1.8087,3.5478,1.113
1260,0.8814,-9.8483,-0.6131,-1.3913,3.5478,1.1826
1265,0.8047,-9.9633,-0.6898,-0.9043,3.5478,0.9739
1270,0.843,-9.7334,-0.6514,-0.4174,3.4087,0.9739
1275,0.7664,-9.6567,-0.7664,-0.1391,3.4087,0.5565
1280,0.7664,-9.6567,-0.6898,0.0696,3.2,0.4174
1285,0.7664,-9.7334,-0.6898,0.2783,3.1304,-0.0696
1290,0.8047,-9.7717,-0.6898,0.1391,3.2696,-0.2087
1295,0.6898,-9.695,-0.6131,-0.1391,3.3391,-0.6261
1300,0.6131,-9.6184,-0.7281,-0.5565,3.6174,-0.6261
1305,0.6131,-9.6567,-0.6131,-0.9739,3.7565,-0.9043
1310,0.6898,-9.8483,-0.7281,-1.3217,3.8957,-1.0435
1315,0.6131,-9.695,-0.4982,-1.6,4.1739,-1.1826
1320,0.7281,-9.7717,-0.4982,-1.6696,4.2435,-1.0435
1325,0.6898,-9.7717,-0.4982,-1.6,4.3826,-1.1826
1330,0.7664,-9.6567,-0.5748,-1.5304,4.3826,-0.9739
1335,0.8047,-9.8483,-0.8047,-1.4609,4.3826,-1.1826
1340,0.6898,-9.81,-0.5365,-1.3913,4.3826,-0.9739
1345,0.6514,-9.7717,-0.4598,-1.2522,4.313,-1.1826
1350,0.8047,-9.7334,-0.4598,-1.3217,4.2435,-1.0435
1355,0.5748,-9.695,-0.6898,-1.3913,4.2435,-1.1826
1360,0.7281,-9.7334,-0.6131,-1.3913,4.2435,-1.0435
1365,0.7281,-9.8866,-0.5365,-1.3913,4.313,-1.1826
1370,0.6898,-9.7717,-0.5748,-1.3217,4.1739,-1.0435
1375,0.6131,-9.695,-0.6131,-1.1826,4.313,-1.113
1380,0.6131,-9.695,-0.6131,-1.1826,4.3826,-0.9043
1385,0.6898,-9.7334,-0.5365,-1.1826,4.5913,-0.9739
1390,0.7281,-9.7717,-0.4982,-1.113,4.9391,-0.8348
1395,0.8047,-9.8866,-0.4215,-1.113,5.1478,-0.9739
1400,0.7281,-9.7717,-0.4982,-1.0435,5.287,-0.8348
1405,0.7664,-9.7717,-0.3832,-0.8348,5.3565,-1.113
1410,0.8047,-9.81,-0.6898,-0.6261,5.287,-1.0435
1415,0.8047,-9.7334,-0.5365,-0.487,5.3565,-1.2522
1420,0.843,-9.81,-0.4982,-0.1391,5.4957,-1.0435
1425,0.8047,-9.81,-0.4982,0.0696,5.5652,-1.1826
1430,0.7281,-9.695,-0.5748,0.487,5.6348,-0.8348
1435,0.6898,-9.695,-0.4598,0.7652,5.5652,-0.9739
1440,0.843,-9.81,-0.4598,1.0435,5.4261,-0.6957
1445,0.843,-9.8866,-0.4982,1.6,5.4261,-0.7652
1450,0.7664,-9.7717,-0.5365,2.0174,5.3565,-0.5565
1455,0.7664,-9.8483,-0.4215,2.5043,5.2174,-0.6261
1460,0.6898,-9.8866,-0.5748,2.9217,4.9391,-0.4174
1465,0.8047,-9.7717,-0.6131,3.2696,4.8,-0.3478
1470,0.6514,-9.81,-0.4598,3.6174,4.8,-0.2087
1475,0.7664,-9.6567,-0.5748,3.8957,4.6609,-0.1391
1480,0.8047,-9.7334,-0.5365,4.0348,4.5913,-0.0696
1485,0.8814,-9.695,-0.6131,4.0348,4.5913,-0.0696
1490,0.843,-9.5418,-0.6514,3.8957,4.8,0.1391
1495,0.7664,-9.5034,-0.5365,3.687,4.9391,0.0696
1500,0.9197,-9.7334,-0.6131,3.4087,5.1478,0.2783
1505,0.9197,-9.6184,-0.6131,3.2,5.287,0.2087
1510,0.843,-9.5801,-0.6131,2.7826,5.3565,0.4174
1515,0.9197,-9.6567,-0.4982,2.2957,5.287,0.3478
1520,0.843,-9.7334,-0.6131,1.8783,5.2174,0.487
1525,0.843,-9.6184,-0.4982,1.4609,5.1478,0.4174
1530,0.8047,-9.695,-0.4215,1.1826,5.0783,0.487
1535,0.8814,-9.7334,-0.5365,0.9043,5.1478,0.487
1540,0.6898,-9.81,-0.3449,0.7652,5.0783,0.487
1545,0.6898,-9.8483,-0.3449,0.5565,5.1478,0.3478
1550,0.7664,-9.8483,-0.4598,0.2783,5.1478,0.4174
1555,0.6131,-9.7717,-0.5365,0.0696,5.1478,0.2783
1560,0.6514,-9.925,-0.5365,0.0,5.287,0.2783
1565,0.5365,-9.81,-0.4598,-0.1391,5.3565,0.0696
1570,0.6514,-9.8866,-0.4598,0.0,5.5652,0.2087
1575,0.5748,-9.8483,-0.5365,0.0696,5.7043,-0.0696
1580,0.5748,-9.8483,-0.4982,0.2087,5.8435,-0.0696
1585,0.6514,-9.925,-0.4215,0.4174,5.8435,-0.2783
1590,0.6131,-9.695,-0.4982,0.5565,5.8435,-0.2783
1595,0.6514,-9.925,-0.5365,0.9739,5.7739,-0.4174
1600,0.6898,-9.8866,-0.3832,1.1826,5.6348,-0.487
1605,0.6131,-9.925,-0.5365,1.3217,5.6348,-0.6261
1610,0.4982,-9.6567,-0.4598,1.4609,5.7043,-0.4174
1615,0.6514,-9.7334,-0.5365,1.6,5.6348,-0.4174
1620,0.6514,-9.7334,-0.5365,1.6696,5.6348,-0.2087
1625,0.6898,-9.7717,-0.4598,1.6696,5.4957,-0.2783
1630,0.7664,-9.695,-0.4215,1.3913,5.4261,-0.0696
1635,0.7664,-9.8483,-0.4598,1.1826,5.2174,-0.0696
1640,0.843,-9.6184,-0.4982,0.9739,5.0783,-0.0696
1645,0.7281,-9.695,-0.3066,0.8348,4.8696,-0.1391
1650,0.843,-9.695,-0.3449,0.6261,4.6609,-0.0696
1655,0.7664,-9.6567,-0.5748,0.3478,4.5217,-0.2783
1660,0.7281,-9.7717,-0.3832,0.0696,4.2435,-0.2087
1665,0.7664,-9.7717,-0.4982,-0.1391,4.0348,-0.487
1670,0.8047,-9.81,-0.5365,-0.2087,3.7565,-0.3478
1675,0.8047,-9.8866,-0.3832,-0.2087,3.687,-0.6261
1680,0.8047,-9.8483,-0.4215,-0.2783,3.7565,-0.487
1685,0.8047,-9.7717,-0.4215,-0.0696,3.8957,-0.5565
1690,0.7281,-9.81,-0.6131,0.1391,4.0348,-0.5565
1695,0.6898,-9.81,-0.4598,0.5565,4.0348,-0.6957
1700,0.7664,-9.8483,-0.4598,0.9043,3.8957,-0.5565
1705,0.7281,-9.81,-0.3066,1.3913,3.8957,-0.6261
1710,0.6898,-9.81,-0.4982,1.8783,3.8957,-0.4174
1715,0.7664,-9.7334,-0.3832,2.3652,3.687,-0.5565
1720,0.843,-9.695,-0.4215,2.713,3.687,-0.487
1725,0.8047,-9.7717,-0.4598,2.9913,3.687,-0.5565
1730,0.6514,-9.6184,-0.4598,2.9913,3.687,-0.487
1735,0.7281,-9.7334,-0.3066,2.7826,3.8261,-0.6261
1740,0.7281,-9.7717,-0.4215,2.5043,3.687,-0.5565
1745,0.7281,-9.6567,-0.3449,1.9478,3.687,-0.6261
1750,0.7664,-9.7717,-0.3832,1.3217,3.6174,-0.6261
1755,0.7664,-9.6184,-0.4215,0.5565,3.6174,-0.7652
1760,0.8047,-9.7334,-0.4215,-0.3478,3.4087,-0.9043
1765,0.7281,-9.695,-0.2299,-0.9739,3.2696,-1.113
1770,0.7281,-9.81,-0.4982,-1.6,2.9913,-1.1826
1775,0.6514,-9.7334,-0.2682,-2.087,2.7826,-1.2522
1780,0.7281,-9.7334,-0.4982,-2.1565,2.4348,-1.113
1785,0.6898,-9.81,-0.4598,-2.5043,2.3652,-1.1826
1790,0.8047,-9.8866,-0.4982,-2.6435,2.2261,-1.113
1795,0.7281,-9.7717,-0.4598,-2.713,2.0174,-1.113
1800,0.6898,-9.7717,-0.3832,-2.713,2.0174,-0.9739
1805,0.6898,-9.7334,-0.4215,-2.7826,2.0174,-1.0435
1810,0.7664,-9.7717,-0.4598,-2.8522,2.2261,-0.9739
1815,0.6514,-9.81,-0.3449,-2.9913,2.1565,-0.9739
1820,0.8047,-9.8483,-0.3832,-2.9217,2.3652,-0.8348
1825,0.7664,-9.81,-0.3832,-2.9217,2.4348,-0.7652
1830,0.6131,-9.7334,-0.4598,-2.713,2.7826,-0.6957
1835,0.7281,-9.8483,-0.4215,-2.3652,2.9913,-0.6261
1840,0.7281,-9.81,-0.3832,-2.087,3.1304,-0.487
1845,0.6898,-9.8483,-0.3832,-1.5304,3.2,-0.5565
1850,0.6131,-9.8866,-0.4215,-0.9739,3.4783,-0.487
1855,0.6898,-9.7334,-0.3066,-0.4174,3.4783,-0.487
1860,0.7664,-9.8483,-0.4215,-0.0696,3.4783,-0.6261
1865,0.6514,-9.7717,-0.4598,0.2783,3.4783,-0.7652
1870,0.7281,-9.7334,-0.3449,0.4174,3.4087,-0.8348
1875,0.7664,-9.8483,-0.2682,0.6261,3.4783,-0.9739
1880,0.8047,-9.7717,-0.3832,0.5565,3.3391,-1.0435
1885,0.7664,-9.695,-0.3066,0.2087,3.3391,-1.1826
1890,0.7664,-9.7334,-0.3066,-0.2087,3.4087,-1.1826
1895,0.6898,-9.5801,-0.2299,-0.7652,3.3391,-1.2522
1900,0.7281,-9.7334,-0.4598,-1.3217,3.0609,-1.2522
1905,0.7664,-9.695,-0.3832,-1.8783,3.1304,-1.113
1910,0.6898,-9.6567,-0.5365,-2.3652,3.1304,-1.2522
1915,0.8047,-9.5801,-0.3449,-2.713,3.2,-1.0435
1920,0.843,-9.695,-0.4215,-2.9913,3.2696,-0.9739
1925,0.8047,-9.7334,-0.4215,-3.3391,3.2696,-0.8348
1930,0.8047,-9.5801,-0.4598,-3.687,3.2696,-0.7652
1935,0.843,-9.695,-0.3449,-3.8261,3.2696,-0.6957
1940,0.843,-9.695,-0.4215,-3.9652,3.2,-0.6957
1945,0.9197,-9.7717,-0.6131,-4.0348,3.1304,-0.6261
1950,0.843,-9.7717,-0.4215,-3.8957,3.4087,-0.487
1955,0.8047,-9.8483,-0.4598,-3.5478,3.5478,-0.4174
1960,0.8047,-9.8866,-0.4598,-3.0609,3.687,-0.487
1965,0.8047,-9.925,-0.4982,-2.713,3.8261,-0.3478
1970,0.7281,-9.81,-0.5365,-2.3652,3.8957,-0.4174
1975,0.6898,-10.0016,-0.3832,-1.8087,3.8957,-0.3478
1980,0.8047,-9.9633,-0.4982,-1.3913,3.9652,-0.487
1985,0.8047,-9.8483,-0.4982,-0.9043,3.7565,-0.487
1990,0.6898,-9.81,-0.5748,-0.6261,3.687,-0.5565
1995,0.7664,-9.8866,-0.4598,-0.3478,3.6174,-0.5565
2000,0.6898,-9.7717,-0.4982,-0.0696,3.5478,-0.4174
2005,0.8047,-9.695,-0.5365,0.1391,3.5478,-0.4174
2010,0.8047,-9.695,-0.4215,0.2087,3.4783,-0.4174
2015,0.8047,-9.8483,-0.4598,0.1391,3.3391,-0.4174
2020,0.7281,-9.7334,-0.3832,0.0,3.2696,-0.5565
2025,0.843,-9.6567,-0.3449,-0.2087,3.3391,-0.4174
2030,0.8047,-9.6184,-0.3832,-0.487,3.4087,-0.487
2035,0.8047,-9.7717,-0.4982,-0.9739,3.5478,-0.487
2040,0.7664,-9.6567,-0.4598,-1.4609,3.687,-0.3478
2045,0.7281,-9.6567,-0.3832,-1.9478,3.9652,-0.3478
2050,0.843,-9.695,-0.4982,-2.5043,4.1739,-0.3478
2055,0.843,-9.7334,-0.3832,-2.9217,4.313,-0.2783
2060,0.8047,-9.7717,-0.5748,-3.2,4.4522,-0.2087
2065,0.8047,-9.7334,-0.3832,-3.6174,4.4522,-0.2783
2070,0.958,-9.7717,-0.5748,-3.8261,4.4522,-0.3478
2075,0.6898,-9.5418,-0.6131,-4.1739,4.313,-0.3478
2080,0.843,-9.81,-0.4215,-4.3826,4.1739,-0.487
2085,0.843,-9.81,-0.5365,-4.4522,4.2435,-0.5565
2090,0.843,-9.7717,-0.4982,-4.5217,4.1043,-0.6261
2095,0.6898,-9.695,-0.6898,-4.4522,4.1043,-0.5565
2100,0.7281,-9.8483,-0.4982,-4.313,4.2435,-0.5565
2105,0.6898,-9.81,-0.4982,-4.1739,4.3826,-0.487
2110,0.6514,-9.81,-0.6131,-3.9652,4.4522,-0.5565
2115,0.7281,-9.81,-0.5365,-3.6174,4.4522,-0.5565
2120,0.7281,-9.925,-0.5748,-3.0609,4.4522,-0.6261
2125,0.8047,-9.8866,-0.4215,-2.4348,4.4522,-0.5565
2130,0.7664,-9.925,-0.5365,-1.8087,4.4522,-0.6261
2135,0.6898,-9.8483,-0.5365,-1.113,4.3826,-0.5565
2140,0.7664,-9.9633,-0.4982,-0.487,4.2435,-0.6261
2145,0.6898,-9.8866,-0.4215,0.0696,4.1739,-0.5565
2150,0.6898,-9.8483,-0.4598,0.2783,4.1739,-0.6261
2155,0.6898,-9.7717,-0.4598,0.3478,4.1739,-0.6261
2160,0.8047,-9.695,-0.4598,0.2087,4.1043,-0.6957
2165,0.6514,-9.81,-0.4598,-0.0696,4.1043,-0.6957
2170,0.7281,-9.6184,-0.4215,-0.4174,4.1043,-0.7652
2175,0.7281,-9.5418,-0.4598,-1.1826,4.1043,-0.6957
2180,0.7281,-9.6184,-0.4215,-1.8087,4.1043,-0.8348
2185,0.8047,-9.5034,-0.5365,-2.8522,4.1739,-0.8348
2190,0.843,-9.5418,-0.6131,-3.9652,4.2435,-0.9043
2195,0.8047,-9.5418,-0.4982,-5.3565,4.313,-1.0435
2200,0.8047,-9.6567,-0.3832,-6.887,4.313,-1.3913
2205,0.7664,-9.5034,-0.6131,-8.2783,4.313,-1.6
2210,0.9197,-9.5418,-0.5365,-9.8783,4.313,-1.8087
2215,0.843,-9.6567,-0.6514,-11.2696,4.2435,-2.0174
2220,0.843,-9.81,-0.6131,-12.313,4.2435,-2.4348
2225,0.7281,-9.6567,-0.5748,-12.9391,4.313,-2.4348
2230,0.7664,-9.7334,-0.5365,-13.287,4.313,-2.7826
2235,0.7281,-9.8866,-0.5748,-13.287,4.313,-2.7826
2240,0.7281,-9.8483,-0.6131,-13.0783,4.313,-2.9217
2245,0.7281,-9.81,-0.6131,-12.4522,4.3826,-2.7826
2250,0.6514,-9.925,-0.5365,-11.4087,4.5217,-2.5739
2255,0.6898,-9.9633,-0.6898,-10.2261,4.5913,-2.2261
2260,0.6131,-9.925,-0.6131,-8.8348,4.6609,-2.0174
2265,0.6131,-9.9633,-0.4598,-7.3739,4.5913,-1.6696
2270,0.5748,-9.925,-0.4215,-5.9826,4.4522,-1.3217
2275,0.5365,-9.8483,-0.4982,-4.6609,4.5913,-0.9043
2280,0.5748,-9.8483,-0.4982,-3.5478,4.5217,-0.8348
2285,0.5365,-9.7717,-0.4215,-2.8522,4.5217,-0.5565
2290,0.5748,-9.6567,-0.4598,-2.713,4.8696,-0.6957
2295,0.6131,-9.6184,-0.4982,-2.7826,5.1478,-0.6261
2300,0.6514,-9.7334,-0.3832,-3.3391,5.5652,-0.9043
2305,0.5748,-9.6184,-0.3832,-4.313,5.8435,-0.9739
2310,0.6131,-9.5034,-0.4982,-5.6348,6.0522,-1.3217
2315,0.6898,-9.5034,-0.4598,-7.3043,5.9826,-1.2522
2320,0.6898,-9.5801,-0.3832,-9.0435,6.0522,-1.1826
2325,0.843,-9.6184,-0.6514,-10.7826,5.8435,-0.9739
2330,0.8814,-9.5801,-0.4215,-12.313,5.7739,-0.6261
2335,0.8814,-9.4651,-0.6131,-13.6348,5.913,0.0
2340,1.0346,-9.5801,-0.6514,-14.4,5.7043,0.3478
2345,1.1113,-9.695,-0.4982,-14.6783,5.5652,0.9739
2350,1.1496,-9.6184,-0.5365,-14.4,5.1478,1.4609
2355,1.073,-9.695,-0.4982,-13.6348,4.8,2.087
2360,1.1496,-9.81,-0.5365,-12.6609,4.3826,2.4348
2365,1.0346,-9.7717,-0.5365,-11.4783,3.8957,2.9217
2370,1.073,-9.7717,-0.5748,-10.2261,3.2696,2.9913
2375,0.9963,-9.8866,-0.7664,-9.3217,2.8522,3.2696
2380,0.9197,-9.8483,-0.6514,-8.3478,2.4348,3.1304
2385,0.843,-9.8866,-0.6514,-7.513,2.2957,2.9913
2390,0.843,-9.8866,-0.7281,-7.0261,2.2261,2.4348
2395,0.8047,-9.8483,-0.8814,-6.5391,2.1565,2.087
2400,0.843,-9.7717,-0.6514,-6.3304,2.1565,1.3913
2405,0.8047,-9.7717,-0.7664,-6.1217,2.2957,1.0435
2410,0.7281,-9.7334,-0.8047,-6.1913,2.5043,0.3478
2415,0.8814,-9.6567,-0.8047,-6.5391,2.713,0.0
2420,0.7664,-9.5801,-1.1496,-7.1652,2.9913,-0.6261
2425,0.6514,-9.6184,-0.8814,-7.9304,3.3391,-1.113
2430,0.7664,-9.7334,-1.073,-8.9739,3.6174,-1.6696
2435,0.843,-9.6567,-0.843,-10.2261,3.8957,-2.0174
2440,0.7281,-9.695,-1.0346,-12.0348,4.1739,-2.5043
2445,0.7664,-9.695,-1.1496,-13.7043,4.5217,-2.5739
2450,0.7664,-9.6567,-1.073,-15.7913,4.8696,-2.713
2455,0.8047,-9.5801,-1.073,-17.7391,5.287,-2.713
2460,0.8047,-9.7334,-1.073,-19.6174,5.7043,-2.8522
2465,0.8814,-9.695,-1.1113,-21.1478,6.0522,-2.6435
2470,0.8047,-9.6567,-1.1113,-22.4,6.2609,-2.6435
2475,0.8047,-9.6184,-0.843,-23.3739,6.4696,-2.3652
2480,0.8047,-9.5801,-1.2263,-24.0,6.5391,-2.2957
2485,0.7281,-9.7717,-1.1113,-24.1391,6.5391,-1.9478
2490,0.5748,-9.81,-1.1113,-24.0696,6.3304,-1.8087
2495,0.6898,-9.7334,-1.2646,-23.4435,6.0522,-1.3913
2500,0.5748,-9.7717,-1.073,-22.5391,5.7043,-1.3217
2505,0.6514,-9.81,-1.2646,-21.4261,5.287,-0.9739
2510,0.6131,-9.7334,-1.1879,-20.2435,4.8,-0.9739
2515,0.6898,-9.5801,-1.1879,-19.2,4.4522,-0.7652
2520,0.6131,-9.7717,-1.3412,-18.4348,4.0348,-0.9739
2525,0.6514,-9.7717,-1.3029,-18.0174,3.5478,-1.0435
2530,0.6131,-9.6567,-1.3029,-17.9478,3.3391,-1.4609
2535,0.6131,-9.6567,-1.1496,-18.2261,2.9913,-1.6696
2540,0.5748,-9.7334,-1.2263,-19.1304,2.9217,-2.087
2545,0.6898,-9.5801,-1.3795,-20.5217,3.1304,-2.2261
2550,0.6514,-9.5418,-1.4179,-22.7478,3.5478,-2.713
2555,0.843,-9.6567,-1.5711,-24.8348,4.2435,-2.7826
2560,0.9197,-9.5418,-1.4945,-26.9217,4.8,-3.2
2565,0.8814,-9.5801,-1.3795,-28.7304,5.2174,-3.1304
2570,0.9197,-9.5418,-1.4179,-30.1217,5.3565,-3.5478
2575,1.0346,-9.6184,-1.5328,-31.0957,5.3565,-3.6174
2580,0.958,-9.6567,-1.5328,-31.6522,4.9391,-3.8261
2585,0.9197,-9.695,-1.4179,-31.513,4.5913,-3.687
2590,0.958,-9.7334,-1.5711,-30.9565,4.1739,-3.5478
2595,0.7664,-9.6567,-1.3795,-29.9826,3.5478,-3.0609
2600,0.843,-9.7334,-1.4179,-28.8696,2.8522,-2.8522
2605,0.843,-9.695,-1.3029,-27.7565,2.2957,-2.4348
2610,0.8047,-9.7334,-1.3412,-26.5739,1.8087,-2.1565
2615,0.6514,-9.7717,-1.4945,-25.4609,1.4609,-1.7391
2620,0.843,-9.695,-1.3795,-24.487,1.113,-1.6
2625,0.8047,-9.7334,-1.3029,-23.7217,0.9739,-1.3913
2630,0.7664,-9.5801,-1.5328,-23.3739,0.8348,-1.5304
2635,0.8814,-9.695,-1.2263,-22.9565,0.6957,-1.3913
2640,0.7664,-9.7334,-1.4562,-22.4696,0.5565,-1.6
2645,0.8047,-9.5801,-1.4179,-21.6348,0.2783,-1.4609
2650,0.8814,-9.6567,-1.3795,-20.8,0.1391,-1.6
2655,0.843,-9.6184,-1.3795,-19.9652,-0.0696,-1.6
2660,0.7664,-9.7334,-1.4562,-19.2696,-0.4174,-1.8783
2665,0.7664,-9.6184,-1.3029,-18.5043,-0.8348,-1.8087
2670,0.7664,-9.695,-1.4179,-17.8783,-1.3217,-1.9478
2675,0.8814,-9.6567,-1.5711,-17.1826,-1.8783,-1.9478
2680,0.8814,-9.81,-1.4562,-16.6957,-2.4348,-2.2261
2685,0.843,-9.7334,-1.6095,-16.2783,-2.9913,-2.2957
2690,0.8814,-9.695,-1.4945,-16.0696,-3.4783,-2.713
2695,0.843,-9.6567,-1.4562,-15.6522,-3.8261,-2.8522
2700,0.8047,-9.8483,-1.6095,-15.4435,-3.8957,-3.3391
2705,0.843,-9.695,-1.4562,-15.1652,-3.7565,-3.5478
2710,0.8814,-9.7717,-1.4179,-14.9565,-3.4783,-3.9652
2715,0.8814,-9.6567,-1.4562,-15.0261,-3.1304,-4.0348
2720,0.843,-9.7334,-1.4179,-15.0261,-2.6435,-4.5217
2725,0.9197,-9.81,-1.6095,-15.0261,-2.2261,-4.4522
2730,0.8814,-9.7717,-1.5328,-15.2348,-1.6696,-4.6609
2735,0.8047,-9.695,-1.4562,-15.3043,-1.113,-4.4522
2740,0.9963,-9.8483,-1.7244,-15.4435,-0.3478,-4.5913
2745,0.9197,-9.81,-1.6861,-15.9304,0.2087,-4.2435
2750,0.958,-9.8866,-1.6478,-16.6261,0.6261,-4.4522
2755,0.9963,-9.8483,-1.6478,-17.3217,0.8348,-4.3826
2760,1.0346,-9.7717,-1.7627,-18.0174,0.9043,-4.4522
2765,0.9963,-9.7334,-1.8777,-18.3652,0.7652,-4.3826
2770,0.843,-9.6567,-2.0693,-18.5739,0.6261,-4.7304
2775,0.9963,-9.8483,-2.0693,-18.713,0.6261,-4.6609
2780,0.8814,-9.7717,-2.2992,-18.713,0.7652,-4.8696
2785,0.958,-9.695,-2.2609,-18.4348,1.1826,-4.5913
2790,0.8047,-9.7334,-2.3375,-18.1565,1.6696,-4.6609
2795,0.9197,-9.7334,-2.2226,-17.7391,2.2261,-4.2435
2800,0.958,-9.7334,-2.1843,-17.1826,2.7826,-4.1739
2805,0.9197,-9.7717,-2.2609,-16.7652,3.3391,-3.8261
2810,0.843,-9.695,-2.3375,-16.487,4.3826,-3.687
2815,0.7281,-9.7717,-2.4142,-16.5565,4.8696,-3.4783
2820,0.7281,-9.7717,-2.1843,-16.8348,5.4261,-3.687
2825,0.7664,-9.925,-2.2992,-17.4609,5.8435,-3.4783
2830,0.8814,-9.8483,-2.1843,-18.3652,6.2609,-3.687
2835,0.8047,-9.7334,-2.2609,-19.4783,6.7478,-3.4087
2840,0.7664,-9.7334,-2.2226,-20.8,7.0957,-3.687
2845,0.843,-9.5801,-2.1843,-22.4,7.6522,-3.5478
2850,0.8814,-9.5801,-2.2992,-24.6261,8.1391,-3.7565
2855,0.9197,-9.5418,-2.4142,-27.7565,8.5565,-3.6174
2860,0.9963,-9.81,-2.4908,-31.8609,9.0435,-3.8261
2865,0.9963,-9.695,-2.3759,-37.4957,9.2522,-3.7565
2870,1.1113,-9.7334,-2.1843,-42.5739,9.3913,-3.9652
2875,1.1113,-9.5801,-2.2609,-47.6522,9.3217,-3.9652
2880,1.073,-9.5034,-2.3759,-52.8,9.1826,-4.2435
2885,1.1496,-9.4268,-2.2992,-57.3913,8.5565,-4.3826
2890,1.1113,-9.3502,-2.4908,-61.8435,7.513,-4.4522
2895,1.0346,-9.3502,-2.6441,-65.8783,6.3304,-3.7565
2900,1.1496,-9.1586,-2.6058,-69.4957,5.4957,-3.0609
2905,1.2646,-9.0819,-2.7591,-72.6261,4.8,-1.8087
2910,1.1113,-8.9286,-2.5675,-75.2,3.8261,-0.9739
2915,0.9963,-8.967,-2.989,-77.7043,2.3652,0.2783
2920,0.958,-8.9286,-2.7974,-80.4174,-0.2783,1.113
2925,1.0346,-8.852,-2.6441,-82.0174,-2.5043,1.9478
2930,0.7281,-8.9286,-2.874,-83.4087,-4.2435,1.9478
2935,0.6898,-9.1586,-2.7207,-84.5217,-5.8435,3.1304
2940,0.843,-9.1969,-2.874,-85.3565,-7.2348,3.7565
2945,0.8047,-9.0436,-2.989,-85.7739,-7.9304,3.7565
2950,0.8047,-9.1969,-2.989,-86.0522,-8.0696,2.713
2955,0.8814,-9.1586,-3.1039,-86.4696,-7.9304,1.8783
2960,0.9197,-9.0819,-3.0273,-87.7913,-7.3739,0.5565
2965,0.9197,-8.967,-3.2189,-89.6696,-6.9565,-0.6957
2970,0.958,-8.967,-3.2955,-91.8261,-5.913,-2.7826
2975,0.843,-8.8903,-3.0656,-94.4696,-5.0087,-3.9652
2980,0.8814,-8.6221,-3.2189,-96.487,-4.313,-5.4261
2985,0.9197,-8.6987,-3.3722,-98.6435,-3.5478,-6.1913
2990,0.843,-8.6987,-3.3339,-101.3565,-2.3652,-7.0957
2995,0.958,-8.737,-3.4488,-103.8609,-1.3217,-7.0261
