timestamp,accX,accY,accZ,gyroX,gyroY,gyroZ
0,-1.3795,-8.1239,-5.9013,-0.8348,-1.9478,-2.5739
5,-1.3795,-8.0473,-5.6714,-0.6261,-2.2261,-2.7826
10,-1.3029,-7.9323,-5.7864,-0.3478,-2.2957,-2.9913
15,-1.3029,-8.0089,-5.863,-0.1391,-2.2261,-3.1304
20,-1.3412,-7.9706,-5.978,-0.0696,-2.1565,-3.2696
25,-1.1496,-8.0089,-5.9013,-0.4174,-2.0174,-3.2696
30,-1.1879,-8.0089,-5.9013,-0.7652,-2.0174,-3.2
35,-1.0346,-8.1239,-5.863,-1.1826,-1.8087,-2.9217
40,-1.1496,-8.0473,-6.0163,-1.5304,-1.3217,-2.5043
45,-1.0346,-8.1239,-6.0163,-2.0174,-0.6261,-2.3652
50,-0.9963,-8.2005,-6.0163,-2.5043,0.2087,-2.1565
55,-1.073,-8.2772,-5.9396,-2.9217,1.1826,-2.087
60,-1.2263,-8.1622,-5.978,-3.4783,1.8783,-1.9478
65,-1.3029,-7.9706,-5.748,-4.1043,2.1565,-1.9478
70,-1.2263,-7.9323,-5.863,-4.8696,2.2261,-2.0174
75,-1.2646,-7.8173,-5.7097,-5.5652,2.2261,-2.0174
80,-0.6514,-7.2809,-5.6331,-6.1217,2.0174,-1.9478
85,-1.3029,-7.894,-5.7097,-6.8174,1.6696,-2.0174
90,-1.2263,-8.0089,-5.748,-7.4435,1.5304,-2.087
95,-1.3029,-8.0089,-5.748,-8.1391,0.8348,-2.2261
100,-1.4562,-7.8173,-5.863,-8.8348,0.4174,-2.5043
105,-1.4562,-7.8557,-5.9396,-9.6696,-0.4174,-2.5043
110,-1.4562,-7.8173,-5.7864,-10.1565,-0.6261,-2.2957
115,-1.4179,-7.7024,-5.7097,-10.4348,-0.6261,-1.9478
120,-1.4945,-7.6257,-5.748,-10.2957,-0.3478,-1.7391
125,-1.4562,-7.6641,-5.7097,-10.087,0.1391,-1.6696
130,-1.3795,-7.7407,-5.748,-9.4609,0.7652,-1.6696
135,-1.3029,-7.7407,-5.6714,-8.6261,1.5304,-1.5304
140,-1.1879,-7.8557,-5.7097,-7.6522,2.2261,-1.6696
145,-1.1879,-8.0089,-5.7864,-6.4696,2.9217,-1.8087
150,-1.073,-8.0473,-5.9396,-5.0783,3.5478,-2.0174
155,-1.2263,-7.894,-5.9396,-3.5478,4.313,-2.2957
160,-1.2263,-7.9706,-5.9396,-2.1565,4.9391,-2.7826
165,-1.1496,-7.8173,-5.978,-0.8348,5.7043,-3.1304
170,-1.2646,-7.8173,-5.863,0.2087,6.4696,-3.6174
175,-1.1113,-7.6257,-5.748,0.9043,6.9565,-3.7565
180,-1.1496,-7.5108,-5.7864,1.5304,7.4435,-3.8261
185,-1.1496,-7.3192,-5.7097,2.1565,7.8609,-3.8957
190,-1.3412,-7.4725,-5.4415,2.6435,8.2087,-4.0348
195,-1.3029,-7.2425,-5.6714,3.1304,8.4174,-4.1739
200,-1.2646,-7.4725,-5.6331,3.6174,8.6261,-4.2435
205,-1.2263,-7.5874,-5.6714,3.9652,8.6261,-4.4522
210,-1.3412,-7.7024,-5.6714,4.4522,8.8348,-4.5217
215,-1.2263,-7.6257,-5.7097,5.0783,8.9043,-4.5913
220,-1.3029,-7.7407,-5.748,5.7739,8.8348,-4.7304
225,-1.2646,-7.779,-5.7864,6.7478,8.7652,-4.8696
230,-1.1113,-7.8557,-5.7864,7.5826,8.7652,-5.0783
235,-1.2646,-7.894,-5.6331,8.5565,8.7652,-5.2174
240,-1.2263,-7.8557,-5.8247,9.4609,8.9043,-5.6348
245,-1.1496,-7.9706,-5.7864,10.4348,9.0435,-6.1217
250,-1.1496,-7.894,-5.5948,11.2696,9.2522,-6.5391
255,-1.1496,-7.894,-5.7097,12.1739,9.1826,-6.887
260,-1.1879,-7.8173,-5.748,12.6609,8.9043,-6.887
265,-1.2263,-7.779,-5.748,12.8696,8.7652,-6.9565
270,-1.2263,-7.894,-5.748,13.0783,8.6957,-7.1652
275,-1.1879,-8.0856,-5.9396,13.2174,8.9043,-7.4435
280,-1.1879,-7.9323,-5.863,13.2174,9.1826,-7.7913
285,-1.1496,-7.8557,-5.9013,13.0783,9.6,-8.0
290,-1.2263,-7.8557,-6.0163,12.9391,9.8783,-8.2783
295,-1.2646,-7.779,-5.9396,13.0087,10.087,-8.3478
300,-1.073,-7.7024,-5.9396,12.8,10.087,-8.4174
305,-1.1496,-7.894,-5.863,13.0087,10.1565,-8.3478
310,-1.2646,-7.9706,-5.978,13.3565,10.087,-8.2783
315,-1.2646,-8.0473,-5.9396,14.1913,10.087,-8.0
320,-1.3412,-8.0473,-5.8247,15.2348,10.0174,-7.8609
325,-1.3029,-8.0856,-6.0163,16.0,10.1565,-7.9304
330,-1.3412,-8.1622,-5.9396,16.5565,10.087,-8.2783
335,-1.2646,-8.1239,-5.748,17.113,10.2957,-8.4174
340,-1.1879,-8.1239,-5.8247,17.6,10.2957,-8.6261
345,-1.2263,-8.1622,-5.7864,18.087,10.087,-8.6261
350,-1.1879,-8.2005,-5.9396,18.1565,9.8783,-8.7652
355,-1.1879,-8.2005,-5.7864,18.2261,9.6,-8.7652
360,-1.1113,-8.3538,-5.8247,18.3652,9.3217,-8.6957
365,-1.1113,-8.3155,-5.748,18.3652,9.113,-8.6957
370,-0.9963,-8.2772,-5.7864,18.2957,8.9739,-8.6261
375,-1.2263,-8.0473,-5.8247,18.2957,8.8348,-8.5565
380,-1.073,-8.2005,-5.863,18.2261,8.8348,-8.5565
385,-0.8814,-8.0856,-5.5948,18.0174,8.9043,-8.487
390,-0.958,-8.0856,-5.5564,17.8783,9.0435,-8.4174
395,-0.9197,-8.0473,-5.4798,17.7391,8.9739,-8.2087
400,-0.8814,-8.1622,-5.3648,17.6,9.113,-8.0696
405,-0.9197,-8.1239,-5.4032,17.3913,9.2522,-7.9304
410,-1.1879,-8.0856,-5.4798,17.3217,9.6,-7.7217
415,-0.8814,-8.1239,-5.3648,17.5304,9.9478,-7.6522
420,-0.8814,-8.2389,-5.4032,18.0174,10.5043,-7.6522
425,-0.843,-8.2772,-5.3648,18.3652,10.9913,-7.8609
430,-0.9197,-8.0856,-5.2499,18.3652,11.2696,-8.1391
435,-0.958,-8.2389,-5.2882,18.2957,11.3391,-8.2783
440,-1.0346,-8.2005,-5.3648,18.2957,11.0609,-8.3478
445,-0.9963,-8.2389,-5.2882,18.1565,10.6435,-8.3478
450,-0.9963,-8.0856,-5.2116,17.8087,9.9478,-8.1391
455,-0.9963,-8.0856,-5.2882,17.3913,9.3217,-8.0
460,-0.8814,-8.0856,-5.3265,16.9043,8.4174,-7.6522
465,-0.8814,-8.1239,-5.3265,16.487,7.6522,-7.3043
470,-0.9197,-8.1239,-5.2499,15.9304,6.887,-6.9565
475,-0.8047,-8.1239,-5.2499,15.4435,6.2609,-6.5391
480,-0.8047,-8.3155,-5.3265,15.0957,5.913,-6.2609
485,-0.7281,-8.3155,-5.3265,15.1652,5.7739,-5.9826
490,-0.7664,-8.3538,-5.5181,15.3043,5.8435,-5.7739
495,-0.7664,-8.2772,-5.5948,15.3043,6.1217,-5.6348
500,-0.6898,-8.3155,-5.4798,15.4435,6.5391,-5.4957
505,-0.7281,-8.3155,-5.4798,15.513,6.9565,-5.5652
510,-0.6514,-8.3921,-5.4032,15.5826,7.513,-5.6348
515,-0.5748,-8.1239,-5.0966,15.7913,8.0,-5.8435
520,-0.6898,-8.2772,-5.3648,16.2087,8.3478,-5.9826
525,-0.6898,-8.2772,-5.3265,16.4174,8.6261,-6.0522
530,-0.7664,-8.1622,-5.2882,16.5565,8.6957,-6.0522
535,-0.7281,-8.2389,-5.2499,16.4174,8.487,-5.913
540,-0.8814,-8.0473,-5.2116,16.2087,8.1391,-5.913
545,-0.8047,-8.1239,-5.0966,16.1391,7.6522,-5.7043
550,-0.7664,-8.2772,-5.1349,15.8609,7.1652,-5.6348
555,-0.8814,-8.3538,-5.0966,15.7913,6.5391,-5.5652
560,-0.8047,-8.3921,-5.2116,15.6522,5.8435,-5.5652
565,-0.843,-8.3921,-5.3648,15.3739,5.0783,-5.5652
570,-0.7281,-8.4305,-5.4032,15.1652,4.3826,-5.5652
575,-0.7664,-8.4305,-5.3648,14.9565,3.8261,-5.7043
580,-0.5748,-8.4305,-5.4798,14.887,3.4783,-5.8435
585,-0.7281,-8.3155,-5.4032,14.887,3.3391,-5.7043
590,-0.5365,-8.4688,-5.5181,14.8174,3.1304,-5.7043
595,-0.5748,-8.5071,-5.4032,15.0261,3.2696,-5.4957
600,-0.4982,-8.3921,-5.4798,15.1652,3.3391,-5.287
605,-0.3449,-8.3155,-5.4415,15.3739,3.8261,-5.0783
610,-0.5365,-8.3538,-5.4032,15.513,4.313,-4.8696
615,-0.3832,-8.3921,-5.4798,15.5826,4.9391,-4.5913
620,-0.4215,-8.2772,-5.3648,15.9304,5.6348,-4.4522
625,-0.3832,-8.0473,-5.4798,16.1391,6.1913,-4.1043
630,-0.4982,-8.2772,-5.5564,16.2783,6.8174,-3.8261
635,-0.4982,-8.2005,-5.2499,16.2783,7.2348,-3.687
640,-0.6131,-8.2005,-5.2882,16.4174,7.6522,-3.4087
645,-0.6898,-8.2772,-5.2116,16.5565,8.1391,-3.2
650,-0.6514,-8.2005,-5.2499,16.6261,8.4174,-2.9217
655,-0.6131,-8.2389,-5.3265,16.5565,8.7652,-2.713
660,-0.6898,-8.0856,-5.0966,16.3478,9.0435,-2.713
665,-0.7281,-8.0473,-5.1732,16.1391,9.1826,-2.7826
670,-0.6514,-8.0856,-5.2499,15.8609,9.4609,-2.8522
675,-0.7281,-8.1622,-5.2116,15.4435,9.3913,-2.8522
680,-0.843,-8.1622,-5.1349,15.1652,9.5304,-2.8522
685,-0.6514,-8.1239,-4.9816,14.9565,9.7391,-2.6435
690,-0.843,-8.3155,-4.9816,14.8174,9.9478,-2.3652
695,-0.7664,-8.3538,-4.8667,14.5391,10.1565,-2.0174
700,-0.843,-8.5838,-4.5218,14.4,10.1565,-1.4609
705,-0.6898,-8.6221,-4.5218,14.3304,10.087,-0.8348
710,-0.7664,-8.8137,-4.6368,14.2609,9.8783,-0.1391
715,-0.7281,-8.852,-4.4835,13.913,9.3217,0.6261
720,-0.8814,-8.8137,-4.5601,13.8435,8.3478,1.1826
725,-0.7281,-8.9286,-4.7134,13.3565,7.2348,1.6
730,-0.7281,-9.0053,-4.5601,13.0087,6.4696,1.8783
735,-0.8047,-9.0053,-4.6368,12.8696,5.7739,1.6696
740,-0.6131,-8.8903,-4.7517,12.8696,5.5652,1.4609
745,-0.6514,-9.0436,-4.5984,13.0087,5.7043,1.113
750,-0.4982,-9.0053,-4.6751,13.4957,6.4,0.4174
755,-0.4215,-8.852,-4.6751,13.9826,7.4435,-0.1391
760,-0.4215,-8.737,-4.7134,14.6087,8.487,-0.6957
765,-0.4598,-8.737,-4.7134,15.1652,9.6696,-0.9739
770,-0.4215,-8.5838,-4.5984,15.7217,10.5043,-1.1826
775,-0.3832,-8.5071,-4.5984,16.1391,11.3391,-1.2522
780,-0.4215,-8.5838,-4.6751,16.2783,11.7565,-1.3913
785,-0.5365,-8.5071,-4.5601,16.2783,11.8261,-1.4609
790,-0.5748,-8.3538,-4.5218,16.0,11.687,-1.3913
795,-0.6514,-8.3921,-4.5218,15.6522,11.2696,-1.2522
800,-0.6514,-8.3538,-4.5601,15.0261,10.9217,-1.0435
805,-0.6514,-8.3921,-4.5218,14.1913,10.4348,-0.9739
810,-0.8814,-8.4305,-4.4835,13.3565,9.7391,-0.8348
815,-0.7664,-8.4305,-4.5601,12.5217,9.2522,-0.8348
820,-0.7281,-8.5454,-4.4835,11.7565,8.7652,-0.8348
825,-0.6514,-8.4688,-4.3685,10.8522,8.0696,-0.7652
830,-0.6898,-8.6987,-4.4068,9.8783,7.513,-0.5565
835,-0.8047,-8.6221,-4.4068,8.8348,6.887,-0.3478
840,-0.6131,-8.737,-4.4452,7.9304,6.4,-0.0696
845,-0.6514,-8.6604,-4.3302,7.1652,6.0522,0.0
850,-0.6131,-8.8137,-4.4068,6.4696,5.6348,0.1391
855,-0.6898,-8.967,-4.4068,5.7043,5.2174,0.2783
860,-0.6514,-9.0053,-4.4068,4.8696,5.0087,0.1391
865,-0.5748,-9.0819,-4.3685,4.313,4.8696,0.1391
870,-0.6131,-8.967,-4.4452,3.8261,5.0087,0.0
875,-0.6514,-9.0053,-4.2536,3.3391,5.0087,0.0
880,-0.5365,-9.0819,-4.3302,3.2696,5.0783,0.0696
885,-0.4982,-9.0819,-4.5218,3.2696,5.287,0.0
890,-0.6131,-9.0819,-4.4835,3.3391,5.4957,-0.0696
895,-0.5365,-9.1202,-4.5984,3.6174,5.6348,0.0
900,-0.6131,-9.0436,-4.4068,3.8261,5.5652,0.2087
905,-0.5365,-9.0436,-4.3302,3.9652,5.4957,0.4174
910,-0.5365,-9.0053,-4.3302,4.0348,5.4261,0.6957
915,-0.5748,-8.967,-4.6368,4.0348,5.287,0.7652
920,-0.7281,-8.7754,-4.3685,4.1043,5.2174,0.7652
925,-0.5748,-8.8137,-4.5218,4.0348,4.8696,0.8348
930,-0.6898,-8.7754,-4.4452,3.687,4.9391,0.8348
935,-0.6131,-8.852,-4.4068,3.1304,4.8696,0.9043
940,-0.6131,-8.8903,-4.4835,2.5739,4.8,0.6957
945,-0.6131,-8.8137,-4.3302,2.0174,4.7304,0.487
950,-0.3832,-8.5838,-4.1003,1.4609,4.6609,0.2087
955,-0.6514,-8.6604,-4.4835,1.0435,4.5217,-0.0696
960,-0.6514,-8.6987,-4.4068,0.6261,4.2435,-0.0696
965,-0.5365,-8.8137,-4.4068,0.2783,3.8957,-0.2783
970,-0.6131,-8.6987,-4.4452,-0.1391,3.5478,-0.2087
975,-0.4982,-8.7754,-4.4835,-0.3478,3.3391,-0.1391
980,-0.6131,-8.737,-4.5218,-0.4174,3.2,-0.1391
985,-0.4982,-8.8137,-4.4835,-0.5565,3.0609,0.0
990,-0.6131,-8.6987,-4.5601,-0.487,2.9913,-0.0696
995,-0.6898,-8.6604,-4.5601,-0.6261,2.713,0.0
1000,-0.3832,-8.8903,-4.4835,-0.8348,2.5043,0.0
1005,-0.7664,-8.737,-4.6368,-0.9739,2.4348,0.0
1010,-0.4982,-8.8137,-4.5984,-0.6957,2.2957,-0.2087
1015,-0.6514,-8.852,-4.6751,-0.1391,2.2957,-0.2783
1020,-0.6131,-8.8903,-4.5601,0.3478,2.3652,-0.3478
1025,-0.5748,-8.8137,-4.5601,0.9043,2.4348,-0.487
1030,-0.5365,-8.8903,-4.6368,1.3217,2.7826,-0.6261
1035,-0.5365,-8.8903,-4.5984,1.5304,2.9913,-0.6957
1040,-0.5748,-8.852,-4.6368,1.6696,3.4087,-0.7652
1045,-0.5748,-8.8137,-4.5984,1.6696,3.687,-0.9043
1050,-0.5365,-8.9286,-4.6368,1.6,3.8957,-0.9043
1055,-0.5748,-8.7754,-4.5218,1.3217,4.1739,-0.9043
1060,-0.4982,-8.852,-4.6368,1.113,4.2435,-0.9043
1065,-0.6131,-8.737,-4.5984,0.8348,4.5217,-0.6957
1070,-0.6514,-8.6987,-4.5984,0.487,4.7304,-0.5565
1075,-0.7664,-8.6987,-4.5601,0.3478,4.8,-0.4174
1080,-0.7281,-8.7754,-4.5601,0.2087,4.8,-0.2783
1085,-0.6898,-8.9286,-4.6368,0.1391,4.8696,0.0
1090,-0.7664,-8.737,-4.4452,0.0696,4.8696,0.0
1095,-0.7281,-8.852,-4.4068,0.0,4.9391,0.0696
1100,-0.6898,-8.8903,-4.5218,-0.0696,4.9391,0.1391
1105,-0.843,-8.8137,-4.4068,-0.4174,4.9391,0.0696
1110,-0.7281,-8.967,-4.4452,-0.5565,5.0087,0.2087
1115,-0.6898,-8.8903,-4.4452,-0.5565,4.9391,0.1391
1120,-0.7281,-8.7754,-4.4835,-0.487,5.0087,0.1391
1125,-0.8047,-8.7754,-4.3685,-0.5565,5.0087,0.0696
1130,-0.6898,-8.852,-4.4068,-0.7652,5.0087,0.0
1135,-0.5748,-8.9286,-4.4835,-0.8348,5.0783,-0.0696
1140,-0.6131,-8.8137,-4.5218,-0.9739,4.9391,-0.2087
1145,-0.6514,-8.852,-4.3302,-0.9739,4.8696,-0.0696
1150,-0.5748,-8.9286,-4.4452,-0.9739,4.8,-0.2087
1155,-0.6131,-8.967,-4.3685,-0.8348,4.8,-0.1391
1160,-0.6131,-8.9286,-4.4835,-0.6261,4.8,-0.1391
1165,-0.6131,-8.967,-4.4068,-0.2783,4.6609,-0.1391
1170,-0.6131,-8.8137,-4.2152,-0.2087,4.6609,0.0
1175,-0.6514,-8.9286,-4.5218,0.0,4.8,0.0696
1180,-0.6514,-8.9286,-4.5218,0.0696,4.8696,0.0
1185,-0.6131,-8.8903,-4.4068,0.2783,4.9391,0.0
1190,-0.6131,-8.852,-4.3302,0.2783,5.0783,0.0
1195,-0.6514,-8.6987,-4.5218,0.2087,5.1478,-0.0696
1200,-0.8047,-8.8137,-4.3685,0.2087,5.2174,0.0
1205,-0.6514,-8.9286,-4.5984,0.4174,5.2174,0.0
1210,-0.6898,-8.8137,-4.4452,0.5565,5.1478,-0.1391
1215,-0.7281,-8.852,-4.5218,0.9739,5.1478,-0.0696
1220,-0.6131,-8.9286,-4.5218,1.2522,5.1478,-0.2783
1225,-0.6131,-8.8903,-4.6368,1.4609,5.0783,-0.3478
1230,-0.6514,-8.852,-4.4835,1.6696,5.0087,-0.3478
1235,-0.6898,-8.6987,-4.4835,1.8783,4.8,-0.2783
1240,-0.7281,-8.737,-4.5601,1.8087,4.5913,-0.2783
1245,-0.6131,-8.7754,-4.4452,1.7391,4.4522,-0.2783
1250,-0.6131,-8.8137,-4.4835,1.4609,4.3826,-0.1391
1255,-0.6131,-8.9286,-4.4835,1.3217,4.3826,-0.1391
1260,-0.5365,-8.8137,-4.2536,1.113,4.313,-0.1391
1265,-0.5365,-8.8137,-4.4452,0.9739,4.2435,-0.1391
1270,-0.6131,-8.852,-4.4452,0.7652,4.1739,-0.1391
1275,-0.4598,-8.852,-4.3302,0.6957,4.2435,-0.1391
1280,-0.3832,-8.8903,-4.3685,0.5565,4.1739,-0.0696
1285,-0.5365,-8.9286,-4.5218,0.4174,4.1739,-0.1391
1290,-0.6514,-8.8137,-4.5218,0.3478,4.1043,-0.0696
1295,-0.5365,-8.967,-4.4068,0.3478,4.1043,-0.1391
1300,-0.6514,-8.8137,-4.3685,0.3478,4.1043,-0.0696
1305,-0.6898,-8.852,-4.3685,0.2783,4.1739,-0.0696
1310,-0.6514,-8.8903,-4.3685,0.2783,4.1739,-0.1391
1315,-0.7281,-8.967,-4.2919,0.2087,4.1043,-0.3478
1320,-0.5748,-8.8903,-4.5984,0.2087,4.0348,-0.487
1325,-0.7281,-8.8137,-4.4835,0.2087,4.0348,-0.5565
1330,-0.5748,-8.8903,-4.4835,0.2783,4.0348,-0.6957
1335,-0.6898,-8.8903,-4.4068,0.1391,4.0348,-0.6957
1340,-0.5748,-8.8903,-4.4068,0.1391,4.0348,-0.7652
1345,-0.7281,-8.8137,-4.5984,0.1391,3.9652,-0.7652
1350,-0.6514,-8.8137,-4.4452,0.2087,4.1043,-0.7652
1355,-0.6514,-8.9286,-4.5601,0.1391,4.1739,-0.7652
1360,-0.6131,-8.8903,-4.4452,0.1391,4.1739,-0.6261
1365,-0.5748,-8.7754,-4.4068,0.2087,4.1043,-0.487
1370,-0.6131,-8.7754,-4.5601,0.2783,4.1043,-0.3478
1375,-0.6898,-8.6604,-4.5601,0.4174,4.0348,-0.2783
1380,-0.6131,-8.8137,-4.4452,0.487,3.9652,-0.1391
1385,-0.6898,-8.7754,-4.3685,0.487,3.8261,0.0
1390,-0.4215,-8.852,-4.4452,0.487,3.8261,0.1391
1395,-0.5748,-8.737,-4.4068,0.4174,3.7565,0.2783
1400,-0.6514,-8.8137,-4.5218,0.3478,3.687,0.3478
1405,-0.4982,-8.6987,-4.4068,0.4174,3.687,0.3478
1410,-0.5365,-8.7754,-4.5218,0.2783,3.5478,0.2783
1415,-0.5365,-8.7754,-4.5601,0.1391,3.5478,0.2783
1420,-0.6514,-8.8903,-4.4068,0.0696,3.687,0.2783
1425,-0.6131,-8.8137,-4.5218,-0.0696,3.6174,0.3478
1430,-0.5748,-8.9286,-4.4452,-0.2087,3.5478,0.2087
1435,-0.5365,-8.8903,-4.3302,-0.3478,3.687,0.2087
1440,-0.6898,-8.9286,-4.3685,-0.3478,3.8261,0.0696
1445,-0.6131,-8.8137,-4.3302,-0.487,3.8957,0.0
1450,-0.6514,-8.7754,-4.4068,-0.5565,3.8957,0.0696
1455,-0.6514,-8.852,-4.3302,-0.5565,3.8957,0.0696
1460,-0.5365,-8.8903,-4.3302,-0.6957,3.7565,0.0696
1465,-0.7281,-8.8903,-4.4452,-0.6957,3.7565,0.0696
1470,-0.6898,-8.8903,-4.4068,-0.6261,3.687,0.0
1475,-0.7664,-8.8137,-4.4068,-0.5565,3.6174,0.0696
1480,-0.7664,-8.852,-4.4068,-0.5565,3.687,-0.1391
1485,-0.7281,-8.9286,-4.2919,-0.487,3.6174,-0.1391
1490,-0.6514,-8.8903,-4.4835,-0.487,3.6174,-0.1391
1495,-0.4215,-9.0436,-4.1003,-0.5565,3.687,-0.2087
1500,-0.7664,-8.8903,-4.4068,-0.487,3.7565,-0.0696
1505,-0.6898,-8.8137,-4.4835,-0.4174,3.8261,-0.0696
1510,-0.5365,-8.967,-4.4452,-0.3478,3.8261,0.0696
1515,-0.6514,-8.9286,-4.5601,-0.3478,3.8261,0.2087
1520,-0.5365,-8.8903,-4.4452,-0.3478,3.8957,0.1391
1525,-0.5365,-8.8903,-4.5601,-0.2783,3.8957,0.2087
1530,-0.6514,-8.8137,-4.3302,-0.2783,3.7565,0.2783
1535,-0.7281,-8.7754,-4.3302,-0.2783,3.8261,0.4174
1540,-0.4598,-8.7754,-4.5984,-0.4174,3.7565,0.4174
1545,-0.4598,-8.7754,-4.5601,-0.5565,3.687,0.5565
1550,-0.5365,-8.852,-4.4835,-0.5565,3.6174,0.487
1555,-0.5748,-8.6987,-4.4835,-0.5565,3.8261,0.4174
1560,-0.6131,-8.9286,-4.3302,-0.6261,3.7565,0.3478
1565,-0.4982,-8.9286,-4.4452,-0.5565,3.8957,0.2087
1570,-0.6131,-8.8137,-4.5218,-0.6261,4.0348,0.1391
1575,-0.6131,-8.8137,-4.2536,-0.5565,4.1043,0.0696
1580,-0.6131,-8.852,-4.4068,-0.5565,4.1043,0.0696
1585,-0.6898,-8.9286,-4.4835,-0.5565,4.1739,-0.1391
1590,-0.5748,-8.7754,-4.3302,-0.5565,4.313,-0.0696
1595,-0.6131,-8.8903,-4.4452,-0.4174,4.2435,-0.0696
1600,-0.6898,-8.9286,-4.3685,-0.487,4.3826,-0.2087
1605,-0.6898,-8.8903,-4.3302,-0.6261,4.313,-0.2087
1610,-0.6898,-8.8903,-4.3685,-0.5565,4.4522,-0.3478
1615,-0.7281,-8.737,-4.4452,-0.487,4.4522,-0.2783
1620,-0.5748,-8.8903,-4.3685,-0.4174,4.5217,-0.2087
1625,-0.6898,-8.8903,-4.4452,-0.487,4.5217,-0.1391
1630,-0.6898,-8.967,-4.4835,-0.487,4.6609,-0.2783
1635,-0.6898,-8.8137,-4.2919,-0.5565,4.8,-0.2783
1640,-0.7281,-8.852,-4.5984,-0.5565,4.8696,-0.2783
1645,-0.7664,-8.852,-4.3685,-0.6261,4.9391,-0.3478
1650,-0.843,-8.737,-4.3302,-0.6957,4.8696,-0.2783
1655,-0.6131,-8.9286,-4.4835,-0.6957,4.8696,-0.3478
1660,-0.7281,-8.9286,-4.4068,-0.6957,4.8,-0.487
1665,-0.6898,-8.852,-4.4068,-0.8348,4.8,-0.4174
1670,-0.7664,-8.852,-4.3302,-0.9043,4.7304,-0.4174
1675,-0.6898,-8.9286,-4.4068,-0.9043,4.7304,-0.487
1680,-0.6514,-8.967,-4.4835,-0.7652,4.7304,-0.4174
1685,-0.6898,-8.967,-4.4068,-0.8348,4.8,-0.487
1690,-0.6898,-8.7754,-4.3302,-0.8348,4.8,-0.487
1695,-0.6514,-8.7754,-4.4068,-0.9043,4.8,-0.487
1700,-0.6131,-9.0053,-4.2919,-0.9739,4.7304,-0.5565
1705,-0.6898,-8.8903,-4.4452,-1.0435,4.7304,-0.6261
1710,-0.6898,-8.737,-4.3302,-1.0435,4.8,-0.6261
1715,-0.9197,-8.852,-4.5601,-0.9043,4.8,-0.6957
1720,-0.6898,-8.852,-4.2536,-0.9043,4.8696,-0.8348
1725,-0.6131,-8.967,-4.5601,-0.9739,4.8696,-0.9043
1730,-0.6514,-8.8903,-4.5601,-0.9739,5.0087,-0.9739
1735,-0.6898,-8.7754,-4.3685,-1.0435,5.0087,-0.9739
1740,-0.6514,-8.852,-4.4835,-1.0435,5.0087,-0.9043
1745,-0.7664,-8.8903,-4.3685,-1.113,5.0783,-0.9043
1750,-0.6898,-8.852,-4.2152,-1.1826,4.9391,-0.8348
1755,-0.6514,-8.852,-4.3685,-1.3913,4.9391,-0.8348
1760,-0.6131,-9.0053,-4.4068,-1.3913,4.9391,-0.6957
1765,-0.6131,-8.9286,-4.5601,-1.6,5.0087,-0.7652
1770,-0.5365,-8.8903,-4.2536,-1.6696,5.0087,-0.6957
1775,-0.7281,-8.8903,-4.3685,-1.6696,4.9391,-0.6957
1780,-0.6514,-8.8903,-4.4452,-1.6696,4.9391,-0.6957
1785,-0.6898,-8.852,-4.3685,-1.6696,4.8,-0.6957
1790,-0.6131,-8.967,-4.3685,-1.6696,4.8696,-0.7652
1795,-0.7281,-8.8903,-4.3302,-1.5304,4.6609,-0.6957
1800,-0.5748,-8.9286,-4.4835,-1.5304,4.5913,-0.6957
1805,-0.6131,-8.737,-4.2919,-1.3913,4.4522,-0.6957
1810,-0.5365,-8.852,-4.3685,-1.3913,4.4522,-0.6957
1815,-0.6898,-8.852,-4.4068,-1.2522,4.4522,-0.6957
1820,-0.4982,-8.852,-4.4068,-1.1826,4.3826,-0.7652
1825,-0.2682,-9.0053,-4.4452,-1.113,4.4522,-0.8348
1830,-0.4598,-9.0053,-4.4452,-1.113,4.3826,-0.8348
1835,-0.6131,-8.967,-4.4452,-1.113,4.5913,-0.8348
1840,-0.6514,-8.8903,-4.3302,-1.113,4.5913,-0.9043
1845,-0.5365,-8.9286,-4.4068,-1.113,4.5913,-0.7652
1850,-0.7281,-8.9286,-4.4835,-1.0435,4.7304,-0.8348
1855,-0.5748,-9.0436,-4.3685,-0.9043,4.7304,-0.7652
1860,-0.5748,-8.967,-4.4835,-0.6261,4.7304,-0.7652
1865,-0.6131,-9.0053,-4.4452,-0.2783,4.8,-0.7652
1870,-0.5365,-9.0053,-4.4835,-0.1391,4.7304,-0.8348
1875,-0.6514,-8.8903,-4.3685,0.0696,4.6609,-0.6957
1880,-0.5365,-9.1969,-4.5984,0.2087,4.5913,-0.8348
1885,-0.6131,-8.967,-4.4068,0.2087,4.5217,-0.6957
1890,-0.4982,-8.8137,-4.4835,0.2087,4.4522,-0.6261
1895,-0.5365,-8.7754,-4.5984,0.0696,4.4522,-0.6261
1900,-0.6131,-8.8137,-4.3685,-0.2087,4.5217,-0.8348
1905,-0.5365,-8.737,-4.4068,-0.487,4.5913,-0.6957
1910,-0.6131,-8.737,-4.4835,-0.6957,4.6609,-0.6261
1915,-0.5748,-8.852,-4.4068,-0.8348,4.5217,-0.487
1920,-0.7281,-8.8137,-4.2919,-0.9739,4.4522,-0.487
1925,-0.7281,-8.7754,-4.5601,-1.2522,4.5217,-0.5565
1930,-0.7281,-8.8137,-4.4835,-1.3217,4.5913,-0.5565
1935,-0.5365,-8.5454,-4.6751,-1.3913,4.5913,-0.487
1940,-0.6898,-8.6604,-4.3302,-1.3913,4.5913,-0.487
1945,-0.4982,-9.0053,-4.6368,-1.2522,4.8,-0.5565
1950,-0.7281,-8.9286,-4.1003,-1.2522,4.7304,-0.4174
1955,-0.6131,-9.3118,-4.4452,-1.1826,4.7304,-0.4174
1960,-0.5748,-8.4688,-4.4452,-1.1826,4.9391,-0.487
1965,-0.7281,-9.0436,-4.5984,-1.1826,4.8696,-0.4174
1970,-0.6898,-8.7754,-4.1386,-1.0435,4.8696,-0.4174
1975,-0.6514,-8.852,-4.3685,-1.0435,4.8,-0.4174
1980,-0.5365,-8.967,-4.7517,-1.0435,4.8696,-0.4174
1985,-0.9963,-8.737,-4.2919,-0.9739,4.8,-0.4174
1990,-0.6898,-8.852,-4.3685,-0.9043,4.8696,-0.4174
1995,-0.6514,-8.8903,-4.3302,-0.9043,5.0087,-0.4174
2000,-0.6131,-8.9286,-4.4068,-0.9043,5.0087,-0.487
2005,-0.7281,-8.8903,-4.4068,-0.9043,4.8696,-0.4174
2010,-0.2299,-8.5454,-4.7517,-0.9043,4.8696,-0.3478
2015,-0.3832,-9.2352,-4.3685,-0.8348,4.8,-0.3478
2020,-0.8814,-8.7754,-4.1386,-0.6957,4.8,-0.487
2025,-0.7281,-8.7754,-4.5601,-0.7652,5.0087,-0.487
2030,-0.5365,-8.8903,-4.4835,-0.8348,4.9391,-0.487
2035,-1.2263,-8.9286,-3.6404,-0.9043,4.8696,-0.487
2040,-1.0346,-8.5838,-4.4835,-1.0435,4.8696,-0.487
2045,-0.7664,-9.2352,-4.4068,-1.113,4.8696,-0.4174
2050,-0.4215,-8.6221,-4.5984,-1.2522,5.0783,-0.4174
2055,-0.843,-8.967,-4.5984,-1.5304,4.9391,-0.487
2060,-0.843,-9.0053,-4.7134,-1.5304,5.0087,-0.4174
2065,-0.6131,-8.852,-4.3685,-1.6,5.0783,-0.4174
2070,-0.5365,-8.9286,-4.4068,-1.7391,5.1478,-0.3478
2075,-0.6131,-8.7754,-4.3302,-1.8087,5.1478,-0.2783
2080,-0.5748,-8.8903,-4.4068,-1.9478,5.0783,-0.0696
2085,-0.8814,-8.967,-4.6751,-2.0174,5.1478,-0.2087
2090,-1.073,-8.852,-3.9087,-1.9478,5.1478,-0.2783
2095,-0.2299,-8.7754,-4.5601,-1.9478,5.0087,-0.2783
2100,-0.8047,-8.9286,-4.4068,-1.9478,4.9391,-0.2783
2105,-0.7664,-9.0819,-4.2536,-1.8783,5.0783,-0.3478
2110,-0.4982,-9.5418,-4.5218,-1.8087,5.0087,-0.3478
2115,-0.6514,-8.8903,-4.1003,-1.8087,5.0087,-0.2783
2120,-0.843,-8.8903,-4.5601,-1.8087,4.9391,-0.4174
2125,-0.5365,-8.5071,-4.4835,-1.7391,4.8696,-0.3478
2130,-0.5748,-8.852,-4.3685,-1.9478,4.8,-0.2783
2135,-0.5365,-8.2772,-4.4452,-1.9478,4.7304,-0.2783
2140,-0.5748,-8.852,-4.3685,-2.0174,4.7304,-0.3478
2145,-0.5748,-8.852,-4.4068,-2.087,4.7304,-0.2087
2150,-0.3832,-8.967,-4.4068,-2.2261,4.7304,-0.2783
2155,-0.6131,-8.8137,-4.4068,-2.2261,4.7304,-0.2783
2160,-0.6131,-9.0436,-4.4068,-2.1565,4.8,-0.2783
2165,-0.4598,-8.8903,-4.3685,-2.1565,4.8696,-0.2087
2170,-0.843,-8.9286,-4.7517,-2.1565,4.8696,-0.2087
2175,-0.5748,-9.0436,-5.02,-2.1565,4.9391,-0.2087
2180,-0.3832,-9.2735,-4.1386,-2.1565,5.0087,-0.0696
2185,-0.8047,-8.9286,-4.7517,-2.087,4.9391,-0.0696
2190,-0.5365,-8.852,-4.2919,-2.087,4.8696,-0.1391
2195,-0.7281,-8.9286,-4.3302,-2.087,4.9391,-0.0696
2200,-0.3832,-9.1586,-3.8704,-2.087,5.0087,0.0
2205,-0.6131,-9.3118,-4.5218,-1.9478,4.9391,-0.1391
2210,-0.4598,-8.9286,-4.5601,-2.0174,5.0087,-0.0696
2215,-0.6514,-8.7754,-4.5218,-2.1565,5.0087,-0.1391
2220,-0.7281,-8.6987,-4.4068,-2.2261,5.1478,-0.2087
2225,-0.5748,-8.852,-4.4068,-2.1565,5.1478,-0.2087
2230,-0.6514,-8.852,-4.3685,-2.1565,5.0783,-0.2783
2235,-0.7281,-8.9286,-3.9853,-2.1565,5.1478,-0.0696
2240,-0.4215,-8.4305,-4.6751,-2.1565,5.2174,0.0
2245,-0.8047,-8.9286,-4.4835,-2.2957,5.2174,0.0696
2250,-0.3449,-8.737,-4.6751,-2.4348,5.1478,-0.0696
2255,-0.5365,-8.852,-4.5984,-2.5043,5.0783,0.0
2260,-1.2263,-8.967,-4.4452,-2.5739,5.0783,0.0696
2265,-0.7664,-8.7754,-4.3302,-2.5739,5.0783,0.1391
2270,-0.3066,-8.7754,-4.5984,-2.713,5.1478,0.1391
2275,-0.5748,-8.852,-4.2152,-2.713,5.0783,0.0696
2280,-0.6898,-9.1202,-4.3685,-2.5739,5.0087,0.0696
2285,-0.4598,-8.737,-4.5984,-2.5043,4.9391,0.0
2290,-0.9197,-8.9286,-4.5601,-2.5043,5.0087,-0.0696
2295,-0.6514,-8.7754,-4.4452,-2.5739,4.9391,0.0
2300,-0.6131,-8.7754,-4.4835,-2.5739,4.9391,0.0
2305,-0.7281,-8.8137,-4.4452,-2.4348,4.8696,0.0
2310,-0.6514,-8.8137,-4.4068,-2.3652,4.8696,0.0
2315,-0.1533,-8.5071,-4.4452,-2.3652,4.9391,0.0696
2320,-0.4982,-8.852,-4.9433,-2.1565,4.9391,0.0
2325,-0.6131,-9.0436,-4.1769,-1.8783,5.0087,-0.0696
2330,-0.9963,-9.0819,-4.5601,-1.8087,5.0087,0.0
2335,-0.6131,-8.967,-4.79,-1.8783,4.8696,-0.1391
2340,-0.4598,-8.6604,-4.9433,-1.9478,4.7304,-0.2087
2345,-0.4982,-8.852,-4.3302,-1.8783,4.8,-0.2783
2350,-0.5365,-8.7754,-4.5601,-1.9478,4.8696,-0.4174
2355,-1.3795,-8.852,-4.2919,-1.8783,4.8696,-0.4174
2360,-0.5365,-8.6604,-4.3685,-1.9478,4.8696,-0.5565
2365,-0.5748,-9.0436,-4.4452,-2.0174,5.0783,-0.4174
2370,-0.6514,-8.852,-4.5218,-2.0174,5.1478,-0.4174
2375,-0.5365,-8.9286,-4.4452,-1.9478,5.0783,-0.4174
2380,-0.7281,-8.9286,-4.5984,-1.8783,5.1478,-0.4174
2385,-0.5365,-8.737,-4.5984,-1.6696,5.0783,-0.2783
2390,-0.4982,-8.9286,-3.3339,-1.5304,5.0783,-0.2783
2395,-0.6898,-8.5454,-4.4452,-1.5304,5.0087,-0.1391
2400,-0.7664,-9.2352,-4.1769,-1.1826,5.0783,-0.2087
2405,-0.8047,-8.6987,-4.3685,-1.2522,4.9391,-0.1391
2410,-0.5748,-8.7754,-4.5601,-1.4609,4.8696,-0.1391
2415,-0.6131,-8.967,-4.4835,-1.5304,4.9391,-0.1391
2420,-0.7664,-8.852,-4.5984,-1.5304,4.9391,-0.2087
2425,-0.4982,-8.852,-4.4452,-1.6,5.0783,-0.1391
2430,-0.6514,-8.7754,-4.4835,-1.6696,5.0783,-0.2087
2435,-0.7281,-8.8137,-4.5601,-1.7391,5.1478,-0.2087
2440,-0.6131,-8.8137,-4.4452,-1.7391,5.1478,-0.2783
2445,-0.6131,-8.8137,-4.5984,-1.8783,5.0783,-0.2087
2450,-0.8047,-8.967,-4.5218,-1.7391,4.9391,-0.2783
2455,-0.5748,-8.7754,-4.5218,-1.7391,4.9391,-0.3478
2460,-0.6131,-8.7754,-4.5218,-1.6696,4.8696,-0.2783
2465,-0.6514,-8.8137,-4.3302,-1.6696,4.7304,-0.2087
2470,-0.6131,-8.8903,-4.5218,-1.6,4.5913,-0.2087
2475,-0.8814,-8.9286,-4.3685,-1.6,4.4522,-0.1391
2480,-0.6514,-8.737,-4.4835,-1.4609,4.4522,-0.1391
2485,-0.5748,-8.8903,-4.4835,-1.3913,4.4522,-0.2087
2490,-0.6514,-8.8137,-4.4452,-1.2522,4.3826,-0.2783
2495,-0.5748,-9.0053,-4.3685,-1.2522,4.5913,-0.2783
2500,-0.6514,-8.9286,-4.3685,-1.2522,4.5913,-0.3478
2505,-0.7281,-8.7754,-4.4068,-1.1826,4.5913,-0.3478
2510,-0.5365,-8.852,-4.5218,-1.113,4.5913,-0.487
2515,-0.7281,-8.967,-4.4452,-0.9739,4.7304,-0.6261
2520,-0.7664,-8.6604,-4.5984,-0.7652,4.6609,-0.6957
2525,-0.6514,-8.8903,-4.3685,-0.6957,4.7304,-0.6957
2530,-0.6514,-8.8903,-4.3685,-0.5565,4.8696,-0.7652
2535,-0.6514,-8.8137,-4.5218,-0.487,4.8696,-0.7652
2540,-0.6898,-8.852,-4.5218,-0.487,5.0087,-0.6957
2545,-0.6514,-8.8903,-4.4452,-0.5565,4.9391,-0.6957
2550,-0.7281,-8.7754,-4.5218,-0.6957,5.0087,-0.6261
2555,-0.6898,-8.7754,-4.4835,-0.7652,4.9391,-0.5565
2560,-0.6898,-8.7754,-4.4835,-1.1826,5.0087,-0.6261
2565,-0.6898,-8.8137,-4.5218,-1.4609,4.9391,-0.5565
2570,-0.6131,-8.8903,-4.4452,-1.6696,4.8,-0.487
2575,-0.5365,-8.852,-4.3302,-1.6696,4.7304,-0.487
2580,-0.6131,-8.737,-4.5218,-1.6,4.5217,-0.3478
2585,-0.6131,-8.9286,-4.3685,-1.8087,4.4522,-0.4174
2590,-0.5365,-8.8903,-4.4068,-1.7391,4.313,-0.487
2595,-0.7664,-8.7754,-4.4068,-1.6696,4.2435,-0.487
2600,-0.7281,-8.7754,-4.5218,-1.6,4.313,-0.487
2605,-0.6131,-8.852,-4.4452,-1.6696,4.2435,-0.487
2610,-0.4215,-8.8137,-4.5218,-1.6,4.313,-0.487
2615,-0.5748,-8.967,-4.4452,-1.6,4.4522,-0.4174
2620,-0.6131,-8.7754,-4.4452,-1.3913,4.6609,-0.5565
2625,-0.6514,-8.7754,-4.3685,-1.3913,4.5913,-0.487
2630,-0.6514,-8.7754,-4.5601,-1.3217,4.7304,-0.487
2635,-0.6514,-8.7754,-4.5218,-1.3217,4.8,-0.5565
2640,-0.6131,-8.8903,-4.4068,-1.2522,4.8696,-0.5565
2645,-0.7281,-8.7754,-4.5601,-1.2522,4.9391,-0.5565
2650,-0.5748,-8.852,-4.5218,-1.1826,4.8,-0.6261
2655,-0.5748,-8.6987,-4.3685,-1.2522,4.8,-0.6957
2660,-0.5748,-8.737,-4.4452,-1.1826,4.9391,-0.6957
2665,-0.6131,-8.9286,-4.5984,-1.3217,4.8696,-0.5565
2670,-0.6898,-8.6604,-4.4068,-1.2522,4.8,-0.487
2675,-0.6514,-8.7754,-4.4452,-1.1826,4.8,-0.487
2680,-0.7281,-8.8137,-4.6368,-1.0435,4.7304,-0.5565
2685,-0.6898,-8.737,-4.5601,-1.113,4.6609,-0.487
2690,-0.5365,-8.8903,-4.5984,-1.1826,4.6609,-0.4174
2695,-0.4982,-8.8137,-4.2536,-1.1826,4.5913,-0.487
2700,-0.6131,-8.7754,-4.4835,-1.1826,4.5913,-0.4174
2705,-0.6514,-8.852,-4.5601,-1.2522,4.5913,-0.3478
2710,-0.6514,-8.737,-4.5218,-1.2522,4.5217,-0.2783
2715,-0.5748,-8.8903,-4.4452,-1.3913,4.5217,-0.2087
2720,-0.5365,-8.852,-4.3685,-1.3217,4.6609,-0.2087
2725,-0.6131,-8.8137,-4.5601,-1.4609,4.7304,-0.2783
2730,-0.6514,-8.8903,-4.5601,-1.7391,4.6609,-0.2087
2735,-0.6514,-8.7754,-4.4068,-1.8087,4.6609,-0.1391
2740,-0.5748,-8.8903,-4.5601,-1.8783,4.7304,-0.2783
2745,-0.6514,-8.852,-4.5601,-1.8087,4.5913,-0.3478
2750,-0.5748,-8.8903,-4.5984,-1.8783,4.5217,-0.2783
2755,-0.6514,-8.7754,-4.6368,-1.8783,4.6609,-0.3478
2760,-0.6898,-8.7754,-4.4835,-1.8087,4.5913,-0.3478
2765,-0.6514,-8.8137,-4.4452,-1.7391,4.5913,-0.2783
2770,-0.6131,-8.737,-4.5218,-1.6,4.5913,-0.2783
2775,-0.6514,-8.852,-4.5601,-1.4609,4.5913,-0.2087
2780,-0.6514,-8.7754,-4.4452,-1.5304,4.5217,-0.2087
2785,-0.6898,-8.8137,-4.5601,-1.3217,4.6609,-0.3478
2790,-0.6131,-8.7754,-4.5984,-1.2522,4.6609,-0.3478
2795,-0.5365,-8.852,-4.4452,-1.1826,4.7304,-0.4174
2800,-0.7281,-8.8137,-4.4068,-1.1826,4.8,-0.4174
2805,-0.8047,-8.6604,-5.0583,-1.2522,4.8,-0.3478
2810,-0.5748,-8.7754,-4.4068,-1.3217,4.8,-0.2783
2815,-0.6131,-8.8137,-4.6751,-1.2522,4.7304,-0.3478
2820,-0.6514,-8.8137,-4.2536,-1.1826,4.7304,-0.2783
2825,-0.5748,-8.852,-4.5984,-1.2522,4.6609,-0.2783
2830,-0.6514,-8.7754,-4.4835,-1.2522,4.6609,-0.2087
2835,-0.4982,-8.967,-4.4835,-1.3217,4.5913,-0.2087
2840,-0.6514,-8.7754,-4.6751,-1.3913,4.5913,-0.2087
2845,-0.6131,-8.737,-4.5601,-1.3913,4.5913,-0.2087
2850,-0.5748,-8.9286,-4.5601,-1.3913,4.4522,-0.1391
2855,-0.6514,-8.8903,-4.5601,-1.4609,4.3826,-0.2087
2860,-0.6514,-8.8137,-4.4452,-1.4609,4.4522,-0.0696
2865,-0.6514,-8.7754,-4.4835,-1.5304,4.4522,-0.1391
2870,-0.4982,-8.8137,-4.5218,-1.6,4.4522,-0.2087
2875,-0.5748,-8.8137,-4.4835,-1.6,4.5217,-0.2087
2880,-0.6898,-8.7754,-4.6368,-1.6696,4.5913,-0.2783
2885,-0.5748,-8.852,-4.4835,-1.6,4.6609,-0.2087
2890,-0.5365,-8.852,-4.4068,-1.6696,4.7304,-0.2783
2895,-0.5365,-8.9286,-4.5601,-1.8087,4.8,-0.2783
2900,-0.6131,-8.8137,-4.4068,-1.6696,4.9391,-0.2783
2905,-0.6131,-8.8137,-4.5218,-1.6696,4.8696,-0.2087
2910,-0.5748,-8.737,-4.4452,-1.6696,4.8696,-0.2087
2915,-0.4982,-8.967,-4.4452,-1.6,4.8,-0.2087
2920,-0.5748,-8.8137,-4.5218,-1.5304,4.8696,-0.2087
2925,-0.6514,-8.7754,-4.5984,-1.5304,4.6609,-0.2087
2930,-0.6514,-8.737,-4.5601,-1.4609,4.7304,0.0
2935,-0.7281,-8.6987,-4.5601,-1.4609,4.7304,0.0
2940,-0.6131,-8.7754,-4.6751,-1.6,4.6609,0.0
2945,-0.7281,-8.852,-4.5601,-1.6696,4.6609,-0.0696
2950,-0.5365,-8.8137,-4.4452,-1.6,4.5217,0.0
2955,-0.5365,-8.8137,-4.5218,-1.5304,4.5913,0.0
2960,-0.5748,-8.7754,-4.4835,-1.5304,4.5913,-0.0696
2965,-0.5748,-8.7754,-4.5984,-1.6,4.6609,-0.0696
2970,-0.6898,-8.852,-4.5984,-1.6,4.6609,-0.1391
2975,-0.5748,-8.852,-4.5218,-1.4609,4.6609,-0.0696
2980,-0.5365,-8.8137,-4.7134,-1.4609,4.5217,-0.1391
2985,-0.5748,-8.7754,-4.5601,-1.3913,4.5217,-0.0696
2990,-0.6131,-8.6987,-4.5601,-1.4609,4.5217,-0.0696
2995,-0.6514,-8.737,-4.3685,-1.4609,4.5913,-0.0696
