timestamp,accX,accY,accZ,gyroX,gyroY,gyroZ
0,1.8011,-4.3685,-8.852,4.9391,3.4087,-2.9913
5,1.7244,-4.3302,-8.967,5.5652,3.2696,-3.0609
10,1.8394,-4.3685,-9.0436,6.3304,3.1304,-3.2696
15,1.6861,-4.3685,-8.967,6.887,2.9217,-3.3391
20,1.7244,-4.4068,-8.852,7.4435,2.5739,-3.7565
25,1.8011,-4.3302,-9.0053,7.7913,2.2957,-4.0348
30,1.6478,-4.3302,-9.0436,8.1391,2.0174,-4.4522
35,1.7627,-4.2919,-9.0053,8.3478,1.7391,-4.6609
40,1.6861,-4.3302,-9.0819,8.2783,1.3913,-5.0783
45,1.7627,-4.3685,-8.8903,7.9304,1.0435,-5.4957
50,1.8011,-4.3685,-8.9286,7.3739,0.7652,-5.7739
55,1.8011,-4.3685,-9.0436,6.7478,0.6957,-5.913
60,1.8394,-4.3685,-8.8903,5.9826,0.6261,-6.2609
65,1.916,-4.4452,-8.737,5.2174,0.7652,-6.1913
70,1.8394,-4.3685,-9.0053,4.3826,0.9043,-6.2609
75,1.8777,-4.3685,-8.8903,3.7565,1.0435,-6.1217
80,1.9543,-4.2919,-9.0053,3.0609,1.3913,-6.1217
85,1.9927,-4.3685,-9.0819,2.5043,1.5304,-5.913
90,1.9543,-4.3302,-9.1202,1.8783,1.8087,-5.6348
95,1.9543,-4.3685,-9.0819,1.3217,2.087,-5.3565
100,1.9543,-4.3685,-9.0819,0.7652,2.3652,-5.2174
105,1.9543,-4.3685,-8.9286,0.1391,2.6435,-4.8
110,1.916,-4.2536,-8.7754,-0.3478,2.8522,-4.6609
115,1.9543,-4.3685,-9.1586,-0.9043,3.0609,-4.1739
120,1.9927,-4.3685,-8.967,-1.3913,3.2,-4.0348
125,1.8394,-4.2919,-9.0819,-1.7391,3.2696,-3.4783
130,1.8394,-4.3685,-8.8903,-2.0174,3.2696,-3.3391
135,1.8394,-4.3685,-9.0819,-2.1565,3.2696,-2.9217
140,1.8777,-4.4068,-8.852,-2.2957,3.2696,-2.6435
145,1.8394,-4.2919,-8.967,-2.2957,3.0609,-2.1565
150,1.8394,-4.4835,-8.852,-2.1565,2.7826,-2.1565
155,1.7627,-4.5218,-9.0053,-2.1565,2.713,-1.7391
160,1.7244,-4.4068,-8.9286,-2.087,2.4348,-1.8783
165,1.6861,-4.4835,-9.0053,-1.8783,2.2957,-1.6696
170,1.6095,-4.4835,-9.0819,-1.7391,2.2261,-1.8783
175,1.6478,-4.4452,-8.852,-1.4609,2.087,-1.8087
180,1.7244,-4.5218,-8.9286,-1.113,2.0174,-2.087
185,1.7627,-4.5984,-9.0053,-0.6957,2.0174,-2.1565
190,1.8394,-4.4068,-8.8903,-0.2783,2.0174,-2.3652
195,1.6478,-4.4068,-9.0053,0.1391,1.8783,-2.2957
200,1.7627,-4.5601,-8.8903,0.7652,1.7391,-2.5739
205,1.6861,-4.3685,-8.7754,1.1826,1.6,-2.4348
210,1.8011,-4.5984,-8.852,1.7391,1.5304,-2.5739
215,1.8394,-4.5218,-8.737,2.1565,1.6,-2.2957
220,1.7627,-4.5218,-8.852,2.4348,1.6,-2.2957
225,1.7627,-4.4835,-8.8137,2.6435,1.5304,-1.8783
230,1.8777,-4.3685,-8.852,2.9913,1.6696,-1.6
235,1.8011,-4.3302,-8.7754,3.3391,1.8087,-1.1826
240,1.916,-4.3685,-8.8137,3.4783,1.9478,-0.7652
245,1.9543,-4.3302,-8.9286,3.5478,2.2957,-0.2087
250,1.9543,-4.4835,-8.852,3.4783,2.5739,0.1391
255,1.8394,-4.4452,-8.6987,3.1304,2.6435,0.6261
260,1.8394,-4.3302,-8.7754,2.7826,2.8522,0.8348
265,1.8011,-4.3685,-8.6987,2.5043,2.9217,1.1826
270,1.916,-4.3685,-8.737,1.9478,3.0609,1.0435
275,1.6861,-4.1769,-8.852,1.5304,3.0609,1.2522
280,1.8394,-4.3302,-8.737,0.9043,3.3391,1.1826
285,1.8394,-4.2152,-8.737,0.4174,3.6174,1.3217
290,1.8011,-4.2536,-8.7754,0.0696,3.7565,1.2522
295,1.8777,-4.3302,-8.8137,-0.487,3.8957,1.4609
300,1.6095,-4.2919,-8.8137,-0.8348,4.0348,1.1826
305,1.8777,-4.3685,-8.852,-1.3913,4.1043,1.3217
310,1.8011,-4.4452,-8.8137,-1.6,4.1739,1.0435
315,1.7627,-4.4068,-8.737,-1.8783,4.313,1.113
320,1.6861,-4.3685,-8.8903,-2.0174,4.3826,0.9043
325,1.7244,-4.4835,-8.8903,-2.087,4.3826,0.9043
330,1.8394,-4.3685,-9.0053,-2.1565,4.4522,0.6957
335,1.8394,-4.4452,-9.0053,-2.1565,4.3826,0.7652
340,1.6861,-4.4068,-8.8903,-2.0174,4.3826,0.487
345,1.7627,-4.4452,-8.9286,-2.0174,4.3826,0.6261
350,1.7627,-4.4452,-9.0053,-2.0174,4.4522,0.487
355,1.7244,-4.4068,-8.9286,-2.087,4.4522,0.6261
360,1.8011,-4.5218,-9.0053,-2.087,4.5217,0.6261
365,1.8394,-4.4452,-9.0436,-2.0174,4.5913,0.8348
370,1.8011,-4.5601,-8.967,-1.9478,4.5217,0.6957
375,1.6861,-4.3685,-8.8903,-2.0174,4.6609,0.9739
380,1.7244,-4.3302,-8.8137,-2.1565,4.6609,0.8348
385,1.6861,-4.2536,-8.9286,-2.2957,4.8,1.113
390,1.7244,-4.4452,-8.967,-2.2261,4.8,1.0435
395,1.7627,-4.5218,-8.967,-2.1565,4.8696,1.2522
400,1.6478,-4.2919,-8.9286,-2.2957,5.0783,1.1826
405,1.8011,-4.4452,-8.7754,-2.2957,5.1478,1.3913
410,1.6095,-4.4068,-9.0053,-2.2957,5.287,1.2522
415,1.7627,-4.3685,-8.967,-2.2261,5.3565,1.4609
420,1.8777,-4.3685,-9.0053,-2.2261,5.4261,1.4609
425,1.8394,-4.3302,-8.967,-2.2957,5.6348,1.7391
430,1.7627,-4.3685,-8.9286,-2.3652,5.8435,1.8087
435,1.8011,-4.3685,-9.0819,-2.5043,5.9826,2.2261
440,1.8777,-4.4068,-9.0053,-2.713,6.1913,2.2261
445,1.8777,-4.2919,-8.8903,-3.0609,6.3304,2.5739
450,1.7627,-4.3302,-8.852,-3.4087,6.6087,2.8522
455,1.8777,-4.2919,-8.967,-3.7565,6.887,3.1304
460,1.8394,-4.2919,-9.0436,-4.1043,7.1652,3.2
465,1.8394,-4.2919,-8.8903,-4.4522,7.3043,3.6174
470,1.8011,-4.3302,-9.0436,-4.8696,7.5826,3.7565
475,1.7627,-4.3685,-8.852,-5.0087,7.6522,4.1739
480,1.8394,-4.4452,-8.8903,-5.1478,7.6522,4.2435
485,1.7627,-4.3685,-8.8903,-5.1478,7.7217,4.4522
490,1.7627,-4.4068,-8.852,-5.2174,7.7217,4.313
495,1.6861,-4.4068,-8.967,-5.4261,7.6522,4.3826
500,1.6478,-4.3302,-9.0053,-5.3565,7.5826,4.0348
505,1.6478,-4.4068,-8.9286,-5.2174,7.3739,3.8261
510,1.7244,-4.4835,-8.967,-5.0783,7.1652,3.3391
515,1.5711,-4.4452,-8.852,-4.7304,6.8174,2.9913
520,1.6095,-4.4452,-8.967,-4.3826,6.5391,2.2957
525,1.6095,-4.3685,-8.852,-4.0348,6.2609,1.8783
530,1.6095,-4.4068,-9.0053,-3.4087,5.7739,1.113
535,1.6478,-4.4835,-8.9286,-2.8522,5.3565,0.8348
540,1.6478,-4.4835,-8.8903,-2.2957,5.0087,0.2087
545,1.6861,-4.3302,-8.967,-1.6696,4.6609,-0.2087
550,1.7244,-4.4835,-8.852,-0.9739,4.1739,-0.8348
555,1.6861,-4.4452,-8.8903,-0.487,3.8957,-1.113
560,1.8777,-4.4835,-8.8903,0.0696,3.687,-1.6
565,1.7627,-4.5218,-8.967,0.4174,3.4783,-1.6696
570,1.8777,-4.5601,-8.9286,0.8348,3.4783,-2.0174
575,1.9543,-4.5218,-8.8903,1.1826,3.4087,-2.087
580,1.916,-4.5218,-8.967,1.6,3.4087,-2.2957
585,1.9927,-4.5218,-8.9286,1.8783,3.4783,-2.2261
590,1.9927,-4.4452,-8.852,2.2957,3.6174,-2.2957
595,1.8394,-4.4068,-8.8137,2.713,3.7565,-1.9478
600,1.9927,-4.5601,-9.0436,3.1304,4.1739,-1.7391
605,1.9543,-4.4452,-8.737,3.4783,4.3826,-1.3913
610,1.916,-4.3685,-8.8903,3.687,4.7304,-1.113
615,2.031,-4.4068,-8.8137,3.8261,5.1478,-0.7652
620,1.916,-4.3302,-8.852,3.7565,5.4957,-0.487
625,1.9927,-4.4068,-8.967,3.5478,5.9826,-0.1391
630,1.9543,-4.3685,-8.852,3.4087,6.1217,0.0
635,1.9543,-4.3685,-8.737,3.1304,6.4,0.3478
640,1.8777,-4.3685,-8.8903,2.9217,6.5391,0.4174
645,1.9927,-4.2536,-8.737,2.5043,6.887,0.6957
650,1.916,-4.2536,-8.7754,2.2261,7.0261,0.7652
655,1.9543,-4.3685,-8.8903,1.6696,7.1652,0.9739
660,1.8777,-4.2536,-8.8137,1.3913,7.2348,1.113
665,1.8777,-4.3302,-8.967,1.0435,7.3043,1.3913
670,1.7244,-4.3302,-8.8137,0.6957,7.3739,1.3913
675,1.8394,-4.2919,-9.0053,0.4174,7.3739,1.6
680,1.8394,-4.2919,-8.8137,0.0696,7.3739,1.5304
685,1.8011,-4.2919,-9.0053,-0.2087,7.2348,1.6696
690,1.8394,-4.3302,-8.8903,-0.487,7.2348,1.6
695,1.7627,-4.3302,-8.852,-0.8348,7.0957,1.6
700,1.7627,-4.4452,-8.967,-0.9043,7.0957,1.3913
705,1.7244,-4.3302,-8.852,-1.0435,7.0261,1.4609
710,1.7627,-4.4835,-8.9286,-1.0435,6.9565,1.2522
715,1.7244,-4.3685,-8.967,-1.113,6.9565,1.2522
720,1.8011,-4.4452,-9.0436,-1.0435,6.7478,1.1826
725,1.7244,-4.2919,-8.967,-0.7652,6.8174,1.0435
730,1.6861,-4.3685,-9.0436,-0.6957,6.7478,0.8348
735,1.7627,-4.4068,-8.9286,-0.6957,6.6087,0.9043
740,1.8394,-4.5218,-8.9286,-0.3478,6.5391,0.7652
745,1.6861,-4.3685,-8.9286,-0.2783,6.3304,0.7652
750,1.7244,-4.4835,-9.0436,0.0,5.913,0.7652
755,1.8011,-4.5218,-8.8137,0.1391,5.7043,0.7652
760,1.6861,-4.4452,-8.8903,0.2783,5.4261,0.7652
765,1.6861,-4.3685,-9.0819,0.4174,5.2174,0.7652
770,1.7244,-4.4068,-8.8137,0.487,5.0087,0.7652
775,1.7627,-4.5218,-8.9286,0.6261,4.8,0.8348
780,1.8011,-4.3302,-8.7754,0.7652,4.5913,0.8348
785,1.7244,-4.4068,-8.967,0.6957,4.3826,0.9043
790,1.8394,-4.4835,-8.967,0.6957,4.1739,0.8348
795,1.8011,-4.4068,-8.967,0.3478,3.9652,0.7652
800,1.7244,-4.4068,-8.737,0.1391,3.8957,0.7652
805,1.7627,-4.4835,-8.852,0.0,3.8261,0.7652
810,1.8777,-4.5218,-8.8903,-0.2087,3.687,0.7652
815,1.8394,-4.4068,-8.852,-0.3478,3.687,0.5565
820,1.8394,-4.4835,-8.737,-0.4174,3.4783,0.487
825,1.8777,-4.5218,-8.737,-0.3478,3.4087,0.2783
830,1.8777,-4.4452,-8.737,-0.2783,3.2696,0.1391
835,1.7627,-4.4452,-8.8903,-0.1391,3.0609,-0.0696
840,1.7627,-4.5218,-8.6987,0.2783,2.9217,-0.2783
845,1.8777,-4.6368,-8.8903,0.6261,2.6435,-0.487
850,1.7627,-4.5218,-8.852,1.1826,2.3652,-0.487
855,1.7627,-4.5601,-8.8137,1.6,2.1565,-0.6261
860,1.8394,-4.5601,-8.852,1.8783,2.1565,-0.7652
865,1.7244,-4.5218,-8.9286,2.3652,1.8087,-0.8348
870,1.7627,-4.4452,-8.9286,2.5739,1.6,-0.9043
875,1.8394,-4.5984,-8.8137,3.0609,1.4609,-0.9739
880,1.916,-4.5984,-8.9286,3.3391,1.1826,-1.0435
885,1.8777,-4.5984,-8.852,3.4783,1.113,-0.9739
890,1.8777,-4.5218,-8.967,3.7565,1.113,-0.9739
895,1.916,-4.5601,-8.7754,3.8957,1.0435,-0.9043
900,1.9543,-4.5601,-8.6987,3.9652,1.1826,-0.6957
905,1.8777,-4.4835,-8.8903,4.1043,1.2522,-0.7652
910,1.8394,-4.5218,-8.7754,4.1739,1.3913,-0.7652
915,1.8777,-4.4835,-8.9286,4.0348,1.4609,-0.8348
920,1.8777,-4.4452,-8.8903,3.9652,1.6,-0.6957
925,1.9543,-4.4452,-8.8903,3.8261,1.8783,-0.6957
930,1.916,-4.4452,-8.8137,3.5478,2.0174,-0.7652
935,1.8011,-4.3685,-8.6987,3.2696,2.1565,-0.8348
940,1.8394,-4.2919,-8.8137,2.8522,2.2261,-0.9739
945,1.8777,-4.3685,-8.9286,2.5739,2.2957,-1.1826
950,1.7627,-4.4452,-8.852,2.2957,2.3652,-1.113
955,1.8011,-4.4835,-9.0436,1.9478,2.3652,-1.3217
960,1.7627,-4.4835,-8.8903,1.6696,2.5043,-1.2522
965,1.8011,-4.5218,-8.967,1.5304,2.713,-1.4609
970,1.7244,-4.5601,-8.9286,1.4609,2.7826,-1.5304
975,1.7627,-4.5218,-8.9286,1.4609,2.8522,-1.6696
980,1.8011,-4.4835,-8.8903,1.3217,2.8522,-1.6696
985,1.8011,-4.5601,-9.0436,1.3913,2.9217,-1.8783
990,1.7627,-4.5601,-9.0436,1.3913,2.9217,-1.8087
995,1.8394,-4.6368,-8.8903,1.3913,2.7826,-2.0174
1000,1.7627,-4.5218,-8.8903,1.3217,2.7826,-1.9478
1005,1.8011,-4.4452,-9.0053,1.0435,2.5043,-2.2957
1010,1.8394,-4.6368,-8.9286,0.9739,2.4348,-2.1565
1015,1.8394,-4.5218,-9.0819,0.8348,2.2957,-2.2957
1020,1.7627,-4.6368,-8.9286,0.6261,2.1565,-2.3652
1025,1.7244,-4.4068,-8.8903,0.487,1.9478,-2.6435
1030,1.8394,-4.5218,-8.852,0.487,1.8087,-2.5739
1035,1.7244,-4.5984,-9.0053,0.487,1.6696,-2.6435
1040,1.7627,-4.5984,-8.852,0.6261,1.6,-2.6435
1045,1.7244,-4.5218,-8.9286,0.8348,1.5304,-2.7826
1050,1.7627,-4.6368,-8.967,0.9043,1.5304,-2.4348
1055,1.7244,-4.6368,-8.8903,1.0435,1.3217,-2.5043
1060,1.6861,-4.6368,-8.967,1.0435,1.3217,-2.3652
1065,1.7627,-4.4452,-8.6987,1.113,1.2522,-2.4348
1070,1.7627,-4.5218,-8.852,1.113,1.113,-2.4348
1075,1.8011,-4.6368,-8.9286,0.9739,1.113,-2.5739
1080,1.6861,-4.4452,-8.852,0.7652,0.9739,-2.3652
1085,1.5711,-4.4835,-8.8137,0.6261,0.9739,-2.5043
1090,1.6095,-4.5601,-8.8903,0.4174,0.7652,-2.5043
1095,1.6478,-4.5984,-8.8903,0.2087,0.8348,-2.713
1100,1.6095,-4.4835,-8.6221,0.0696,0.7652,-2.5043
1105,1.6095,-4.4452,-8.7754,0.0696,0.7652,-2.7826
1110,1.6861,-4.5218,-8.737,0.2087,0.7652,-2.6435
1115,1.5711,-4.4835,-8.6604,0.2783,0.7652,-2.8522
1120,1.6095,-4.6751,-8.737,0.4174,0.6261,-2.6435
1125,1.6095,-4.5218,-8.6604,0.487,0.5565,-2.8522
1130,1.6861,-4.5601,-8.6987,0.487,0.487,-2.6435
1135,1.6861,-4.5984,-8.9286,0.5565,0.6261,-2.713
1140,1.7244,-4.6368,-8.8137,0.8348,0.6261,-2.6435
1145,1.6861,-4.5984,-8.6221,1.0435,0.5565,-2.7826
1150,1.6478,-4.5984,-8.5838,1.2522,0.487,-2.713
1155,1.7244,-4.5218,-8.737,1.3217,0.4174,-2.7826
1160,1.7627,-4.6368,-8.737,1.3913,0.487,-2.5739
1165,1.6478,-4.5601,-8.737,1.3217,0.6261,-2.5739
1170,1.7244,-4.5218,-8.5454,1.1826,0.8348,-2.2261
1175,1.7627,-4.5218,-8.8137,1.1826,1.113,-2.2261
1180,1.7244,-4.5601,-8.8137,1.1826,1.4609,-1.8087
1185,1.8011,-4.6368,-8.6987,1.113,1.7391,-1.6
1190,1.8394,-4.4835,-8.6987,1.0435,2.0174,-1.0435
1195,1.7244,-4.4835,-8.6604,1.0435,2.2957,-0.9739
1200,1.7627,-4.5218,-8.6604,0.9739,2.5739,-0.487
1205,1.8011,-4.6368,-8.7754,0.9739,2.9217,-0.4174
1210,1.8011,-4.4835,-8.737,0.7652,2.9913,-0.0696
1215,1.8011,-4.5218,-8.8137,0.7652,3.1304,0.1391
1220,1.7627,-4.4452,-8.7754,0.6261,3.3391,0.4174
1225,1.7627,-4.4452,-8.9286,0.4174,3.6174,0.5565
1230,1.8011,-4.4452,-8.8137,0.1391,3.8261,0.9043
1235,1.7244,-4.4835,-8.852,-0.1391,3.8957,0.9739
1240,1.6478,-4.5218,-8.7754,-0.4174,4.0348,1.3913
1245,1.6861,-4.4835,-8.6987,-0.7652,4.4522,1.3913
1250,1.6478,-4.5601,-8.8137,-1.0435,4.3826,1.6
1255,1.6861,-4.5984,-8.852,-1.1826,4.5217,1.5304
1260,1.6861,-4.4835,-8.8903,-1.4609,4.8,1.8783
1265,1.7627,-4.5601,-8.7754,-1.6696,5.0087,1.6696
1270,1.6478,-4.5601,-8.6221,-1.9478,5.0783,1.8087
1275,1.6095,-4.4835,-8.8903,-2.1565,5.1478,1.6696
1280,1.6095,-4.5984,-8.9286,-2.2261,5.3565,1.7391
1285,1.6861,-4.6751,-8.852,-2.2957,5.4261,1.4609
1290,1.7244,-4.7134,-9.0053,-2.2261,5.4261,1.5304
1295,1.8011,-4.3685,-9.5801,-2.1565,5.4261,1.1826
1300,1.6861,-4.5218,-8.9286,-2.0174,5.4957,1.113
1305,1.7244,-4.6751,-8.9286,-1.8087,5.5652,0.8348
1310,1.6478,-4.5601,-9.0053,-1.5304,5.6348,0.9043
1315,1.7627,-4.8284,-9.0436,-1.2522,5.7739,0.6957
1320,1.8011,-4.6751,-8.9286,-1.113,5.913,0.7652
1325,1.7244,-4.6368,-8.852,-0.8348,5.9826,0.6261
1330,1.7627,-4.5984,-8.967,-0.6261,6.0522,0.6957
1335,1.7627,-4.5601,-9.0436,-0.4174,6.3304,0.487
1340,1.8011,-4.5984,-9.0436,-0.3478,6.6087,0.6957
1345,1.7627,-4.5218,-8.967,-0.487,6.9565,0.5565
1350,1.8394,-4.6368,-8.8903,-0.4174,7.1652,0.8348
1355,1.7627,-4.6368,-8.8903,-0.2783,7.4435,0.6957
1360,1.8011,-4.6368,-8.8137,-0.3478,7.7913,0.9739
1365,1.8394,-4.5601,-8.967,-0.3478,8.0,0.8348
1370,1.8777,-4.6368,-8.852,-0.487,8.2087,1.2522
1375,1.8777,-4.5601,-9.0053,-0.487,8.4174,1.4609
1380,1.7627,-4.6368,-9.0436,-0.7652,8.5565,1.8783
1385,1.8777,-4.79,-8.967,-1.0435,8.6957,2.0174
1390,1.6861,-4.5601,-9.0053,-1.3217,8.6957,2.6435
1395,1.8394,-4.6751,-9.1586,-1.8087,8.6261,2.8522
1400,1.7244,-4.7134,-8.852,-2.2957,8.487,3.4783
1405,1.916,-4.7517,-8.8137,-2.5739,8.487,3.7565
1410,1.8394,-4.79,-9.0436,-2.9217,8.487,4.313
1415,1.9543,-4.905,-9.0436,-3.0609,8.2087,4.4522
1420,1.916,-4.79,-9.1969,-3.2696,8.2087,4.6609
1425,2.031,-4.905,-9.0436,-3.5478,8.0696,4.5913
1430,1.916,-4.8667,-9.2352,-3.7565,7.9304,4.6609
1435,1.9927,-4.8667,-9.2352,-3.8261,7.7217,4.313
1440,1.9927,-4.8667,-9.3502,-3.7565,7.7217,3.9652
1445,1.9543,-4.79,-9.4651,-3.687,7.7913,3.5478
1450,2.031,-4.8284,-9.3502,-3.5478,7.8609,3.2
1455,1.916,-4.7134,-9.5034,-3.2696,8.0,2.7826
1460,1.8777,-4.6751,-9.4268,-2.9913,8.2087,2.5043
1465,1.916,-4.6368,-9.2735,-2.6435,8.3478,2.087
1470,1.9543,-4.79,-9.3885,-2.2957,8.2087,1.8783
1475,1.916,-4.7517,-9.4268,-1.8783,7.9304,1.4609
1480,1.916,-4.79,-9.3502,-1.6,7.5826,1.4609
1485,1.8394,-4.7517,-9.3502,-1.3217,7.0261,0.9739
1490,1.9543,-4.79,-9.1969,-1.1826,6.1913,0.9739
1495,1.916,-4.7134,-9.4268,-1.0435,5.4261,0.8348
1500,2.0693,-4.8667,-9.2352,-0.9739,4.5913,0.6957
1505,2.031,-4.79,-9.3118,-1.0435,3.8261,0.3478
1510,1.9927,-4.79,-9.3502,-0.9043,3.0609,0.2783
1515,2.0693,-4.79,-9.4268,-0.9043,2.4348,0.0
1520,2.2226,-4.9433,-9.4268,-0.6957,1.8783,-0.3478
1525,2.1459,-4.9433,-9.5418,-0.4174,1.3217,-0.9043
1530,2.031,-4.9433,-9.4651,-0.0696,0.7652,-1.1826
1535,1.9927,-4.9433,-9.5034,0.2783,0.2783,-1.8087
1540,2.0693,-4.9816,-9.4651,0.6957,-0.4174,-2.2957
1545,1.9927,-4.9433,-9.5801,1.3217,-0.8348,-2.9913
1550,1.9543,-5.02,-9.4268,1.8087,-1.3913,-3.4783
1555,1.916,-4.79,-9.3885,2.3652,-1.8087,-4.1043
1560,1.8777,-4.8284,-9.3118,2.7826,-2.3652,-4.4522
1565,1.9543,-4.7517,-9.2352,3.2696,-2.9217,-4.9391
1570,1.9927,-4.8284,-9.1969,3.687,-3.3391,-5.287
1575,1.916,-4.6751,-9.0819,4.1739,-3.5478,-5.8435
1580,1.8777,-4.5601,-8.9286,4.2435,-3.6174,-6.1217
1585,1.8777,-4.7134,-8.8903,4.1739,-3.687,-6.6087
1590,1.8777,-4.5601,-8.9286,3.9652,-3.3391,-6.6783
1595,1.9543,-4.6368,-8.852,3.8957,-3.0609,-6.9565
1600,1.8011,-4.79,-8.6221,3.7565,-2.5043,-7.0957
1605,1.916,-4.7134,-8.737,3.8261,-1.9478,-7.2348
1610,1.8394,-4.6751,-8.6221,3.8261,-1.3217,-7.3043
1615,1.8011,-4.6368,-8.737,3.9652,-0.9043,-7.513
1620,1.7244,-4.6751,-8.7754,4.1043,-0.4174,-7.3739
1625,1.8777,-4.6368,-8.737,4.2435,-0.0696,-7.4435
1630,1.7244,-4.5984,-8.5838,4.3826,0.4174,-7.3739
1635,1.7627,-4.6368,-8.6221,4.1739,0.6957,-7.3043
1640,1.6095,-4.6368,-8.5838,3.8261,1.0435,-7.3739
1645,1.7244,-4.6368,-8.5838,3.4783,1.4609,-7.3739
1650,1.7627,-4.7517,-8.5838,3.1304,1.7391,-7.5826
1655,1.8011,-4.79,-8.5454,2.6435,2.087,-7.8609
1660,1.6095,-4.8667,-8.6604,2.087,2.5043,-8.3478
1665,1.5328,-4.8667,-8.5454,1.9478,2.7826,-8.6957
1670,1.6095,-4.7517,-8.5071,2.0174,2.9913,-8.7652
1675,1.6861,-4.9816,-8.5454,1.9478,3.1304,-8.9739
1680,1.6478,-5.02,-8.5838,1.9478,3.1304,-8.9739
1685,1.6861,-5.02,-8.737,1.8087,2.8522,-9.113
1690,1.7244,-5.02,-8.6221,1.8783,2.2957,-9.2522
1695,1.6478,-5.02,-8.8137,2.0174,1.6,-9.1826
1700,1.6861,-4.9816,-9.0053,2.087,0.7652,-9.113
1705,1.7627,-4.9433,-9.0436,1.9478,-0.1391,-8.9739
1710,1.7244,-4.905,-9.2735,1.3913,-1.0435,-8.9739
1715,1.8394,-4.9816,-9.4268,0.6957,-1.8783,-8.9739
1720,1.8777,-4.9433,-9.5034,-0.1391,-2.4348,-8.6261
1725,1.8394,-4.905,-9.6184,-1.1826,-2.9217,-8.5565
1730,1.9543,-4.9433,-9.925,-2.0174,-3.0609,-8.2783
1735,1.9927,-4.905,-9.81,-2.9217,-3.2696,-8.487
1740,1.9543,-4.905,-10.0016,-4.1739,-3.5478,-8.9043
1745,1.916,-4.8284,-10.0016,-5.4957,-3.687,-9.3217
1750,1.9927,-4.8667,-10.1549,-6.8174,-3.8957,-10.0174
1755,1.9543,-4.8284,-10.2698,-8.2087,-3.9652,-10.3652
1760,1.916,-4.7517,-10.2698,-9.8783,-4.1043,-10.8522
1765,1.916,-4.7517,-10.2698,-11.2696,-4.0348,-11.1304
1770,1.8777,-4.9433,-10.3848,-12.5217,-4.313,-11.3391
1775,1.8394,-4.9433,-10.3848,-13.6348,-4.5913,-11.4087
1780,1.8011,-4.9816,-10.2315,-14.2609,-4.8696,-11.4087
1785,1.8394,-5.02,-10.3082,-14.4696,-5.3565,-11.6174
1790,1.916,-5.1349,-10.2698,-14.3304,-5.7043,-11.8261
1795,1.7627,-5.1732,-10.2698,-13.9826,-6.1217,-11.8261
1800,1.7627,-5.0966,-10.4998,-13.3565,-6.2609,-12.1043
1805,1.8394,-5.0583,-10.3465,-12.6609,-6.3304,-12.1739
1810,1.9543,-4.9816,-10.4231,-11.687,-6.4,-12.5217
1815,1.7627,-5.02,-10.3082,-11.0609,-6.3304,-12.8696
1820,1.916,-4.9433,-10.2698,-10.2261,-6.4,-13.4957
1825,1.8777,-4.8284,-10.3465,-9.7391,-6.1913,-14.1217
1830,1.8777,-4.79,-10.3082,-9.4609,-5.8435,-14.7478
1835,1.8394,-4.5984,-10.3082,-9.1826,-5.4957,-15.4435
1840,1.9927,-4.6368,-10.3082,-8.6261,-5.2174,-16.2783
1845,1.9543,-4.5601,-10.2698,-8.1391,-4.8696,-16.8348
1850,2.031,-4.6751,-10.0782,-7.513,-4.4522,-17.8087
1855,2.1076,-4.5601,-9.925,-7.3043,-3.9652,-18.7826
1860,2.1076,-4.7134,-9.6567,-7.2348,-3.4783,-19.8261
1865,2.1843,-4.5218,-9.695,-7.1652,-2.9913,-20.7304
1870,2.2609,-4.6751,-9.5034,-7.513,-2.5043,-21.5652
1875,2.2609,-4.6751,-9.5034,-7.7913,-2.3652,-22.2609
1880,2.1843,-4.5218,-9.3118,-7.7217,-2.4348,-22.9565
1885,2.0693,-4.4835,-9.1586,-7.4435,-2.2957,-23.0957
1890,2.0693,-4.3685,-9.0819,-7.1652,-2.0174,-22.9565
1895,1.9543,-4.1386,-8.9286,-7.3043,-1.5304,-22.2609
1900,1.9543,-4.1386,-8.852,-7.4435,-0.6957,-21.4261
1905,2.0693,-4.1386,-8.8137,-8.0,0.2087,-20.313
1910,1.916,-3.9853,-8.852,-8.6957,1.0435,-19.2
1915,1.916,-3.9853,-8.737,-9.4609,1.8783,-18.0174
1920,1.7627,-4.0236,-8.737,-10.6435,2.5043,-17.113
1925,1.7627,-4.1386,-8.5071,-11.9652,2.9913,-16.2087
1930,1.5711,-3.9853,-8.5071,-13.2174,3.3391,-15.3739
1935,1.5328,-4.062,-8.6604,-14.6783,3.687,-14.4
1940,1.6861,-4.1386,-8.6987,-15.7217,3.8261,-13.7043
1945,1.6095,-4.1386,-8.6604,-16.6957,3.9652,-12.7304
1950,1.6478,-4.1769,-8.8903,-17.0435,4.1043,-12.0348
1955,1.6861,-4.1003,-8.9286,-17.6696,4.3826,-11.4087
1960,1.7627,-4.0236,-9.0819,-18.2261,4.6609,-10.9913
1965,1.8777,-4.062,-9.0053,-18.7826,4.8696,-10.6435
1970,1.8011,-3.9087,-9.1202,-19.1304,4.8696,-10.4348
1975,1.8777,-3.9853,-9.1586,-19.2696,4.7304,-10.1565
1980,1.8011,-4.062,-9.3118,-19.5478,4.5217,-10.2957
1985,1.8394,-4.062,-9.3885,-19.687,4.1043,-10.2261
1990,1.8777,-3.9853,-9.5418,-19.687,3.8261,-10.3652
1995,1.6478,-3.947,-9.3885,-19.6174,3.7565,-9.8783
2000,1.6095,-3.947,-9.5034,-19.2,3.9652,-9.3913
2005,1.6095,-3.832,-9.5034,-18.8522,4.1043,-8.6261
2010,1.5328,-3.8704,-9.7334,-18.5043,4.6609,-7.8609
2015,1.4562,-3.7171,-9.6567,-18.087,5.2174,-6.5391
2020,1.6095,-3.7554,-9.7717,-17.6696,6.1217,-5.3565
2025,1.6478,-3.8704,-9.6567,-17.2522,7.0957,-4.2435
2030,1.7627,-3.947,-9.9633,-16.5565,7.7913,-3.7565
2035,1.8011,-4.1003,-9.81,-15.5826,8.1391,-3.4783
2040,1.8394,-4.0236,-9.7717,-14.8174,7.7217,-4.2435
2045,1.9543,-4.1769,-10.0782,-14.3304,7.1652,-5.4261
2050,1.9927,-4.1769,-9.925,-14.5391,6.9565,-6.887
2055,1.9543,-4.2536,-9.9633,-15.0261,6.6087,-8.0696
2060,1.6478,-4.2152,-10.0016,-15.2348,5.913,-9.6696
2065,1.6095,-4.2919,-9.5801,-14.7478,4.8,-10.4348
2070,1.4945,-4.1769,-9.6184,-13.5652,3.2696,-11.7565
2075,1.3029,-4.1769,-9.5418,-11.8957,1.9478,-12.5217
2080,1.2263,-4.4452,-9.4651,-9.7391,0.1391,-13.3565
2085,1.0346,-4.2919,-9.3885,-6.6087,-2.0174,-13.5652
2090,0.9197,-4.3685,-9.3885,-3.5478,-3.687,-13.913
2095,0.8814,-4.4452,-9.2352,-0.4174,-5.3565,-13.5652
2100,0.5748,-4.3685,-9.1202,2.2957,-6.6087,-13.3565
2105,0.7281,-4.7134,-8.967,4.8,-7.8609,-12.5913
2110,0.8047,-4.1769,-9.695,6.5391,-8.7652,-12.1739
2115,0.5748,-4.3685,-9.4651,7.9304,-9.6696,-11.3391
2120,1.1496,-4.2152,-8.6987,8.9043,-10.5043,-10.8522
2125,0.843,-4.3302,-8.6604,9.5304,-11.2,-10.3652
2130,1.0346,-4.2919,-9.0819,9.6696,-11.3391,-10.0174
2135,1.073,-4.0236,-9.0819,9.3217,-11.2,-9.3217
2140,1.1879,-4.1003,-9.3118,8.2783,-10.9913,-8.9043
2145,1.3412,-4.1003,-9.1586,6.5391,-11.2696,-8.2783
2150,1.4562,-4.0236,-9.0819,4.5913,-11.4783,-8.0696
2155,1.5328,-3.9087,-8.967,3.0609,-11.2,-7.4435
2160,1.7627,-3.7554,-8.737,0.7652,-11.4783,-6.9565
2165,1.7627,-3.947,-8.6221,-1.5304,-12.6609,-6.3304
2170,1.7244,-4.0236,-8.737,-2.2957,-13.1478,-6.2609
2175,1.5711,-3.8704,-8.4305,-3.1304,-13.7043,-5.913
2180,1.6861,-3.7937,-8.5071,-3.9652,-14.4,-5.8435
2185,1.8394,-3.7554,-8.5454,-5.4957,-14.6783,-5.287
2190,1.8011,-3.8704,-8.5454,-6.8174,-14.9565,-4.8696
2195,1.7244,-3.8704,-8.5454,-8.3478,-14.9565,-4.0348
2200,1.8394,-3.9853,-8.5454,-9.4609,-14.8174,-3.6174
2205,1.7627,-3.9853,-8.6987,-9.8783,-14.4696,-2.9217
2210,1.7244,-4.2152,-8.8137,-10.3652,-14.1913,-2.7826
2215,1.8394,-4.4068,-8.852,-10.2261,-13.6348,-2.5043
2220,1.6861,-4.4068,-9.0053,-9.5304,-12.8696,-2.4348
2225,1.7244,-4.4835,-9.0436,-8.9043,-12.3826,-2.4348
2230,1.8011,-4.5601,-9.1202,-7.6522,-11.5478,-2.713
2235,1.7244,-4.6368,-9.2735,-6.1217,-10.9913,-2.5739
2240,1.7244,-4.6751,-9.2735,-4.8696,-10.6435,-2.8522
2245,1.8394,-4.8284,-9.3118,-3.2,-10.3652,-2.6435
2250,1.8011,-4.9816,-9.2352,-1.3913,-10.2957,-2.713
2255,1.7244,-4.9816,-9.3885,0.6957,-10.087,-2.2261
2260,1.8011,-4.905,-9.4268,2.6435,-10.2261,-2.087
2265,1.8394,-4.8667,-9.5034,4.1739,-10.0174,-1.3913
2270,1.5328,-4.7517,-9.4268,6.4,-9.8087,-0.7652
2275,1.6095,-4.7517,-9.4268,9.0435,-9.8783,0.3478
2280,1.5711,-4.8284,-9.4651,11.687,-9.7391,1.113
2285,1.4562,-4.8284,-9.3885,14.6783,-9.6696,2.1565
2290,1.4562,-4.8284,-9.3885,17.0435,-9.8783,2.9217
2295,1.3795,-4.8667,-9.3885,19.3391,-9.6696,3.7565
2300,1.3029,-5.02,-9.4268,21.5652,-9.3913,4.2435
2305,1.1879,-5.02,-9.3118,23.8609,-8.9739,5.0087
2310,1.1879,-5.0583,-9.2352,26.0174,-8.8348,5.287
2315,1.0346,-5.0966,-9.2735,28.2435,-8.6957,5.7043
2320,0.9963,-4.9816,-9.1586,29.3565,-9.0435,5.913
2325,0.9963,-5.1349,-9.0436,30.6783,-9.113,6.6783
2330,1.0346,-5.0583,-9.1969,32.8348,-9.0435,7.2348
2335,0.958,-5.0583,-9.1969,34.5739,-8.9043,7.7913
2340,0.958,-4.9433,-9.1969,35.3391,-8.6957,8.3478
2345,0.9197,-4.9433,-9.1202,36.0348,-8.2783,8.8348
2350,0.8814,-4.8667,-9.1202,36.8,-8.4174,9.4609
2355,0.958,-4.79,-9.0436,37.0087,-8.6957,9.8087
2360,0.843,-4.7517,-8.967,36.5913,-9.0435,9.7391
2365,0.958,-4.6751,-9.3118,36.1043,-9.2522,9.6
2370,0.8814,-4.6368,-9.1586,35.1304,-9.2522,9.113
2375,0.8814,-4.7517,-9.2352,34.8522,-9.2522,9.3217
2380,0.9197,-4.9433,-9.0819,35.2696,-8.8348,9.3913
2385,0.9197,-4.8667,-9.1969,36.1043,-8.5565,9.6
2390,0.9197,-4.8284,-9.2352,36.6609,-8.1391,9.3913
2395,0.9963,-4.8284,-9.3885,36.9391,-7.7913,9.4609
2400,1.1113,-4.8284,-9.2735,37.2174,-6.9565,9.2522
2405,1.2263,-5.02,-9.4651,37.4957,-5.9826,9.1826
2410,1.1496,-4.9433,-9.5034,37.3565,-5.0783,8.8348
2415,1.0346,-4.6368,-9.5034,35.687,-4.8696,8.487
2420,1.1113,-4.9816,-9.3885,33.3217,-4.6609,7.5826
2425,1.073,-4.8667,-9.2735,31.7913,-4.6609,7.2348
2430,1.0346,-5.0966,-9.1969,31.5826,-3.9652,6.887
2435,1.1496,-5.0583,-9.0819,31.7913,-3.4087,6.887
2440,1.1496,-5.0583,-9.3118,31.513,-3.2696,6.6783
2445,1.1879,-5.02,-9.3502,30.9565,-3.3391,6.4
2450,1.073,-5.02,-9.3885,28.1739,-3.8261,5.7739
2455,1.2263,-5.0966,-9.2735,25.9478,-4.4522,5.3565
2460,1.1496,-5.2116,-9.2352,24.7652,-5.0087,4.8696
2465,1.3029,-5.2499,-9.3885,23.7217,-5.6348,4.5217
2470,1.1113,-5.4415,-9.3502,22.6783,-6.1913,4.2435
2475,1.1496,-5.4798,-9.5418,22.3304,-6.3304,4.1739
2480,1.073,-5.4415,-9.4651,21.287,-6.5391,4.1043
2485,1.2263,-5.748,-9.5801,21.0087,-6.1217,4.4522
2490,1.2263,-5.6331,-9.695,21.0783,-5.2174,4.9391
2495,1.2646,-5.8247,-9.6184,21.6348,-3.8957,5.4957
2500,1.2646,-5.7864,-9.5801,22.2609,-2.2261,6.1217
2505,1.3795,-5.9396,-9.5418,23.1652,-0.4174,6.8174
2510,1.3412,-5.9396,-9.7334,24.6261,1.4609,7.3739
2515,1.4945,-6.0163,-9.5418,26.5043,3.2696,8.0
2520,1.4562,-5.978,-9.5418,28.4522,4.9391,8.2087
2525,1.3412,-5.863,-9.5034,30.7478,6.4696,8.3478
2530,1.4179,-5.863,-9.3885,33.4609,7.6522,8.2087
2535,1.4562,-6.0163,-9.3502,35.8261,8.4174,8.0
2540,1.3029,-5.7864,-9.3118,37.913,8.8348,7.6522
2545,1.2646,-5.748,-9.2352,39.7217,8.9739,7.4435
2550,1.1879,-5.5948,-9.4268,41.113,8.9043,7.2348
2555,1.2263,-5.5564,-9.2352,42.2957,9.1826,7.4435
2560,1.073,-5.4415,-9.1202,43.0609,9.6696,7.7217
2565,1.073,-5.3265,-9.1202,43.3391,10.2957,8.0
2570,1.1113,-5.3265,-9.0819,43.0609,11.2696,8.1391
2575,0.9963,-5.3265,-9.1586,42.1565,12.1739,8.2783
2580,0.9963,-5.2499,-9.0053,39.8609,13.3565,8.4174
2585,0.958,-5.2882,-8.737,37.5652,13.9826,8.2783
2590,1.0346,-5.3265,-8.7754,34.9217,14.3304,8.2087
2595,1.1113,-5.3648,-8.8903,32.4174,14.6087,7.7913
2600,1.1496,-5.4415,-8.7754,29.8435,15.0261,7.2348
2605,1.1879,-5.2882,-8.5454,27.2696,15.6522,6.8174
2610,1.2646,-5.4798,-8.6221,24.487,16.487,6.4696
2615,1.3795,-5.4415,-8.6987,22.1913,17.2522,5.913
2620,1.3795,-5.4415,-8.6604,19.8957,18.2957,5.5652
2625,1.5328,-5.4415,-8.7754,17.7391,19.4783,5.0087
2630,1.7627,-5.5948,-8.5071,15.6522,20.9391,4.5913
2635,1.6478,-5.5181,-8.5071,14.4,22.1913,3.9652
2640,1.6861,-5.8247,-8.4688,13.287,23.513,3.687
2645,1.6095,-5.6331,-8.3538,12.8,24.6957,3.4783
2650,1.8011,-5.863,-8.4688,12.5217,25.9478,3.1304
2655,1.6478,-5.7864,-8.3921,12.5913,27.2,2.7826
2660,1.6861,-5.7864,-8.4305,13.0087,28.3826,2.5043
2665,1.6861,-5.7864,-8.3155,13.8435,29.6348,2.2957
2670,1.4945,-5.7864,-8.3155,14.887,30.6087,2.3652
2675,1.4562,-5.9013,-8.2389,16.4174,31.7913,2.6435
2680,1.2646,-5.978,-8.2772,18.3652,33.3217,3.1304
2685,1.4179,-6.0929,-8.2772,20.2435,34.6435,3.687
2690,1.4179,-6.1313,-8.0856,21.913,35.9652,4.2435
2695,1.2263,-6.0163,-8.0856,23.6522,37.3565,4.5217
2700,1.3795,-6.0546,-8.1622,25.3913,38.4696,5.0087
2705,1.3412,-6.0546,-8.0089,26.9217,39.4435,5.2174
2710,1.3795,-5.9013,-7.894,28.3826,40.1391,5.3565
2715,1.5328,-5.978,-7.9706,29.7043,40.5565,5.1478
2720,1.5711,-5.9396,-7.8173,30.5391,40.7652,5.0783
2725,1.5711,-5.9013,-7.7024,31.0957,40.9043,4.5913
2730,1.4945,-5.6331,-7.6641,31.4435,40.6261,4.4522
2735,1.5711,-5.5564,-7.5108,31.3739,40.1391,4.0348
2740,1.5328,-5.6331,-7.3958,31.1652,39.3739,3.8957
2745,1.5328,-5.6331,-7.3192,30.8174,38.4,3.5478
2750,1.4179,-5.5181,-7.0893,30.4,37.2174,3.1304
2755,1.3795,-5.5564,-7.0893,30.2609,35.8261,2.713
2760,1.2646,-5.4798,-7.0126,29.9826,34.2261,2.6435
2765,1.1496,-5.5181,-6.7827,29.8435,32.6261,2.3652
2770,1.1113,-5.4798,-6.7061,29.8435,30.9565,2.4348
2775,1.0346,-5.4032,-6.7061,29.8435,29.5652,2.4348
2780,1.0346,-5.5181,-6.6677,29.6348,28.313,2.713
2785,1.0346,-5.4032,-6.7827,29.3565,27.3391,2.9217
2790,1.0346,-5.3648,-6.6294,29.2174,26.6435,3.2696
2795,0.9197,-5.2116,-6.6677,29.0783,26.3652,3.3391
2800,0.958,-5.1732,-6.8593,28.6609,26.1565,3.6174
2805,0.9197,-5.0966,-6.6677,28.1043,26.1565,3.5478
2810,0.9963,-5.0583,-6.821,27.3391,26.2261,3.6174
2815,0.958,-4.905,-6.7061,26.2261,26.2957,3.3391
2820,0.8047,-4.9816,-6.5911,24.8348,26.4348,3.2696
2825,0.8047,-4.9816,-6.7061,23.0957,26.2957,2.5739
2830,0.8047,-5.02,-6.5528,20.6609,25.9478,2.2957
2835,0.8814,-5.02,-6.6294,18.8522,25.6,1.6
2840,0.9963,-5.0966,-6.5528,17.113,25.1826,1.2522
2845,1.1496,-5.2882,-6.5528,15.7913,24.6957,0.4174
2850,1.2263,-5.4032,-6.4378,14.7478,24.2783,-0.2087
2855,1.3029,-5.4415,-6.4761,14.0522,23.7217,-0.8348
2860,1.4179,-5.5564,-6.3229,13.5652,23.3043,-1.2522
2865,1.4945,-5.6331,-6.3612,13.4957,22.6783,-1.8783
2870,1.6861,-5.8247,-6.3612,13.5652,21.7043,-2.2957
2875,1.6861,-5.7864,-6.3229,13.913,20.4522,-2.9217
2880,1.7627,-5.8247,-6.3229,14.4,18.9913,-3.0609
2885,1.8777,-5.863,-6.6294,14.9565,17.8783,-3.4087
2890,1.8777,-5.863,-6.5528,15.4435,16.5565,-3.1304
2895,1.8394,-5.7864,-6.7061,15.9304,15.7217,-3.0609
2900,1.916,-5.748,-6.7827,16.4174,15.2348,-2.4348
2905,1.7627,-5.6714,-6.8593,16.9739,15.0261,-2.0174
2910,1.8394,-5.6331,-6.936,17.1826,15.1652,-1.113
2915,1.8777,-5.7864,-6.7444,17.4609,15.4435,-0.4174
2920,1.7627,-5.748,-6.7061,17.8783,15.7217,0.6261
2925,1.7244,-5.748,-6.6677,18.2957,16.0,1.5304
2930,1.6095,-5.7097,-6.6677,19.1304,16.3478,2.5739
2935,1.6861,-5.9013,-6.5528,20.0348,16.5565,3.0609
2940,1.6095,-5.978,-6.5145,21.2174,16.6957,3.6174
2945,1.7627,-6.1313,-6.5911,22.5391,16.6261,4.0348
2950,1.6095,-6.2079,-6.3995,24.1391,16.4174,4.5217
2955,1.6095,-6.2845,-6.3612,25.7391,16.0696,4.5913
2960,1.4945,-6.1696,-6.4378,27.3391,15.6522,5.0087
2965,1.6095,-6.3612,-6.2462,29.1478,15.2348,5.2174
2970,1.4945,-6.2845,-6.3229,30.6783,14.9565,5.7739
2975,1.5328,-6.3229,-6.3229,32.2783,14.6087,5.9826
2980,1.6478,-6.3995,-6.2079,34.0174,14.1913,6.5391
2985,1.7244,-6.5145,-5.978,35.4783,13.7043,6.4
2990,1.6861,-6.3995,-5.863,36.8,13.2174,6.4
2995,1.8011,-6.5911,-5.9013,38.2609,12.5913,6.1217
