timestamp,accX,accY,accZ,gyroX,gyroY,gyroZ
0,-1.0346,-8.5838,-4.6751,59.3391,3.2,-7.5826
5,-1.2646,-8.6221,-4.5601,59.8261,3.2696,-8.1391
10,-1.1879,-8.7754,-4.4068,60.3826,3.2,-8.4174
15,-1.3412,-8.852,-4.5984,61.287,2.8522,-8.6261
20,-1.4179,-8.9286,-4.4068,61.9826,2.2957,-8.6261
25,-1.3412,-9.0819,-4.5601,62.6087,1.3913,-8.487
30,-1.4562,-9.0436,-4.4452,63.4435,0.5565,-8.1391
35,-1.4179,-9.2735,-4.4452,64.0,-0.6957,-7.5826
40,-1.4945,-9.0053,-4.2152,64.3478,-1.8783,-7.1652
45,-1.3412,-9.0819,-4.2152,64.6261,-3.2,-6.9565
50,-1.1879,-9.0053,-4.062,64.9043,-4.3826,-6.7478
55,-1.2263,-8.967,-4.062,65.1826,-5.2174,-6.4696
60,-1.073,-9.0436,-3.9087,65.5304,-5.7739,-6.5391
65,-0.958,-9.0819,-3.832,65.7391,-5.913,-6.887
70,-0.9963,-9.1586,-3.7171,65.9478,-5.3565,-7.513
75,-0.9963,-9.2735,-3.832,66.0174,-4.9391,-8.1391
80,-0.9963,-9.4268,-3.7554,65.6696,-4.313,-8.6261
85,-1.0346,-9.6184,-3.7554,65.3217,-3.7565,-8.6261
90,-0.958,-9.7717,-3.4871,65.113,-3.0609,-8.487
95,-1.2263,-9.7334,-3.5638,64.9739,-2.4348,-8.5565
100,-1.1879,-9.81,-3.4105,65.113,-2.0174,-8.5565
105,-1.2646,-9.81,-3.3722,65.8087,-2.0174,-8.4174
110,-1.3029,-9.8483,-3.2955,66.713,-2.0174,-8.2087
115,-1.2263,-9.925,-3.1423,67.7565,-2.2957,-7.5826
120,-1.3412,-9.8866,-3.1806,68.9391,-2.5043,-7.3739
125,-1.3412,-9.9633,-3.1806,70.0522,-2.9913,-7.2348
130,-1.2263,-10.0782,-3.0656,70.8174,-3.4783,-7.3043
135,-1.3412,-10.1166,-3.1423,71.3043,-3.6174,-7.3739
140,-1.1879,-10.0399,-3.2189,71.3043,-3.687,-7.4435
145,-1.073,-10.3082,-3.3339,71.2348,-3.2,-7.7217
150,-1.1113,-10.1932,-3.0656,71.1652,-2.5043,-8.2087
155,-1.0346,-10.1932,-2.9507,71.1652,-1.7391,-8.5565
160,-0.9963,-10.4231,-2.874,71.2348,-0.9739,-8.9739
165,-1.2263,-10.4231,-2.8357,71.3739,-0.2783,-9.2522
170,-1.1879,-10.2698,-2.8357,71.5826,0.4174,-9.6
175,-1.1879,-10.4231,-2.7974,71.8609,0.7652,-9.7391
180,-1.1496,-10.5381,-2.9507,72.2783,0.9043,-9.6
185,-1.1879,-10.4998,-2.7207,72.6261,0.6957,-9.3913
190,-1.2263,-10.5764,-2.7974,72.7652,0.487,-9.2522
195,-1.3412,-10.6914,-3.0656,72.6957,0.1391,-9.0435
200,-1.3412,-10.8446,-2.9507,72.6261,-0.2783,-8.8348
205,-1.3795,-10.8063,-3.0273,72.4174,-0.6261,-8.8348
210,-1.3029,-10.9979,-2.989,72.0,-0.9739,-8.9043
215,-1.5328,-10.9596,-3.1039,71.5826,-1.4609,-8.6957
220,-1.4562,-11.1129,-3.0656,71.1652,-1.8087,-8.5565
225,-1.3412,-11.0363,-2.7974,70.9565,-2.2261,-8.3478
230,-1.4562,-11.0363,-2.6824,70.8174,-2.3652,-7.9304
235,-1.3795,-10.883,-2.7974,70.887,-2.7826,-7.7217
240,-1.3029,-10.6914,-2.6441,70.887,-2.8522,-7.5826
245,-1.1879,-10.768,-2.6441,70.887,-2.9913,-7.3739
250,-1.1496,-10.768,-2.7591,70.6087,-2.9913,-7.1652
255,-1.2263,-10.6914,-2.6824,70.6087,-3.0609,-7.0957
260,-1.1113,-10.768,-2.4525,70.6087,-3.1304,-7.2348
265,-1.1496,-10.7297,-2.5291,70.6087,-3.0609,-7.3739
270,-1.1879,-10.6147,-2.6058,70.3304,-3.2696,-7.6522
275,-1.1496,-10.7297,-2.5675,69.8435,-3.4783,-7.8609
280,-1.1113,-10.653,-2.6824,69.2174,-3.6174,-7.9304
285,-1.1113,-10.6914,-2.4142,68.6609,-3.5478,-8.0
290,-1.1113,-10.5764,-2.4525,68.2435,-3.5478,-7.9304
295,-0.8814,-10.5381,-2.1459,68.1043,-3.4783,-7.5826
300,-0.7664,-10.6914,-1.7627,68.1043,-3.4087,-7.3043
305,-0.8814,-10.8446,-1.7244,69.2174,-2.9913,-7.3739
310,-0.958,-10.9979,-1.916,71.7913,-2.1565,-7.6522
315,-1.1113,-11.1129,-1.8777,74.4348,-1.0435,-7.7217
320,-1.2263,-11.3045,-1.8394,76.1739,0.6957,-7.8609
325,-1.3412,-11.3045,-1.8777,77.5652,2.6435,-7.5826
330,-1.2263,-11.8027,-1.5711,79.1652,4.0348,-7.3043
335,-1.3029,-12.3391,-1.3029,81.3217,4.4522,-7.2348
340,-1.4179,-12.799,-0.958,83.7565,4.5217,-7.6522
345,-1.3412,-13.1822,-1.0346,85.913,4.5913,-8.0696
350,-1.4179,-13.872,-1.4179,87.4435,4.8,-8.4174
355,-1.6478,-14.2168,-1.9927,87.513,5.1478,-8.6261
360,-1.8777,-14.4084,-2.7591,85.4261,5.2174,-8.0
365,-1.8011,-14.715,-3.6021,79.5826,5.0783,-6.1913
370,-1.6861,-14.6384,-4.0236,68.9391,4.8,-4.1043
375,-1.6095,-14.6384,-4.4452,54.4,4.1043,-2.3652
380,-1.3795,-14.715,-4.8284,39.4435,3.8261,-0.9739
385,-1.3029,-14.4084,-4.5984,26.713,4.1739,-0.5565
390,-1.2646,-14.2168,-4.1386,18.1565,5.2174,-1.0435
395,-1.1113,-14.0252,-3.4105,13.9826,6.8174,-1.8783
400,-1.1113,-13.642,-2.4142,13.5652,8.5565,-2.7826
405,-0.958,-13.1822,-1.5711,15.513,10.3652,-3.4783
410,-0.9963,-12.5307,-1.0346,18.4348,11.8261,-4.1739
415,-0.7664,-12.0709,-0.5748,21.0783,13.0087,-4.5913
420,-0.6898,-11.6877,-0.4215,22.887,13.5652,-4.7304
425,-0.7281,-11.1129,-0.0766,23.5826,13.8435,-4.5913
430,-0.7281,-10.5764,-0.2299,23.3043,13.6348,-4.313
435,-0.4982,-10.0782,-0.0766,22.4,12.9391,-4.0348
440,-0.6131,-9.4268,-0.3449,21.0783,11.9652,-3.687
445,-0.6131,-8.737,-0.3832,19.7565,10.8522,-3.2696
450,-0.5365,-8.2389,-0.3832,18.8522,9.7391,-2.7826
455,-0.5365,-7.7024,-0.4982,18.1565,8.8348,-2.087
460,-0.5748,-7.3192,-0.1916,18.1565,8.1391,-1.1826
465,-0.4215,-7.1276,0.0,18.6435,7.7913,-0.2087
470,-0.4215,-6.8977,0.0766,19.3391,7.7913,0.8348
475,-0.3832,-7.0893,0.2299,20.313,7.8609,1.8783
480,-0.3832,-7.1659,0.3832,21.1478,8.1391,2.7826
485,-0.3066,-7.3192,0.6898,21.287,8.2783,3.4087
490,-0.2682,-7.7024,0.9197,20.5217,8.4174,3.7565
495,-0.2682,-7.9323,0.958,18.9913,8.1391,3.8261
500,-0.1916,-8.3155,1.3795,16.6261,7.7217,3.687
505,-0.3066,-8.8903,1.7244,14.2609,6.9565,3.0609
510,-0.1916,-9.2735,1.9927,12.1739,6.1217,2.2957
515,-0.2682,-9.6184,2.1076,10.713,5.0783,1.1826
520,-0.3449,-10.0016,2.1076,9.9478,3.8957,-0.0696
525,-0.3832,-10.1932,2.1459,9.7391,2.8522,-1.2522
530,-0.4215,-10.5381,2.1459,10.0174,1.8087,-2.4348
535,-0.4982,-10.6147,2.1459,10.5043,1.1826,-3.4783
540,-0.5365,-10.9979,1.6095,11.4783,0.9739,-4.313
545,-0.4598,-11.1512,1.6095,12.9391,1.113,-4.9391
550,-0.6514,-11.3428,1.5711,14.7478,1.4609,-5.4957
555,-0.6514,-11.3811,1.2263,16.9043,1.7391,-5.9826
560,-0.8047,-11.4578,1.073,19.2,2.0174,-6.6087
565,-0.843,-11.4195,0.843,21.4261,2.5739,-7.0261
570,-0.958,-11.3811,0.3832,23.3739,3.0609,-7.4435
575,-1.3029,-11.1129,0.115,25.1826,3.5478,-7.7913
580,-1.4179,-11.0363,0.115,26.5043,3.7565,-8.2087
585,-1.5328,-10.9213,-0.0383,27.3391,3.9652,-8.2783
590,-1.5711,-10.8446,-0.2682,27.687,4.0348,-8.2087
595,-1.6478,-10.653,-0.2299,27.687,4.0348,-8.1391
600,-1.7244,-10.4998,-0.6131,27.3391,3.9652,-8.0
605,-1.8011,-10.3848,-0.2682,26.7826,3.7565,-7.7217
610,-1.5711,-10.1166,-0.3066,26.2261,3.4783,-7.5826
615,-1.5711,-10.0399,-0.3449,25.6,2.9913,-7.6522
620,-1.6095,-9.8483,-0.3066,24.6261,2.4348,-7.6522
625,-1.5328,-9.7717,-0.4982,23.5826,1.6,-7.7217
630,-1.3795,-9.695,-0.2299,22.3304,0.7652,-7.513
635,-1.1879,-9.7334,-0.115,20.7304,0.0,-7.1652
640,-1.1113,-9.5801,-0.1533,18.9913,-0.6957,-6.9565
645,-0.958,-9.6567,-0.115,17.3913,-1.3217,-6.5391
650,-0.9197,-9.5034,0.0766,15.8609,-1.7391,-6.1217
655,-0.8047,-9.5801,0.1533,14.5391,-1.8783,-5.7043
660,-0.5748,-9.5034,0.115,13.4261,-2.0174,-5.4261
665,-0.4598,-9.695,0.4215,12.6609,-2.1565,-5.3565
670,-0.4215,-9.81,0.3832,12.4522,-2.087,-5.287
675,-0.4982,-9.81,0.4982,12.5913,-2.4348,-5.2174
680,-0.6131,-9.81,0.3832,12.9391,-3.0609,-5.4261
685,-0.6898,-9.8483,0.4215,13.0783,-3.687,-5.7043
690,-0.6898,-10.0399,0.2299,13.2174,-4.2435,-6.1217
695,-0.7281,-10.0016,0.2299,13.1478,-4.8,-6.3304
700,-0.5748,-10.0782,0.2299,13.2174,-5.287,-6.4696
705,-0.5748,-10.2315,0.5365,13.1478,-5.287,-6.4
710,-0.5365,-10.3082,0.6131,13.3565,-4.8696,-6.5391
715,-0.3832,-10.1549,0.6514,13.4957,-4.313,-6.6087
720,-0.3832,-10.3082,0.6131,13.5652,-3.2696,-6.8174
725,-0.2299,-10.3465,0.6514,13.7739,-2.2261,-6.9565
730,-0.1916,-10.3465,0.6131,14.0522,-1.0435,-7.0261
735,-0.0383,-10.3848,0.6514,14.4,0.4174,-7.3043
740,0.0383,-10.4231,0.6898,15.0957,1.9478,-7.513
745,-0.0383,-10.4614,0.8047,15.7913,3.4087,-7.7217
750,0.0,-10.4998,0.6514,16.6957,4.5913,-8.0
755,0.0,-10.4998,0.4982,17.7391,5.7043,-8.4174
760,0.0,-10.4998,0.6898,18.713,6.5391,-8.9739
765,-0.0383,-10.3848,0.6514,19.4783,7.1652,-9.6696
770,-0.0766,-10.3082,0.6131,20.313,7.7217,-10.6435
775,-0.1533,-10.4231,0.5365,21.1478,8.3478,-11.5478
780,-0.3449,-10.3848,0.5365,21.913,8.9043,-12.313
785,-0.4598,-10.3848,0.6131,22.5391,9.7391,-12.9391
790,-0.3832,-10.4998,0.4982,23.0957,10.4348,-13.3565
795,-0.4215,-10.3082,0.6514,23.513,10.9913,-13.4957
800,-0.4982,-10.2315,0.6514,23.513,11.4783,-13.4261
805,-0.6131,-10.1166,0.6898,23.3739,11.7565,-13.287
810,-0.5748,-10.1166,0.7664,23.0261,11.8957,-12.9391
815,-0.4982,-10.0782,0.7281,22.6087,11.7565,-12.3826
820,-0.6131,-10.0016,0.843,22.1217,11.687,-11.7565
825,-0.5748,-10.1166,0.8814,21.7739,11.687,-11.0609
830,-0.4982,-10.0782,1.0346,21.4261,11.5478,-10.1565
835,-0.5748,-10.0016,0.9963,21.2174,11.2696,-9.3217
840,-0.4982,-10.0782,1.1496,21.0087,10.8522,-8.5565
845,-0.4598,-10.0016,1.3412,20.8696,10.2957,-7.7217
850,-0.4982,-10.0782,1.3412,20.7304,9.6696,-6.887
855,-0.4215,-10.1166,1.2263,20.5913,8.9739,-6.4
860,-0.4215,-10.0399,1.2263,20.4522,8.2087,-5.8435
865,-0.3449,-10.0016,1.1879,20.1043,7.6522,-5.4957
870,-0.3066,-10.0782,1.0346,19.687,7.3739,-5.287
875,-0.1916,-10.1932,1.2646,19.4087,7.3043,-5.2174
880,-0.2299,-10.0399,1.1879,18.9913,7.3043,-5.2174
885,-0.0766,-10.2698,1.2263,18.9217,7.7217,-5.0783
890,0.0,-10.1166,1.3795,18.9217,8.1391,-5.4261
895,-0.0383,-10.0782,1.3029,18.8522,8.5565,-5.4957
900,-0.0383,-10.1549,1.2646,18.5043,8.8348,-5.6348
905,0.0,-10.1549,1.3029,18.087,9.113,-5.9826
910,0.1533,-10.1166,1.2263,17.5304,9.3913,-6.2609
915,0.0,-10.0016,1.3412,16.9043,9.7391,-6.4
920,0.0766,-10.0399,1.2263,16.1391,10.087,-6.6783
925,0.0,-9.9633,1.2646,15.3739,10.5043,-6.887
930,0.0,-9.9633,1.4562,14.2609,10.7826,-7.0261
935,0.0383,-9.925,1.4945,13.2174,10.9217,-7.0261
940,0.0383,-10.0399,1.5328,12.3826,10.9217,-6.9565
945,0.0766,-10.0016,1.5328,11.5478,10.713,-6.7478
950,0.0,-10.0016,1.4945,10.713,10.3652,-6.7478
955,0.0,-10.0399,1.6095,10.1565,10.0174,-6.7478
960,-0.115,-10.1166,1.5328,9.4609,9.4609,-6.6783
965,-0.115,-10.0016,1.4945,8.9043,8.9043,-6.5391
970,-0.0766,-9.9633,1.3795,8.487,8.2087,-6.4696
975,-0.3066,-9.9633,1.4179,8.1391,7.7913,-6.4
980,-0.3066,-10.0782,1.2646,7.7217,7.3043,-6.1913
985,-0.1916,-9.9633,1.4179,7.3739,7.0261,-6.1217
990,-0.3832,-9.8866,1.4179,7.1652,6.9565,-6.0522
995,-0.3449,-9.9633,1.4945,7.0261,6.887,-5.913
1000,-0.2682,-9.9633,1.5328,6.9565,7.1652,-5.7739
1005,-0.1916,-9.9633,1.2646,6.9565,7.513,-5.7043
1010,-0.0766,-9.925,1.1879,6.9565,7.9304,-5.4957
1015,-0.115,-9.8866,1.3412,6.8174,8.487,-5.287
1020,-0.0766,-9.925,1.2646,6.6087,8.8348,-5.0087
1025,-0.0766,-9.925,1.3029,6.2609,9.0435,-4.8
1030,-0.0383,-10.0399,1.3795,6.0522,9.1826,-4.5217
1035,0.0,-9.9633,1.3029,5.8435,9.113,-4.313
1040,-0.1533,-9.9633,1.3029,5.7043,9.0435,-4.2435
1045,-0.0383,-9.925,1.2646,5.4957,8.9043,-4.1043
1050,-0.115,-10.0016,1.1496,5.4261,8.9739,-4.0348
1055,-0.0383,-10.1549,1.1496,5.1478,8.9043,-3.9652
1060,-0.1533,-10.0399,1.2646,5.1478,8.9043,-3.8261
1065,-0.0766,-10.1549,1.2263,5.1478,8.8348,-3.8261
1070,-0.115,-10.0782,1.3412,5.0783,8.9043,-3.7565
1075,-0.1916,-10.0016,1.2646,5.1478,8.7652,-3.7565
1080,-0.2682,-10.0782,1.3412,5.0783,8.6957,-3.687
1085,-0.115,-10.1549,1.1496,4.6609,8.487,-3.6174
1090,-0.3066,-10.0782,1.2263,4.2435,8.3478,-3.687
1095,-0.3066,-10.1166,1.3029,4.1043,8.3478,-3.6174
1100,-0.2299,-9.925,1.2263,4.0348,8.2783,-3.5478
1105,-0.115,-10.0016,1.2263,3.8957,8.2087,-3.5478
1110,-0.2682,-10.0399,1.4562,3.687,8.3478,-3.5478
1115,-0.2682,-10.0399,1.4562,3.4783,8.2783,-3.2696
1120,-0.0766,-9.9633,1.3795,3.3391,8.2783,-3.1304
1125,-0.0766,-10.5764,1.2646,3.1304,8.2087,-2.7826
1130,-0.1533,-10.1549,1.3795,2.9217,8.2087,-2.5739
1135,-0.1916,-10.0782,1.4562,2.5043,8.0,-2.1565
1140,-0.0766,-10.2698,1.4562,2.2261,7.7217,-2.0174
1145,0.0,-10.1549,1.3029,2.087,7.513,-1.9478
1150,-0.2299,-10.1166,1.3412,1.9478,7.3043,-1.8087
1155,-0.0766,-10.1549,1.2646,1.7391,7.0261,-1.8087
1160,0.0,-10.1932,1.4179,1.4609,6.9565,-1.8087
1165,-0.0766,-10.1932,1.2263,1.1826,6.887,-1.7391
1170,-0.1533,-10.1549,1.3412,0.9043,7.0261,-1.8087
1175,-0.0766,-10.0399,1.3412,0.8348,7.0957,-1.6696
1180,-0.115,-10.0399,1.4179,0.7652,7.1652,-1.6
1185,-0.0383,-10.0782,1.4562,0.7652,7.0261,-1.6696
1190,0.0,-10.0016,1.4179,0.8348,6.9565,-1.6
1195,-0.115,-9.925,1.3795,0.7652,6.7478,-1.5304
1200,-0.0766,-9.9633,1.3795,0.6261,6.6783,-1.5304
1205,-0.1533,-9.9633,1.4562,0.5565,6.6087,-1.5304
1210,-0.2299,-9.925,1.4562,0.1391,6.4696,-1.3913
1215,-0.0383,-10.0016,1.4945,-0.1391,6.4696,-1.3913
1220,-0.1916,-10.0399,1.6478,-0.5565,6.4696,-1.2522
1225,-0.1533,-9.9633,1.4945,-0.9739,6.1913,-1.2522
1230,-0.115,-9.9633,1.4945,-1.3217,6.0522,-1.3217
1235,-0.2682,-9.925,1.4562,-1.6,5.913,-1.4609
1240,-0.2299,-9.8483,1.4945,-1.9478,5.8435,-1.5304
1245,-0.3066,-9.8866,1.6478,-2.2261,5.6348,-1.7391
1250,-0.2682,-9.8483,1.4562,-2.3652,5.5652,-1.7391
1255,-0.1916,-9.8483,1.4562,-2.5739,5.5652,-1.7391
1260,-0.3832,-9.81,1.3412,-2.7826,5.7043,-1.7391
1265,-0.3449,-9.81,1.3029,-2.9913,5.8435,-1.7391
1270,-0.0766,-9.8483,1.4562,-3.2,6.1217,-1.8783
1275,-0.2299,-9.695,1.4945,-3.5478,6.3304,-2.1565
1280,-0.115,-9.81,1.4562,-3.8957,6.4,-2.3652
1285,-0.1916,-9.81,1.6478,-4.313,6.4696,-2.5043
1290,-0.2682,-9.8866,1.8777,-4.5217,6.4696,-2.713
1295,-0.2299,-9.8866,1.8394,-4.8,6.5391,-2.713
1300,-0.1533,-10.0016,1.6861,-5.0087,6.3304,-2.6435
1305,-0.1916,-10.1549,1.8011,-5.287,5.8435,-2.2957
1310,-0.1916,-10.1549,1.4945,-5.7043,4.9391,-1.8783
1315,-0.3066,-10.2698,1.5711,-6.1913,3.9652,-1.2522
1320,-0.3066,-10.3082,1.5328,-6.7478,2.6435,-0.5565
1325,-0.4215,-10.0782,1.3795,-7.2348,1.3913,0.1391
1330,-0.3832,-10.1932,1.3029,-7.513,0.5565,0.6957
1335,-0.4982,-10.1166,1.073,-7.5826,-0.0696,1.3913
1340,-0.4598,-10.1166,0.9963,-7.1652,-0.487,2.087
1345,-0.5365,-10.0399,1.1879,-6.7478,-0.6261,2.5739
1350,-0.5365,-9.9633,1.3412,-5.9826,-0.8348,2.7826
1355,-0.4982,-10.0016,1.6095,-5.2174,-1.0435,2.7826
1360,-0.4215,-9.9633,1.5711,-4.3826,-1.113,2.3652
1365,-0.2299,-10.1549,1.7627,-3.687,-1.0435,1.6696
1370,-0.1533,-10.2698,1.6478,-3.3391,-0.6957,0.8348
1375,-0.2299,-10.1932,1.6478,-3.2696,0.0,-0.0696
1380,-0.1533,-10.4614,1.5711,-3.4783,0.8348,-1.113
1385,-0.1533,-10.4231,1.5711,-3.9652,1.6696,-2.2261
1390,-0.1533,-10.6147,1.5328,-4.6609,2.4348,-3.2
1395,-0.0766,-10.653,1.3795,-5.3565,3.1304,-4.313
1400,-0.1533,-10.653,1.3029,-5.7739,3.3391,-5.1478
1405,-0.1533,-10.6914,1.3029,-6.1217,3.4783,-5.6348
1410,0.0,-10.6147,1.1113,-6.1913,3.5478,-5.9826
1415,-0.0766,-10.2315,0.8814,-6.0522,3.4783,-5.913
1420,-0.2299,-10.2315,0.7281,-5.8435,3.4087,-5.6348
1425,-0.115,-10.1932,0.7664,-5.3565,3.2696,-5.2174
1430,-0.1916,-10.0016,0.7664,-4.7304,3.2,-4.5217
1435,-0.115,-9.925,0.843,-3.687,2.9913,-3.8261
1440,-0.115,-9.925,0.9197,-2.5739,2.713,-3.2696
1445,0.0,-9.81,1.073,-1.6,2.087,-2.8522
1450,-0.0766,-9.7717,1.3029,-0.6957,1.6,-2.2957
1455,-0.1533,-9.7717,1.3795,0.0696,1.2522,-2.0174
1460,-0.0766,-9.81,1.3412,0.5565,1.0435,-1.7391
1465,0.0,-9.7717,1.4179,0.8348,0.9043,-1.3913
1470,-0.0383,-9.7334,1.4179,0.7652,1.113,-1.2522
1475,0.0383,-9.81,1.2646,0.3478,1.4609,-0.8348
1480,0.0766,-9.81,1.3029,-0.0696,2.0174,-0.5565
1485,0.0,-9.8866,1.4179,-0.6261,2.5739,-0.487
1490,0.0766,-9.81,1.3795,-1.2522,2.9913,-0.487
1495,0.1533,-10.0016,1.2646,-1.8783,3.4087,-0.5565
1500,0.115,-10.0016,1.3412,-2.3652,3.6174,-0.6261
1505,0.2299,-10.1549,1.3412,-2.8522,3.6174,-0.9043
1510,0.1533,-10.1166,1.4562,-2.9913,3.6174,-1.4609
1515,0.1916,-10.1549,1.4179,-3.0609,3.687,-1.9478
1520,0.1916,-10.1932,1.2646,-2.9913,3.5478,-2.5043
1525,0.115,-10.1932,1.4562,-2.9217,3.6174,-2.8522
1530,0.3832,-10.3082,1.4179,-2.7826,3.4783,-3.0609
1535,0.1533,-10.1166,1.3795,-2.5739,3.2696,-3.4087
1540,0.1916,-10.1166,1.3029,-2.3652,3.0609,-3.4783
1545,0.1533,-10.1932,1.4179,-2.087,2.7826,-3.6174
1550,0.0766,-10.1549,1.4179,-1.7391,2.713,-3.687
1555,0.0766,-10.0782,1.5328,-1.3913,2.713,-3.687
1560,0.0,-10.0782,1.4179,-0.9739,2.8522,-3.7565
1565,-0.0383,-10.0016,1.4562,-0.7652,3.2696,-3.7565
1570,0.0,-10.1549,1.3795,-0.5565,3.8261,-3.8261
1575,0.0,-10.0782,1.3029,-0.487,4.4522,-3.687
1580,-0.0766,-10.1549,1.3795,-0.4174,5.2174,-3.6174
1585,-0.115,-10.1166,1.3412,-0.5565,5.9826,-3.5478
1590,-0.115,-10.0782,1.4179,-0.5565,6.7478,-3.4087
1595,-0.0766,-10.0016,1.1496,-0.6957,7.4435,-3.2696
1600,0.0,-10.0399,1.1879,-0.8348,8.0,-3.1304
1605,0.0383,-10.0782,1.3795,-1.113,8.4174,-3.1304
1610,0.0383,-10.0782,1.1879,-1.4609,8.7652,-3.0609
1615,0.0,-10.0016,1.3412,-1.8087,8.8348,-2.9217
1620,0.0,-10.1932,1.2263,-2.087,8.6957,-2.7826
1625,0.0,-10.1549,1.3029,-2.2957,8.3478,-2.713
1630,-0.0383,-10.1549,1.3029,-2.4348,8.0,-2.7826
1635,0.0,-10.0399,1.4179,-2.5739,7.3739,-2.8522
1640,-0.0766,-10.1549,1.3029,-2.5043,6.6783,-2.9913
1645,-0.0383,-10.1166,1.3412,-2.5043,5.8435,-2.9913
1650,-0.0383,-10.1166,1.1879,-2.6435,5.0087,-3.0609
1655,-0.115,-10.1549,1.1879,-2.7826,4.3826,-3.1304
1660,-0.0383,-10.1549,1.2646,-2.5739,4.0348,-2.9913
1665,-0.115,-10.1932,1.1113,-2.4348,3.7565,-2.9913
1670,-0.0766,-10.1549,1.2646,-2.2261,3.687,-3.0609
1675,0.0,-10.1932,1.2263,-1.9478,3.6174,-2.9217
1680,-0.0766,-10.1549,1.3029,-1.6696,3.687,-2.7826
1685,-0.0383,-10.1166,1.2263,-1.4609,3.8261,-2.6435
1690,-0.1533,-10.0016,1.4179,-1.0435,4.0348,-2.5043
1695,0.0,-10.1166,1.3412,-0.6957,4.4522,-2.4348
1700,0.0,-10.1166,1.2646,-0.2087,5.0087,-2.4348
1705,-0.0383,-10.1549,1.2646,0.1391,5.3565,-2.3652
1710,0.0383,-10.1549,1.3412,0.3478,5.8435,-2.5043
1715,0.0766,-10.1166,1.4179,0.6261,6.0522,-2.5739
1720,0.0,-10.1166,1.3029,0.6957,6.4,-2.4348
1725,0.1533,-10.1932,1.3795,0.7652,6.5391,-2.5739
1730,0.0766,-10.3082,1.4945,0.9043,6.5391,-2.7826
1735,0.115,-10.3082,1.4945,1.113,6.6087,-2.6435
1740,0.0766,-10.1549,1.4179,1.5304,6.3304,-2.7826
1745,0.115,-10.2315,1.4179,1.9478,6.1913,-2.8522
1750,0.0766,-10.0782,1.2646,2.2957,5.8435,-2.9217
1755,0.0,-10.1932,1.3029,2.4348,5.6348,-3.0609
1760,0.0383,-10.1549,1.3029,2.4348,5.4261,-3.2
1765,0.0766,-10.1166,1.3412,2.5043,5.287,-3.4087
1770,0.0,-10.0399,1.3029,2.713,5.287,-3.4783
1775,0.0383,-10.1166,1.3412,2.9913,5.287,-3.4783
1780,0.0383,-10.0399,1.2263,3.1304,5.4261,-3.5478
1785,0.0,-10.0399,1.2646,3.0609,5.6348,-3.6174
1790,0.0383,-10.0782,1.2646,2.9913,5.913,-3.5478
1795,0.115,-10.1166,1.3029,2.9217,6.0522,-3.4783
1800,0.0,-10.0782,1.3795,2.713,6.4696,-3.3391
1805,0.0383,-10.0399,1.3412,2.3652,6.8174,-3.2
1810,0.0766,-10.0782,1.3795,2.087,7.0261,-3.0609
1815,0.0766,-10.0399,1.2646,1.9478,7.1652,-2.7826
1820,0.0383,-10.0399,1.3795,1.8087,7.4435,-2.713
1825,0.1916,-10.1549,1.4179,1.7391,7.7217,-2.5043
1830,0.0766,-10.0782,1.4562,1.6,7.5826,-2.3652
1835,0.115,-10.1549,1.2646,1.8783,7.513,-2.3652
1840,0.0383,-10.1166,1.3412,1.8783,7.3043,-2.3652
1845,0.115,-10.0782,1.3029,1.9478,7.1652,-2.3652
1850,0.0,-10.0399,1.3795,2.0174,7.1652,-2.2957
1855,0.0,-10.0016,1.3795,2.0174,7.1652,-2.3652
1860,0.0,-9.925,1.4562,2.0174,7.3043,-2.4348
1865,0.0766,-10.0399,1.4179,2.087,7.3739,-2.3652
1870,0.0766,-10.0016,1.3412,1.9478,7.513,-2.2261
1875,0.0383,-9.9633,1.4945,1.9478,7.7217,-2.1565
1880,0.0766,-9.8483,1.4562,1.8783,7.8609,-1.9478
1885,0.0766,-9.8866,1.3795,1.8783,7.9304,-1.8087
1890,0.0766,-9.925,1.4562,1.6,7.7913,-1.6696
1895,0.2682,-9.925,1.4179,1.3217,7.7913,-1.6
1900,0.0766,-9.925,1.4562,1.3217,7.7217,-1.4609
1905,0.2299,-9.925,1.4562,1.113,7.7217,-1.3913
1910,0.1533,-9.925,1.4562,0.9739,7.7217,-1.2522
1915,0.2299,-10.0016,1.3795,0.8348,7.6522,-1.1826
1920,0.2682,-9.925,1.4179,0.6261,7.6522,-1.113
1925,0.2682,-9.9633,1.5711,0.487,7.513,-0.9043
1930,0.2682,-9.8866,1.5711,0.5565,7.2348,-0.8348
1935,0.2682,-9.925,1.5328,0.6261,6.887,-0.7652
1940,0.2299,-9.925,1.4945,0.4174,6.4696,-0.6957
1945,0.2682,-10.0399,1.5328,0.3478,6.1217,-0.6957
1950,0.2299,-9.9633,1.5328,0.2783,5.8435,-0.7652
1955,0.2299,-9.925,1.5711,0.2087,5.5652,-0.8348
1960,0.1916,-9.925,1.6095,-0.0696,5.4261,-0.9739
1965,0.2299,-10.0399,1.5711,-0.1391,5.3565,-1.0435
1970,0.1916,-10.0399,1.5711,-0.2783,5.287,-1.113
1975,0.2299,-10.1549,1.4562,-0.3478,5.4261,-1.113
1980,0.1533,-10.0782,1.4179,-0.2783,5.4261,-1.0435
1985,0.2682,-10.3848,1.4179,-0.2087,5.6348,-0.9739
1990,0.1533,-10.0782,1.1113,-0.0696,5.7739,-0.8348
1995,0.2299,-10.1932,1.6478,0.0696,5.8435,-0.7652
2000,0.115,-10.1166,1.4179,0.2783,5.913,-0.6957
2005,0.1533,-10.0399,1.5328,0.487,5.8435,-0.487
2010,0.115,-10.0399,1.4945,0.7652,5.7043,-0.3478
2015,0.115,-10.1549,1.4179,0.8348,5.4261,-0.2783
2020,0.115,-10.1166,1.4562,0.9739,5.0783,-0.1391
2025,0.115,-10.0016,1.1496,1.0435,4.8,0.0
2030,0.0766,-9.9633,1.4179,1.0435,4.3826,-0.0696
2035,0.0383,-9.925,1.4179,0.9043,3.9652,-0.0696
2040,0.0383,-10.0016,1.4945,0.7652,3.6174,0.0
2045,0.0,-9.925,1.3412,0.6261,3.4087,0.0
2050,0.0383,-9.925,1.4562,0.3478,3.2,0.2087
2055,0.0383,-10.0782,1.3795,0.2783,3.1304,0.2087
2060,0.0383,-10.0782,1.5328,-0.0696,3.0609,0.2087
2065,0.0,-10.0399,1.5328,-0.2783,3.1304,0.2783
2070,0.0383,-10.0016,1.5328,-0.4174,3.2,0.4174
2075,0.0383,-10.3082,1.5328,-0.5565,3.3391,0.3478
2080,-0.0383,-10.0016,1.5328,-0.6261,3.3391,0.1391
2085,0.0766,-10.0399,1.4179,-0.5565,3.4783,0.0696
2090,0.1533,-9.9633,1.3412,-0.3478,3.6174,0.0696
2095,0.2682,-10.0782,1.2263,-0.2087,3.8261,0.0
2100,0.3066,-10.0782,1.6095,-0.0696,3.9652,-0.0696
2105,0.3066,-9.9633,1.1496,-0.0696,4.1739,-0.1391
2110,0.4215,-9.925,1.7244,0.2087,4.1739,-0.1391
2115,-0.0383,-10.1549,1.3795,0.4174,4.2435,-0.2087
2120,0.1916,-10.0016,1.3795,0.5565,4.2435,-0.1391
2125,0.0383,-10.0782,1.3029,0.8348,4.2435,-0.1391
2130,0.0383,-10.1166,1.4179,0.9739,4.1043,-0.2783
2135,0.0,-10.0399,1.3029,1.113,3.9652,-0.3478
2140,0.115,-10.0782,1.5328,1.2522,3.8261,-0.3478
2145,0.0,-10.0399,1.3029,1.2522,3.6174,-0.2783
2150,0.0383,-10.0782,1.4179,1.3217,3.4783,-0.3478
2155,0.0,-10.0016,1.4945,1.113,3.4087,-0.2783
2160,-0.0383,-9.925,1.4179,1.113,3.3391,-0.3478
2165,0.115,-10.0782,1.3412,0.9043,3.2696,-0.2087
2170,-0.0383,-10.1166,1.3412,0.6261,3.2696,-0.2087
2175,0.0,-10.0782,1.3029,0.3478,3.2696,-0.1391
2180,0.0383,-10.0016,1.4179,0.0696,3.2,-0.1391
2185,0.0766,-10.0399,1.4179,-0.1391,3.2696,0.0
2190,0.1533,-10.1166,1.3029,-0.0696,3.2696,0.1391
2195,0.1533,-10.1166,1.3412,-0.1391,3.3391,0.1391
2200,0.115,-10.1549,1.3795,-0.0696,3.4783,0.2087
2205,0.0383,-10.1932,1.4179,0.0,3.6174,0.2783
2210,0.0766,-10.2315,1.3412,0.2087,3.8261,0.2783
2215,0.115,-10.1549,1.4179,0.487,3.9652,0.4174
2220,0.1533,-10.1166,1.3029,0.7652,3.9652,0.2783
2225,0.1916,-10.1549,1.3795,1.0435,3.9652,0.2087
2230,0.0766,-10.0782,1.3412,1.2522,4.0348,0.2087
2235,0.115,-10.2315,1.3795,1.3913,4.1043,0.1391
2240,0.0766,-10.1166,1.3412,1.6,3.9652,0.0696
2245,0.0383,-9.9633,1.2263,1.7391,3.9652,0.0
2250,0.0,-10.1166,1.3412,1.7391,3.8957,-0.2087
2255,0.0383,-10.0399,1.3795,1.7391,4.0348,-0.3478
2260,0.0766,-10.1166,1.4179,1.7391,4.1043,-0.4174
2265,0.0383,-10.0016,1.4562,1.7391,4.2435,-0.5565
2270,0.0383,-10.0016,1.4179,1.8087,4.4522,-0.4174
2275,0.0766,-10.0399,1.4562,1.8087,4.5913,-0.4174
2280,0.0766,-10.0782,1.4945,1.8783,4.6609,-0.4174
2285,0.115,-9.9633,1.5711,1.8087,4.8,-0.487
2290,0.0766,-10.0016,1.5711,1.9478,4.8696,-0.487
2295,0.1533,-10.1166,1.6095,2.0174,5.0087,-0.487
2300,0.0383,-10.0016,1.6478,2.087,5.0783,-0.4174
2305,0.0383,-10.0016,1.6478,2.087,5.1478,-0.4174
2310,0.115,-10.0016,1.4945,2.1565,5.1478,-0.4174
2315,0.0383,-10.0016,1.4562,2.0174,5.287,-0.2783
2320,0.0383,-10.0016,1.4562,1.7391,5.287,-0.2087
2325,0.115,-10.1166,1.4945,1.3913,5.4261,-0.0696
2330,0.0383,-10.0782,1.7627,1.0435,5.4261,0.0696
2335,0.0383,-10.1932,1.6095,0.7652,5.287,0.1391
2340,0.115,-10.1549,1.4945,0.487,5.3565,0.0696
2345,0.115,-10.0399,1.5711,0.1391,5.287,0.0696
2350,0.0383,-10.2315,1.4562,0.0,5.3565,0.1391
2355,0.0383,-10.1549,1.5328,0.0696,5.3565,0.0
2360,0.0766,-10.0782,1.5328,0.0696,5.2174,0.0
2365,0.1533,-9.9633,1.5711,0.3478,5.2174,0.0
2370,0.115,-10.0782,1.5711,0.5565,5.287,0.0
2375,0.115,-10.1932,1.5711,0.9043,5.287,-0.1391
2380,0.1533,-10.1166,1.4562,1.113,5.1478,-0.1391
2385,0.0766,-10.1166,1.4945,1.1826,5.1478,-0.2087
2390,0.115,-10.1166,1.6095,1.2522,5.2174,-0.2783
2395,0.0766,-10.0399,1.6861,1.2522,5.0783,-0.2087
2400,0.0766,-9.9633,1.5711,1.3217,5.0783,-0.3478
2405,0.0383,-10.0782,1.5711,1.1826,4.9391,-0.2783
2410,0.115,-10.0782,1.6095,0.9739,5.0087,-0.2087
2415,0.0383,-10.0782,1.6861,0.9043,5.0087,-0.2783
2420,0.115,-10.0399,1.5328,0.7652,5.1478,-0.3478
2425,0.1533,-10.1166,1.5711,0.6261,5.1478,-0.3478
2430,0.0766,-10.0016,1.5328,0.3478,5.2174,-0.4174
2435,0.0766,-10.0399,1.5711,0.2783,5.287,-0.5565
2440,0.0766,-10.0399,1.6095,0.2087,5.4957,-0.487
2445,0.115,-10.1166,1.4562,0.2087,5.7043,-0.487
2450,0.115,-10.0782,1.6095,0.2783,5.7739,-0.487
2455,0.0766,-10.0782,1.4945,0.2087,5.7739,-0.4174
2460,0.0766,-9.9633,1.6095,0.2087,5.7739,-0.487
2465,0.0766,-10.0016,1.6095,0.0696,5.7739,-0.4174
2470,0.1533,-10.1166,1.6861,0.0696,5.8435,-0.3478
2475,0.115,-10.0399,1.5711,0.0,5.7739,-0.3478
2480,0.1533,-10.0782,1.5328,-0.0696,5.7043,-0.2783
2485,0.0766,-10.1932,1.6478,-0.1391,5.5652,-0.2783
2490,0.0383,-10.1166,1.4945,-0.2783,5.4261,-0.2783
2495,0.115,-10.1549,1.6095,-0.2783,5.3565,-0.1391
2500,0.0766,-10.1932,1.5328,-0.1391,5.3565,-0.2087
2505,0.0766,-10.0782,1.7627,-0.0696,5.2174,-0.3478
2510,0.115,-10.0782,1.5328,0.0696,5.287,-0.4174
2515,0.115,-10.0016,1.5328,0.2087,5.3565,-0.6261
2520,0.115,-9.925,1.5711,0.2783,5.4261,-0.6261
2525,0.115,-10.1166,1.6478,0.4174,5.4957,-0.5565
2530,0.1533,-10.0782,1.4945,0.5565,5.5652,-0.5565
2535,0.115,-10.1166,1.5328,0.5565,5.7043,-0.5565
2540,0.1916,-10.0016,1.5711,0.5565,5.7739,-0.6261
2545,0.0766,-10.0782,1.5711,0.5565,5.913,-0.5565
2550,0.115,-10.0782,1.4945,0.487,5.7739,-0.6261
2555,0.0766,-10.0016,1.5328,0.487,5.7043,-0.5565
2560,0.115,-10.0016,1.5328,0.4174,5.7043,-0.5565
2565,0.0383,-10.0399,1.4562,0.3478,5.7043,-0.4174
2570,0.0766,-10.0399,1.6095,0.4174,5.6348,-0.4174
2575,0.0766,-10.0399,1.6478,0.3478,5.4957,-0.3478
2580,0.0383,-10.0016,1.4562,0.2783,5.4957,-0.3478
2585,0.0766,-10.0399,1.5328,0.3478,5.4261,-0.3478
2590,0.115,-10.1166,1.5328,0.3478,5.3565,-0.2783
2595,0.0383,-10.0016,1.5328,0.487,5.4261,-0.4174
2600,0.0383,-9.925,1.5711,0.3478,5.4957,-0.4174
2605,0.0766,-10.0399,1.5711,0.3478,5.5652,-0.4174
2610,0.0766,-10.1549,1.6095,0.4174,5.7043,-0.487
2615,0.115,-10.1932,1.5711,0.4174,5.8435,-0.487
2620,0.0766,-10.0399,1.8011,0.3478,5.913,-0.4174
2625,0.115,-10.1549,1.5711,0.5565,6.0522,-0.4174
2630,0.115,-10.0399,1.6478,0.5565,6.1913,-0.4174
2635,0.115,-10.0782,1.6861,0.6261,6.1913,-0.3478
2640,0.0,-10.0782,1.6478,0.6261,6.2609,-0.2087
2645,0.2299,-10.1549,1.7244,0.8348,6.2609,-0.1391
2650,0.1533,-10.1166,1.5711,0.9043,6.3304,-0.2783
2655,0.1533,-10.1549,1.6095,0.9739,6.1913,-0.3478
2660,0.0383,-10.1932,1.5328,1.0435,6.2609,-0.3478
2665,0.2299,-10.0782,1.5711,1.2522,6.2609,-0.2783
2670,0.1533,-10.1166,1.5711,1.3913,6.1913,-0.3478
2675,0.115,-10.0782,1.4179,1.5304,6.1217,-0.2087
2680,0.0766,-10.0016,1.4945,1.5304,6.1217,-0.2087
2685,0.0383,-10.0399,1.5328,1.5304,5.913,-0.1391
2690,0.0,-10.0016,1.5328,1.4609,5.8435,-0.1391
2695,0.115,-10.0782,1.6095,1.3217,5.6348,-0.1391
2700,0.0383,-10.0782,1.5711,1.113,5.6348,-0.1391
2705,0.115,-10.1549,1.5711,0.9043,5.4957,-0.1391
2710,0.0,-10.0399,1.5711,0.6261,5.3565,-0.1391
2715,0.0766,-10.0399,1.6861,0.5565,5.3565,-0.2087
2720,0.115,-10.0399,1.6478,0.487,5.4261,-0.2783
2725,0.0383,-10.1166,1.6478,0.487,5.5652,-0.1391
2730,0.115,-10.1549,1.5711,0.4174,5.7043,-0.0696
2735,0.0383,-10.0016,1.5328,0.5565,5.7043,-0.0696
2740,0.115,-10.0399,1.7244,0.5565,5.7739,-0.0696
2745,0.115,-10.0782,1.7244,0.6957,5.7739,0.0
2750,0.0383,-10.0016,1.6478,0.7652,5.7043,-0.2087
2755,0.0383,-10.0399,1.5711,0.8348,5.7043,-0.1391
2760,0.0766,-10.0016,1.6095,0.9043,5.7043,-0.2087
2765,0.115,-9.9633,1.5328,0.9739,5.7043,-0.2783
2770,0.1533,-9.9633,1.6095,0.9043,5.7043,-0.3478
2775,0.0766,-10.0782,1.7627,0.8348,5.7043,-0.3478
2780,0.0383,-10.0016,1.6478,0.6957,5.7739,-0.4174
2785,0.115,-10.0782,1.7244,0.5565,5.7043,-0.487
2790,0.115,-10.1166,1.6861,0.487,5.7739,-0.4174
2795,0.0766,-10.0016,1.5328,0.487,5.7739,-0.4174
2800,0.0383,-10.0016,1.7244,0.3478,5.6348,-0.4174
2805,0.0766,-9.925,1.6095,0.2087,5.6348,-0.2087
2810,0.1533,-10.0016,1.5711,0.3478,5.5652,-0.2087
2815,0.0383,-10.0016,1.7627,0.2783,5.4261,-0.0696
2820,0.1916,-10.0782,1.6095,0.1391,5.2174,-0.0696
2825,0.0766,-10.1549,1.6861,0.1391,5.0783,0.0696
2830,0.0,-10.0399,1.6861,0.0,5.0087,0.0696
2835,-0.0383,-10.0399,1.6095,0.1391,4.9391,0.2783
2840,0.115,-10.0782,1.6095,0.2087,4.8,0.2783
2845,0.0383,-10.0399,1.6478,0.2087,4.8696,0.3478
2850,0.115,-10.0782,1.7627,0.2783,4.8,0.4174
2855,0.0383,-9.9633,1.6478,0.2783,4.7304,0.3478
2860,0.115,-10.0399,1.6095,0.4174,4.7304,0.2087
2865,0.115,-10.0782,1.5711,0.4174,4.7304,0.1391
2870,0.0766,-10.0016,1.6478,0.2783,4.8696,0.0696
2875,0.0766,-10.0016,1.7244,0.3478,5.0087,-0.0696
2880,0.0383,-10.0016,1.6095,0.3478,5.1478,-0.1391
2885,0.0766,-10.0016,1.6095,0.2087,5.287,-0.2087
2890,0.1533,-10.0782,1.6478,0.2783,5.3565,-0.2087
2895,0.0383,-10.1166,1.5711,0.2783,5.4261,-0.2087
2900,0.0766,-10.0399,1.6095,0.2087,5.4957,-0.2087
2905,0.2299,-10.0399,1.7627,0.2087,5.4957,-0.3478
2910,0.115,-10.0399,1.5328,0.2087,5.4957,-0.3478
2915,0.0383,-10.0016,1.8011,0.2087,5.4957,-0.2087
2920,0.115,-10.0016,1.6478,0.4174,5.4261,-0.1391
2925,0.0766,-10.0782,1.6861,0.3478,5.287,-0.1391
2930,0.1916,-10.0399,1.6861,0.4174,5.1478,-0.0696
2935,0.0383,-10.0399,1.6861,0.4174,5.0783,-0.2087
2940,0.1533,-10.0782,1.7244,0.3478,5.0087,-0.1391
2945,0.0383,-10.0016,1.6478,0.3478,4.9391,-0.0696
2950,0.0766,-10.0016,1.6861,0.2783,4.9391,-0.0696
2955,0.0766,-10.0782,1.8394,0.2087,4.9391,0.0
2960,0.1533,-10.1166,1.5711,0.2087,4.9391,0.0
2965,0.0383,-10.0016,1.7244,0.2087,4.9391,-0.0696
2970,0.0383,-10.0016,1.6861,0.2087,4.8696,-0.0696
2975,0.0383,-9.9633,1.6861,0.2087,5.0087,-0.0696
2980,0.115,-10.2315,1.6095,0.2087,5.0783,-0.0696
2985,0.0766,-10.0782,1.6861,0.2087,5.2174,-0.0696
2990,0.1533,-10.0016,1.6861,0.1391,5.2174,-0.0696
2995,0.0766,-10.0399,1.6478,0.0696,5.1478,-0.0696
