timestamp,accX,accY,accZ,gyroX,gyroY,gyroZ
0,0.5748,-6.5528,-6.7444,13.8435,6.4,6.6783
5,0.6131,-6.6294,-6.821,13.4957,6.1913,6.7478
10,0.6514,-6.7444,-6.7061,13.0783,5.7739,6.6783
15,0.5365,-6.6677,-6.7827,12.6609,5.4261,6.4696
20,0.6898,-6.7061,-6.7444,12.1043,5.2174,6.1913
25,0.5365,-6.7827,-7.0509,11.687,4.8,5.913
30,0.5365,-6.7827,-6.936,11.3391,4.313,5.7043
35,0.7281,-7.0893,-7.0126,11.1304,3.8957,5.4261
40,0.6514,-6.9743,-7.2042,10.9217,3.3391,5.287
45,0.5365,-7.0893,-7.2042,10.8522,2.8522,5.1478
50,0.7281,-7.2809,-7.0126,10.9913,2.5043,4.7304
55,0.7664,-7.2809,-7.0893,11.2,2.1565,4.3826
60,0.9197,-7.3958,-7.0126,11.7565,1.8087,3.8261
65,0.8814,-7.3575,-7.2042,12.6609,1.6,3.1304
70,0.9963,-7.4341,-7.1659,13.8435,1.5304,2.5043
75,1.073,-7.3958,-7.2425,15.1652,1.6696,1.8087
80,1.1113,-7.4341,-7.3575,16.2783,1.8783,0.9043
85,1.1496,-7.3575,-7.3958,17.7391,2.3652,0.4174
90,1.1113,-7.5874,-7.1659,19.2,2.9217,-0.0696
95,0.843,-7.4341,-7.3192,20.8,3.2696,-0.6261
100,0.9963,-7.5491,-7.3575,22.3304,3.6174,-1.0435
105,0.8814,-7.5874,-7.2042,23.7913,3.687,-1.3217
110,0.9963,-7.5491,-7.0126,25.1826,3.4783,-1.3913
115,0.6898,-7.6641,-7.0126,26.3652,3.0609,-1.5304
120,0.7281,-7.6257,-6.936,27.5478,2.6435,-1.4609
125,0.4982,-7.7407,-6.7827,28.3826,1.6696,-1.113
130,0.3832,-7.9323,-6.7444,29.2174,0.7652,-1.0435
135,0.3832,-7.9706,-6.7061,29.913,-0.5565,-0.9043
140,0.2682,-8.3921,-6.7444,30.8174,-1.6,-0.6957
145,0.115,-8.5454,-6.7444,31.7913,-2.9217,-0.487
150,0.0766,-8.852,-6.4378,33.0435,-4.313,-0.487
155,-0.0766,-9.0053,-6.5911,34.713,-5.6348,-0.2783
160,-0.0766,-9.0819,-6.7061,36.4522,-6.887,-0.3478
165,-0.1916,-9.2735,-6.7444,37.8435,-8.2087,-0.6957
170,-0.3066,-9.0819,-6.7061,38.5391,-9.6,-1.2522
175,-0.3832,-9.1969,-7.0126,39.0957,-11.1304,-1.7391
180,-0.2299,-8.9286,-6.936,39.3739,-12.6609,-2.2957
185,-0.0383,-8.6987,-7.1659,39.0957,-13.7739,-2.9913
190,-0.0766,-8.737,-7.2042,38.5391,-14.2609,-3.687
195,0.0383,-8.6604,-7.2042,37.7739,-13.9826,-3.7565
200,0.0383,-8.5071,-7.1276,37.1478,-13.4957,-3.8261
205,0.0766,-8.6221,-7.0509,36.3826,-12.9391,-3.8261
210,0.3066,-8.6604,-7.3192,35.8261,-12.0348,-4.1739
215,0.115,-8.6604,-7.2425,35.0609,-10.713,-5.0087
220,0.4215,-8.737,-7.2042,34.7826,-9.2522,-5.0087
225,0.5365,-8.8903,-7.2809,34.087,-7.513,-5.7739
230,0.4982,-8.8137,-7.2809,33.4609,-5.4957,-6.1217
235,0.4215,-8.7754,-7.2042,33.3217,-3.2696,-5.6348
240,0.4215,-8.6604,-7.2425,33.3217,-1.5304,-5.0783
245,0.4215,-8.6987,-7.0893,33.7391,-0.2783,-4.1739
250,0.4215,-8.8137,-6.9743,34.1565,0.1391,-2.713
255,0.4215,-8.8137,-6.7827,34.7826,0.0,-0.9739
260,0.5365,-8.6221,-6.6677,35.3391,-0.4174,0.5565
265,0.4982,-8.6987,-6.5911,35.4087,-1.1826,2.2261
270,0.5748,-8.5838,-6.3995,35.0609,-1.8783,3.687
275,0.5748,-8.5454,-6.2079,34.4348,-2.5043,5.287
280,0.4982,-8.3921,-6.2845,33.8087,-3.0609,6.6783
285,0.6131,-8.2772,-6.1313,33.3217,-3.1304,7.7913
290,0.4982,-8.1622,-6.0546,33.1826,-2.8522,8.8348
295,0.6131,-8.1622,-5.7097,33.3913,-2.3652,9.7391
300,0.5365,-7.9706,-5.6714,34.087,-1.7391,10.5043
305,0.5748,-7.9323,-5.4798,35.2696,-0.9043,11.0609
310,0.6131,-8.0089,-5.2882,36.8,0.0,11.4087
315,0.5365,-8.0856,-4.9433,38.4,0.487,11.3391
320,0.6514,-7.9706,-4.905,40.2783,1.0435,10.9913
325,0.6898,-7.9706,-4.4835,41.9478,1.2522,10.3652
330,0.7664,-7.8557,-4.2919,43.6174,1.0435,9.3913
335,0.7664,-7.9323,-4.062,44.9391,0.9739,8.2783
340,0.6898,-7.8173,-3.947,46.0522,0.4174,7.0261
345,0.7664,-7.6641,-3.9853,46.887,0.0,5.913
350,0.843,-7.6257,-3.6787,47.2348,-0.5565,4.5217
355,0.7664,-7.5874,-3.7171,47.3043,-1.1826,3.1304
360,0.5365,-7.5874,-3.5638,46.9565,-1.8783,1.8087
365,0.6131,-7.5491,-3.4871,46.2609,-2.5739,0.5565
370,0.2682,-7.3958,-3.5255,44.9391,-3.2,-0.5565
375,0.2682,-7.3575,-3.6021,43.4783,-3.7565,-1.6
380,0.3066,-7.3958,-3.6021,41.8087,-4.2435,-2.5043
385,0.1916,-7.3958,-3.7171,40.0,-4.7304,-3.2696
390,0.0766,-7.5108,-3.9087,38.2609,-5.1478,-3.8957
395,0.115,-7.4725,-3.9087,36.5913,-5.4261,-4.4522
400,0.0766,-7.6641,-4.1003,35.2,-5.4261,-4.9391
405,0.0766,-7.5874,-4.1386,33.6,-5.287,-5.1478
410,0.0383,-7.6257,-4.1769,32.2087,-5.2174,-4.9391
415,0.115,-7.779,-4.5984,30.8174,-5.287,-4.8
420,-0.0383,-7.894,-4.5984,29.5652,-5.5652,-4.3826
425,-0.0766,-7.6641,-4.5601,28.3826,-6.1217,-3.8957
430,0.0,-8.0089,-4.6751,27.4783,-6.6087,-3.3391
435,0.0,-8.0089,-4.905,26.9913,-7.3043,-2.7826
440,0.0383,-8.2005,-4.9433,26.9217,-7.9304,-2.2957
445,0.0383,-8.2389,-4.9433,27.2696,-8.4174,-1.8087
450,0.1533,-8.3538,-5.02,27.9652,-8.6957,-1.4609
455,0.115,-8.2389,-5.0583,29.1478,-8.7652,-1.2522
460,0.1916,-8.2005,-5.2116,30.4696,-8.6957,-1.113
465,0.3449,-8.2005,-5.2116,32.0,-8.4174,-0.9739
470,0.3832,-8.2005,-5.0966,33.4609,-7.9304,-0.8348
475,0.7664,-8.2389,-5.2116,34.713,-7.3043,-0.8348
480,0.6514,-8.1239,-4.905,35.2696,-6.6087,-0.8348
485,0.9197,-8.2005,-4.9816,35.2,-5.9826,-0.5565
490,1.0346,-8.2389,-4.9816,34.3652,-5.4957,-0.3478
495,0.958,-8.1622,-4.8667,32.7652,-5.1478,-0.0696
500,1.0346,-8.2005,-4.905,30.7478,-4.8696,0.0
505,1.1496,-8.3538,-4.8667,28.5217,-4.5217,0.2783
510,1.073,-8.3921,-4.8667,26.2957,-4.2435,0.5565
515,1.1879,-8.4305,-4.6368,24.2783,-3.687,1.113
520,1.2263,-8.6221,-4.79,22.5391,-3.0609,1.4609
525,1.2263,-8.5454,-4.7517,21.1478,-2.3652,1.8087
530,1.3029,-8.6604,-4.79,20.1739,-1.4609,2.5043
535,1.073,-8.5454,-4.7134,19.5478,-0.487,3.1304
540,1.1113,-8.5071,-4.6368,19.4087,0.5565,3.8957
545,1.1496,-8.6604,-4.6751,19.7565,1.6696,4.5913
550,1.0346,-8.4688,-4.4835,20.3826,2.9217,5.2174
555,0.9197,-8.4305,-4.5218,21.3565,4.0348,5.7739
560,0.9197,-8.3538,-4.4835,22.3304,4.8696,5.913
565,0.8047,-8.2389,-4.2919,23.1652,5.6348,6.1217
570,0.8814,-8.2772,-4.3302,24.0,6.1913,6.1913
575,0.6514,-8.3538,-4.1003,24.4174,6.4696,5.9826
580,0.4982,-8.1622,-4.2152,24.5565,6.4696,5.4957
585,0.5748,-8.2005,-4.2152,24.4174,6.3304,4.8696
590,0.2299,-8.0473,-4.1769,23.7217,6.0522,4.1739
595,0.3832,-7.9706,-4.1386,22.6783,5.4261,3.3391
600,0.3832,-7.9706,-4.0236,21.287,4.7304,2.2957
605,0.2299,-7.8173,-4.062,19.687,3.8957,1.3217
610,0.4215,-7.8557,-4.1003,17.8783,2.9913,0.2087
615,0.2682,-7.8557,-4.2536,16.2087,2.2261,-0.8348
620,0.2682,-7.8557,-4.1769,14.6783,1.4609,-1.7391
625,0.1916,-7.894,-4.3685,13.287,1.0435,-2.8522
630,0.3066,-8.0089,-4.2152,12.1043,0.6261,-3.7565
635,0.4598,-8.0473,-4.1769,11.2,0.2087,-4.7304
640,0.4598,-8.2005,-4.2536,10.2261,0.0,-5.6348
645,0.4598,-8.1239,-4.3685,9.3913,-0.2087,-6.4696
650,0.4982,-8.0856,-4.4452,8.6261,-0.487,-7.2348
655,0.3449,-8.2772,-4.3302,8.0,-0.5565,-7.9304
660,0.6898,-8.2772,-4.2919,7.3739,-0.6261,-8.487
665,0.5748,-8.2772,-4.4835,6.7478,-0.6261,-8.9043
670,0.6514,-8.3921,-4.5601,6.1913,-0.6957,-9.3217
675,0.6131,-8.4305,-4.3302,5.8435,-0.6957,-9.6
680,0.6131,-8.4305,-4.5218,5.287,-0.6957,-9.6
685,0.7664,-8.3921,-4.5601,4.8696,-0.6261,-9.6696
690,0.6131,-8.4305,-4.5218,4.5217,-0.2783,-9.4609
695,0.5748,-8.6604,-4.3685,4.1043,0.0696,-9.1826
700,0.7281,-8.4305,-4.3685,3.6174,0.4174,-8.8348
705,0.7664,-8.4688,-4.2919,3.3391,0.9739,-8.2783
710,0.6131,-8.3538,-4.3685,3.0609,1.3217,-7.7913
715,0.843,-8.3921,-4.2919,2.713,1.6696,-7.3043
720,0.7664,-8.3155,-4.2152,2.4348,2.2261,-6.6783
725,0.843,-8.3921,-4.1769,2.2957,2.6435,-6.1913
730,0.7281,-8.3538,-4.2919,2.1565,3.0609,-5.7043
735,0.8814,-8.3538,-4.1386,2.0174,3.2696,-5.2174
740,0.9197,-8.5454,-4.3302,1.9478,3.6174,-4.8
745,0.843,-8.4305,-4.2919,1.9478,3.8261,-4.313
750,0.8047,-8.4688,-4.2152,2.087,4.1739,-3.8261
755,0.9197,-8.5454,-4.062,2.3652,4.2435,-3.3391
760,0.7281,-8.5071,-3.947,2.6435,4.2435,-2.8522
765,0.7664,-8.4688,-3.947,2.9217,4.2435,-2.7826
770,0.6898,-8.6221,-3.8704,3.1304,3.9652,-2.5043
775,0.5748,-8.4305,-4.0236,3.3391,3.8957,-2.3652
780,0.6514,-8.4688,-4.1003,3.4087,3.687,-2.087
785,0.6131,-8.5454,-4.1386,3.3391,3.4087,-2.1565
790,0.4215,-8.4688,-4.1769,3.3391,3.2,-2.2261
795,0.4598,-8.5454,-3.9087,3.2696,3.1304,-2.1565
800,0.4215,-8.5454,-3.947,3.4087,2.8522,-2.1565
805,0.4982,-8.6221,-4.062,3.4087,2.713,-2.3652
810,0.3832,-8.5454,-4.2536,3.6174,2.6435,-2.4348
815,0.3832,-8.5071,-4.0236,3.8261,2.2957,-2.4348
820,0.2299,-8.5071,-4.2152,4.1043,2.3652,-2.5043
825,0.3066,-8.5454,-4.1386,4.5217,2.2957,-2.4348
830,0.115,-8.3921,-4.062,5.0783,2.3652,-2.4348
835,0.2682,-8.5071,-4.1003,5.4957,2.5043,-2.3652
840,0.3832,-8.5838,-4.1769,5.8435,2.5043,-2.3652
845,0.2682,-8.2772,-4.3302,6.1217,2.713,-2.1565
850,0.3449,-8.4305,-4.4835,6.4696,2.9913,-2.0174
855,0.4215,-8.4688,-4.2919,6.5391,3.4087,-1.8783
860,0.3832,-8.5071,-4.3302,6.6087,3.5478,-2.0174
865,0.5365,-8.3921,-3.5638,6.6087,3.8957,-1.8783
870,0.7281,-8.3538,-4.2536,6.4696,4.1043,-1.7391
875,0.8814,-8.5454,-3.9087,6.2609,4.2435,-1.6696
880,0.4982,-8.852,-4.2152,5.9826,4.5217,-1.8783
885,0.3832,-8.5838,-3.7937,5.7043,4.5217,-1.8087
890,0.7664,-8.3921,-4.3302,5.4957,4.7304,-1.8087
895,0.9197,-8.5838,-4.4068,5.4261,4.7304,-1.8087
900,0.8814,-8.2005,-4.2536,5.3565,4.8,-1.8087
905,0.6898,-8.6987,-4.1769,5.3565,4.8696,-1.7391
910,0.6514,-8.3538,-4.5218,5.4261,5.0087,-1.6
915,0.8047,-8.5071,-4.3685,5.5652,5.2174,-1.3913
920,0.4215,-8.2389,-4.7517,5.7043,5.287,-1.3217
925,0.5748,-7.894,-4.2919,5.8435,5.4957,-1.2522
930,0.3066,-8.6221,-4.5218,6.0522,5.5652,-0.9739
935,0.6131,-8.2389,-4.4452,6.1217,5.4957,-0.9043
940,0.4982,-8.5454,-4.4452,5.9826,5.3565,-0.7652
945,0.4215,-8.2772,-4.3302,5.8435,5.3565,-0.5565
950,0.7281,-8.5071,-4.5601,5.7043,5.2174,-0.6261
955,0.6898,-8.3921,-4.5218,5.4261,5.0087,-0.6261
960,0.5365,-8.2005,-4.3302,5.0783,4.8,-0.6261
965,0.5365,-8.2772,-4.2919,4.8,4.6609,-0.5565
970,0.5365,-8.3921,-4.4835,4.5217,4.5217,-0.5565
975,0.5365,-8.4688,-4.3685,4.2435,4.2435,-0.9043
980,0.4982,-8.4688,-4.3302,4.0348,4.0348,-0.8348
985,0.4215,-8.3921,-4.3685,3.8261,3.8261,-0.9043
990,0.2299,-8.3538,-4.4452,3.687,3.4783,-1.113
995,0.3449,-8.3921,-4.6368,3.6174,3.2,-1.0435
1000,0.3066,-8.4305,-4.1769,3.687,2.9217,-1.2522
1005,0.3832,-8.4688,-4.2919,3.8261,2.5739,-1.3217
1010,0.4215,-8.4305,-4.4835,4.0348,2.2261,-1.3913
1015,0.5748,-8.4688,-4.4068,4.2435,1.9478,-1.5304
1020,0.6131,-8.4305,-4.1769,4.313,1.8087,-1.4609
1025,0.4982,-8.3921,-4.5218,4.3826,1.5304,-1.8087
1030,0.5748,-8.3538,-4.4835,4.5217,1.3217,-1.8783
1035,0.6131,-8.3921,-4.3685,4.3826,1.3217,-1.8783
1040,0.5365,-8.3538,-4.3685,4.3826,1.1826,-1.9478
1045,0.6131,-8.3155,-4.3302,4.1739,1.3913,-1.8783
1050,0.6131,-8.3921,-4.2919,4.1043,1.4609,-2.0174
1055,0.7281,-8.3155,-4.3302,3.9652,1.4609,-2.0174
1060,0.7664,-8.4305,-4.3685,3.8957,1.6696,-1.8783
1065,0.6514,-8.4688,-4.5218,3.6174,1.6696,-1.6696
1070,0.843,-8.3538,-4.2919,3.4783,1.6696,-1.6
1075,0.8047,-8.4688,-4.4068,3.4087,1.8087,-1.4609
1080,0.7664,-8.3921,-4.7517,3.4087,1.8783,-1.2522
1085,0.7281,-8.4305,-4.3685,3.5478,1.8783,-0.9739
1090,0.8047,-8.5071,-4.4068,3.687,1.7391,-0.6957
1095,0.843,-8.4305,-4.3685,4.0348,1.8087,-0.6261
1100,0.7664,-8.5071,-4.3685,4.1739,1.7391,-0.3478
1105,0.7281,-8.4305,-4.5984,4.3826,1.6696,-0.2087
1110,0.8047,-8.3921,-4.4068,4.5913,1.6,0.0
1115,0.843,-8.2772,-4.2919,4.8696,1.5304,0.2087
1120,0.6898,-8.3538,-4.3685,5.1478,1.6,0.2783
1125,0.9197,-8.4688,-4.1769,5.287,1.5304,0.2783
1130,0.7281,-8.3155,-4.2152,5.6348,1.4609,0.1391
1135,0.7281,-8.6987,-4.2536,5.5652,1.3217,0.0696
1140,0.6898,-8.4305,-4.3302,5.6348,1.2522,0.0
1145,0.7281,-8.4305,-4.4835,5.5652,1.113,-0.2087
1150,0.6898,-8.4305,-4.3302,5.5652,1.0435,-0.2783
1155,0.7664,-8.4305,-4.3685,5.4957,0.9043,-0.4174
1160,0.7281,-8.4305,-4.4452,5.4261,0.7652,-0.5565
1165,0.7664,-8.5071,-4.2919,5.287,0.8348,-0.6957
1170,0.7664,-8.3921,-4.3302,5.1478,0.8348,-0.7652
1175,0.8814,-8.4305,-4.3685,5.0087,0.6957,-0.6957
1180,0.7281,-8.3155,-4.4452,4.8696,0.6261,-0.8348
1185,0.5748,-8.4305,-4.6368,4.8,0.6957,-0.9739
1190,0.7664,-8.5071,-4.4068,4.8,0.7652,-0.9043
1195,0.7664,-8.3921,-4.4835,4.8,0.6261,-0.7652
1200,0.6898,-8.3921,-4.5984,4.8696,0.6261,-0.7652
1205,0.6898,-8.3538,-4.4835,4.8696,0.6957,-0.6261
1210,0.8047,-8.3538,-4.5218,5.0087,0.6957,-0.6957
1215,0.6514,-8.2772,-4.5984,5.2174,0.6261,-0.6261
1220,0.7664,-8.2772,-4.5218,5.287,0.5565,-0.5565
1225,0.6898,-8.2772,-4.6368,5.5652,0.4174,-0.5565
1230,0.7664,-8.2772,-4.5218,5.7043,0.4174,-0.487
1235,0.6898,-8.3155,-4.4835,5.8435,0.2783,-0.2783
1240,0.6514,-8.5454,-4.3685,6.1217,0.2783,-0.2783
1245,0.843,-8.2772,-4.3685,6.1913,0.2783,-0.2783
1250,0.6898,-8.4688,-4.5218,6.2609,0.3478,-0.1391
1255,0.6514,-8.3538,-4.4452,6.2609,0.3478,-0.2087
1260,0.6514,-8.3155,-4.2919,6.2609,0.487,-0.2087
1265,0.6898,-8.3921,-4.3685,6.1217,0.5565,-0.0696
1270,0.7664,-8.3921,-4.4452,6.1217,0.6957,-0.1391
1275,0.6898,-8.4688,-4.4452,6.0522,0.9043,-0.1391
1280,0.7281,-8.4305,-4.3302,5.913,1.1826,-0.1391
1285,0.7281,-8.3538,-4.2536,5.9826,1.3913,0.0
1290,0.6131,-8.3155,-4.3685,5.913,1.6,-0.1391
1295,0.6898,-8.2772,-4.1769,5.8435,1.6696,-0.1391
1300,0.5365,-8.3538,-4.4068,5.7043,1.8783,-0.0696
1305,0.6898,-8.5071,-4.3685,5.5652,2.0174,-0.0696
1310,0.7664,-8.3538,-4.3302,5.3565,2.0174,-0.0696
1315,0.5748,-8.3155,-4.3685,5.287,2.087,-0.0696
1320,0.6131,-8.3538,-4.3302,5.1478,2.087,0.0
1325,0.8047,-8.5071,-4.4068,5.1478,2.0174,0.0696
1330,0.6898,-8.4688,-4.4068,5.1478,1.9478,0.1391
1335,0.8047,-8.5071,-4.3302,5.1478,1.8783,0.3478
1340,0.4982,-8.3155,-4.4452,5.0783,1.8783,0.3478
1345,0.7281,-8.5454,-4.2919,5.2174,1.9478,0.2087
1350,0.4982,-8.5838,-4.3685,5.3565,1.9478,0.2783
1355,0.6131,-8.3538,-4.2919,5.4957,1.9478,0.5565
1360,0.6131,-8.4305,-4.2152,5.6348,2.087,0.487
1365,0.6131,-8.4688,-4.3685,5.7043,2.087,0.5565
1370,0.6514,-8.4305,-4.2919,5.7043,2.1565,0.5565
1375,0.5365,-8.3155,-4.2919,5.8435,2.087,0.6261
1380,0.6131,-8.3921,-4.3302,5.6348,2.087,0.7652
1385,0.6514,-8.4688,-4.3302,5.4261,2.087,0.8348
1390,0.7281,-8.6221,-4.3302,5.2174,2.0174,0.6261
1395,0.5748,-8.4688,-4.4068,5.0087,1.8783,0.487
1400,0.5748,-8.5454,-4.1386,4.9391,1.6,0.5565
1405,0.6898,-8.3538,-4.062,4.8,1.4609,0.487
1410,0.5748,-8.4688,-4.2919,4.7304,1.1826,0.4174
1415,0.6898,-8.4305,-4.1386,4.7304,1.0435,0.4174
1420,0.7281,-8.4688,-4.1003,4.8,0.7652,0.4174
1425,0.6898,-8.5838,-4.1003,4.9391,0.6261,0.487
1430,0.6131,-8.5454,-4.1769,5.0087,0.487,0.6261
1435,0.6514,-8.4688,-4.062,5.0087,0.487,0.5565
1440,0.5748,-8.4305,-4.2919,4.8696,0.487,0.5565
1445,0.4982,-8.4688,-4.0236,4.3826,0.4174,0.487
1450,0.5748,-8.5071,-4.1386,3.8261,0.487,0.4174
1455,0.6898,-8.5454,-4.0236,3.3391,0.4174,0.5565
1460,0.5748,-8.5071,-4.062,2.8522,0.2087,0.5565
1465,0.5748,-8.4688,-4.062,2.3652,0.0696,0.4174
1470,0.5365,-8.5454,-4.0236,2.087,-0.1391,0.4174
1475,0.4982,-8.5838,-4.1003,1.9478,-0.1391,0.1391
1480,0.6514,-8.5838,-4.062,2.0174,-0.2783,0.0696
1485,0.5748,-8.5838,-4.2536,2.2957,-0.487,0.2783
1490,0.4598,-8.4688,-4.1769,2.5043,-0.5565,0.1391
1495,0.4982,-8.5454,-4.1386,2.6435,-0.9739,0.0
1500,0.6131,-8.5838,-4.2919,2.9217,-1.113,-0.0696
1505,0.4215,-8.3921,-4.2536,3.1304,-1.3217,-0.1391
1510,0.4982,-8.3921,-4.2536,3.3391,-1.4609,-0.2783
1515,0.7664,-8.5071,-4.3302,3.687,-1.6,-0.3478
1520,0.5365,-8.5454,-4.2152,3.8957,-1.6696,-0.4174
1525,0.6131,-8.5454,-4.1769,3.9652,-1.6696,-0.487
1530,0.6514,-8.6221,-4.1386,4.1043,-1.6,-0.3478
1535,0.5365,-8.5838,-4.2536,4.1043,-1.5304,-0.3478
1540,0.6131,-8.6221,-4.1769,4.1739,-1.5304,-0.0696
1545,0.4598,-8.5071,-4.1386,4.313,-1.3913,-0.0696
1550,0.6514,-8.6987,-4.1386,4.5913,-1.3217,-0.1391
1555,0.6514,-8.5838,-4.2152,4.7304,-1.3217,-0.1391
1560,0.6131,-8.4305,-4.3685,4.9391,-1.2522,-0.1391
1565,0.5748,-8.737,-4.1003,5.0783,-1.113,0.0
1570,0.4982,-8.4688,-4.3302,5.287,-1.1826,0.0
1575,0.6131,-8.5454,-4.1003,5.4957,-1.1826,0.0696
1580,0.5365,-8.4305,-4.1003,5.6348,-1.1826,-0.0696
1585,0.6514,-8.4688,-4.2152,5.7739,-1.113,0.0696
1590,0.5365,-8.4688,-4.2919,5.8435,-1.1826,0.0696
1595,0.5748,-8.3921,-4.3302,5.8435,-1.2522,-0.1391
1600,0.6514,-8.3921,-4.2536,5.7739,-1.3217,-0.2783
1605,0.6514,-8.4688,-4.3302,5.7739,-1.3217,-0.4174
1610,0.6514,-8.4305,-4.4068,5.7043,-1.4609,-0.5565
1615,0.5748,-8.5071,-4.2919,5.5652,-1.5304,-0.7652
1620,0.6514,-8.3155,-4.3302,5.4957,-1.6,-0.9739
1625,0.5365,-8.1622,-4.4835,5.287,-1.6696,-0.9739
1630,0.6898,-8.2772,-4.2152,5.0783,-1.8087,-1.0435
1635,0.5748,-8.2772,-4.3302,5.0087,-1.7391,-1.2522
1640,0.7664,-8.3538,-4.4068,4.7304,-1.6696,-1.5304
1645,0.7281,-8.2772,-4.2919,4.5913,-1.4609,-1.6696
1650,0.7281,-8.2772,-4.3685,4.313,-1.3217,-1.6696
1655,0.6514,-8.3921,-4.4452,3.8957,-1.113,-1.6696
1660,0.5748,-8.2772,-4.4452,3.4783,-0.9739,-1.6696
1665,0.5748,-8.2005,-4.5218,2.9913,-0.9043,-1.4609
1670,0.6131,-8.2772,-4.4068,2.4348,-0.8348,-1.3217
1675,0.5748,-8.4305,-4.3302,1.8783,-0.6261,-1.2522
1680,0.6131,-8.3538,-4.3685,1.3913,-0.4174,-1.113
1685,0.5365,-8.3155,-4.4068,0.9739,-0.2087,-0.9739
1690,0.5748,-8.3538,-4.4452,0.487,0.0,-0.7652
1695,0.5748,-8.3538,-4.2536,0.0696,0.1391,-0.487
1700,0.6514,-8.4305,-4.3685,-0.3478,0.2087,-0.3478
1705,0.6131,-8.4688,-4.2919,-0.7652,0.1391,-0.3478
1710,0.6131,-8.3921,-4.3685,-1.113,0.2087,-0.3478
1715,0.5748,-8.5071,-4.3302,-1.4609,0.1391,-0.3478
1720,0.3832,-8.3921,-4.4835,-1.6696,0.2087,-0.1391
1725,0.3832,-8.3921,-4.4068,-1.6696,0.2783,0.0
1730,0.6898,-8.3538,-4.6751,-1.5304,0.2783,0.0
1735,0.4982,-8.4688,-4.5218,-1.1826,0.2087,-0.0696
1740,0.6898,-8.5454,-4.4452,-0.487,0.2783,-0.0696
1745,0.4598,-8.4305,-4.5601,0.0696,0.2783,-0.0696
1750,0.4215,-8.5071,-4.5218,0.7652,0.2783,-0.0696
1755,0.4982,-8.4688,-4.4068,1.5304,0.4174,0.0
1760,0.4982,-8.5071,-4.4835,2.3652,0.4174,0.0
1765,0.5365,-8.4688,-4.4452,3.0609,0.4174,0.0696
1770,0.5748,-8.6221,-4.1769,3.687,0.5565,0.0696
1775,0.4598,-8.4305,-4.4452,4.1043,0.5565,0.0696
1780,0.6514,-8.3921,-4.5218,4.313,0.5565,-0.0696
1785,0.3449,-8.4688,-4.2919,4.3826,0.6261,0.0696
1790,0.5748,-8.3921,-4.3302,4.4522,0.7652,0.0
1795,0.5365,-8.3538,-4.3302,4.313,0.7652,-0.0696
1800,0.6514,-8.3921,-4.4452,4.313,0.7652,-0.2087
1805,0.7281,-8.5071,-4.3302,4.1043,0.7652,-0.2783
1810,0.4598,-8.3155,-4.3302,3.8957,0.6957,-0.3478
1815,0.6131,-8.3921,-4.4068,3.7565,0.5565,-0.4174
1820,0.5365,-8.3538,-4.2919,3.687,0.487,-0.487
1825,0.4598,-8.2772,-4.6368,3.6174,0.487,-0.5565
1830,0.5365,-8.4305,-4.2152,3.4087,0.2783,-0.7652
1835,0.5748,-8.2772,-4.2536,3.3391,0.2087,-0.8348
1840,0.6131,-8.1622,-4.2152,3.3391,0.1391,-0.7652
1845,0.6131,-8.4305,-4.4068,3.2,0.0696,-0.9043
1850,0.5365,-8.3155,-4.4835,3.1304,0.2087,-0.9739
1855,0.5365,-8.3921,-4.5601,3.0609,0.3478,-0.9739
1860,0.6131,-8.3538,-4.5601,3.0609,0.5565,-0.9043
1865,0.5748,-8.3538,-4.2919,3.0609,0.7652,-0.7652
1870,0.5748,-8.3921,-4.4068,2.9913,0.9043,-0.5565
1875,0.5365,-8.3921,-4.5601,3.0609,0.9739,-0.4174
1880,0.4598,-8.4305,-4.5218,3.0609,1.113,-0.3478
1885,0.3449,-8.3921,-4.4452,3.2,1.1826,-0.3478
1890,0.4215,-8.3921,-4.5218,3.2696,1.3217,-0.3478
1895,0.4598,-8.4305,-4.5601,3.2696,1.3913,-0.2087
1900,0.5365,-8.3921,-4.5218,3.2696,1.4609,-0.0696
1905,0.4598,-8.3921,-4.4835,3.2696,1.5304,-0.2087
1910,0.6514,-8.5071,-4.4452,3.2696,1.5304,-0.2783
1915,0.5748,-8.4688,-4.3302,3.2,1.6,-0.3478
1920,0.4982,-8.4305,-4.2919,3.1304,1.6,-0.4174
1925,0.5365,-8.3921,-4.3685,3.2696,1.6,-0.4174
1930,0.6514,-8.3538,-4.2919,3.2696,1.5304,-0.4174
1935,0.5365,-8.4688,-4.3302,3.3391,1.3913,-0.3478
1940,0.5748,-8.4688,-4.2919,3.4087,1.4609,-0.2783
1945,0.4982,-8.4305,-4.1769,3.4783,1.3913,-0.2783
1950,0.5748,-8.6221,-4.2919,3.7565,1.3217,-0.2783
1955,0.6131,-8.6221,-4.2919,3.8957,1.2522,-0.3478
1960,0.5365,-8.3538,-4.3685,4.1043,1.113,-0.3478
1965,0.4982,-8.4305,-4.3302,4.2435,1.113,-0.2783
1970,0.5748,-8.4688,-4.2536,4.313,0.9739,-0.3478
1975,0.6514,-8.4305,-4.2152,4.4522,0.9043,-0.4174
1980,0.5365,-8.4688,-4.3302,4.5217,0.6957,-0.3478
1985,0.5365,-8.4305,-4.2536,4.4522,0.7652,-0.487
1990,0.6514,-8.5454,-4.3302,4.4522,0.7652,-0.5565
1995,0.5365,-8.3538,-4.1386,4.5217,0.6957,-0.487
2000,0.4982,-8.3921,-4.3302,4.4522,0.7652,-0.487
2005,0.4982,-8.5454,-4.4068,4.313,0.7652,-0.6261
2010,0.6514,-8.5071,-4.2919,4.3826,0.7652,-0.6261
2015,0.4982,-8.4305,-4.3685,4.3826,0.7652,-0.5565
2020,0.5365,-8.5454,-4.3302,4.3826,0.9043,-0.6261
2025,0.4598,-8.4688,-4.4452,4.4522,0.9043,-0.5565
2030,0.4598,-8.3921,-4.3685,4.5217,0.9739,-0.6957
2035,0.5748,-8.4305,-4.2919,4.5913,0.9739,-0.6261
2040,0.4982,-8.5071,-4.3685,4.7304,0.9739,-0.6957
2045,0.6514,-8.4305,-4.2536,4.8696,1.0435,-0.6957
2050,0.5365,-8.4688,-4.5218,5.0087,1.0435,-0.6261
2055,0.5365,-8.4688,-4.3685,4.9391,1.1826,-0.6261
2060,0.6898,-8.6604,-4.2536,5.0783,1.2522,-0.6261
2065,0.5365,-8.4688,-4.4068,5.1478,1.2522,-0.6261
2070,0.6131,-8.5838,-4.3685,5.2174,1.3217,-0.5565
2075,0.5365,-8.3921,-4.4068,5.287,1.2522,-0.487
2080,0.6131,-8.5071,-4.2919,5.3565,1.3217,-0.6261
2085,0.5748,-8.5071,-4.2152,5.4261,1.1826,-0.6957
2090,0.5748,-8.3538,-4.2152,5.4957,1.113,-0.487
2095,0.6898,-8.4688,-4.1769,5.5652,0.9739,-0.4174
2100,0.5365,-8.4688,-4.2536,5.5652,0.8348,-0.487
2105,0.5365,-8.4688,-4.4452,5.6348,0.8348,-0.5565
2110,0.6131,-8.4305,-4.1386,5.5652,0.8348,-0.4174
2115,0.4598,-8.5454,-4.4835,5.5652,0.8348,-0.5565
2120,0.6131,-8.4688,-4.2536,5.4261,0.9739,-0.5565
2125,0.5748,-8.4305,-4.2536,5.4261,0.9739,-0.487
2130,0.5365,-8.5454,-4.2919,5.4261,1.113,-0.5565
2135,0.4982,-8.4305,-4.1386,5.4261,1.113,-0.487
2140,0.4982,-8.4305,-4.1386,5.5652,1.1826,-0.6957
2145,0.5365,-8.4305,-4.1769,5.6348,1.2522,-0.6957
2150,0.4215,-8.4688,-4.1386,5.6348,1.3217,-0.6957
2155,0.6131,-8.4688,-4.4068,5.7739,1.2522,-0.7652
2160,0.6514,-8.6987,-4.2536,5.7739,1.1826,-0.8348
2165,0.5748,-8.5454,-4.2536,5.8435,1.2522,-0.6261
2170,0.4982,-8.5454,-4.2919,5.913,1.1826,-0.6261
2175,0.5365,-8.4305,-4.2152,6.0522,1.0435,-0.7652
2180,0.5748,-8.4305,-4.2536,6.1913,0.9739,-0.6261
2185,0.4982,-8.4305,-4.3685,6.1913,0.9739,-0.6957
2190,0.4982,-8.4688,-4.3302,6.2609,0.8348,-0.6261
2195,0.5748,-8.5071,-4.3302,6.1217,0.8348,-0.6261
2200,0.5365,-8.4688,-4.1386,6.0522,0.9739,-0.5565
2205,0.7281,-8.4688,-4.0236,5.9826,0.9043,-0.5565
2210,0.5365,-8.3538,-4.4068,5.913,0.9739,-0.6957
2215,0.6131,-8.4305,-4.2919,5.8435,1.0435,-0.6261
2220,0.5748,-8.3538,-4.2152,5.6348,1.0435,-0.6261
2225,0.4598,-8.5071,-4.2919,5.6348,0.9739,-0.6957
2230,0.4982,-8.4688,-4.3685,5.5652,0.9739,-0.7652
2235,0.4982,-8.5071,-4.2536,5.4261,0.9043,-0.7652
2240,0.5365,-8.5454,-4.1003,5.3565,0.9043,-0.7652
2245,0.4598,-8.5454,-4.2536,5.3565,0.7652,-0.9043
2250,0.4215,-8.4305,-4.1769,5.4261,0.7652,-1.0435
2255,0.5365,-8.5071,-4.3302,5.4957,0.7652,-1.113
2260,0.5365,-8.6221,-4.2919,5.7043,0.8348,-1.1826
2265,0.5365,-8.4305,-4.3302,5.9826,0.8348,-1.2522
2270,0.4982,-8.6987,-4.062,6.1217,0.9739,-1.2522
2275,0.4982,-8.6987,-4.1003,6.2609,0.9739,-1.113
2280,0.5748,-8.4305,-4.1386,6.3304,1.113,-1.0435
2285,0.4982,-8.3538,-4.2152,6.3304,1.3217,-0.8348
2290,0.5365,-8.3538,-4.1769,6.2609,1.4609,-0.7652
2295,0.4982,-8.4305,-4.3302,6.1913,1.5304,-0.487
2300,0.5365,-8.5838,-4.1003,6.1217,1.6,-0.3478
2305,0.6514,-8.4305,-4.062,5.9826,1.6,-0.2087
2310,0.6514,-8.6221,-4.2536,5.8435,1.5304,-0.2783
2315,0.5365,-8.5071,-4.2536,5.7739,1.4609,-0.3478
2320,0.6898,-8.4305,-4.1769,5.6348,1.3217,-0.3478
2325,0.4982,-8.4688,-4.1386,5.5652,1.2522,-0.3478
2330,0.4598,-8.5454,-4.4068,5.4261,1.1826,-0.5565
2335,0.5365,-8.4305,-4.1769,5.4261,1.0435,-0.5565
2340,0.5365,-8.5838,-4.3685,5.3565,1.0435,-0.6957
2345,0.6514,-8.4305,-4.2919,5.2174,0.8348,-0.9043
2350,0.5748,-8.5454,-4.062,5.2174,0.7652,-0.7652
2355,0.5748,-8.5454,-4.1769,5.1478,0.6957,-0.9043
2360,0.5365,-8.5071,-4.1003,5.1478,0.6261,-0.7652
2365,0.6514,-8.5838,-4.2152,5.2174,0.5565,-0.9043
2370,0.6131,-8.5071,-4.1003,5.2174,0.5565,-0.8348
2375,0.4598,-8.5454,-4.1769,5.3565,0.5565,-0.6957
2380,0.6898,-8.5838,-4.2536,5.4957,0.487,-0.6261
2385,0.4598,-8.4305,-4.2152,5.5652,0.4174,-0.6261
2390,0.6131,-8.6221,-4.2919,5.4957,0.5565,-0.6957
2395,0.4982,-8.3921,-4.0236,5.3565,0.6957,-0.8348
2400,0.6514,-8.4688,-4.2919,5.2174,0.6957,-0.7652
2405,0.6514,-8.4305,-4.2536,4.9391,0.8348,-0.8348
2410,0.6514,-8.4688,-4.3685,4.6609,0.9043,-0.8348
2415,0.5748,-8.4305,-4.3302,4.5217,0.9043,-0.6957
2420,0.5748,-8.4688,-4.2536,4.313,1.113,-0.6261
2425,0.4982,-8.5454,-4.2919,4.0348,1.1826,-0.8348
2430,0.6131,-8.4688,-4.3685,3.8261,1.2522,-0.6957
2435,0.5748,-8.3538,-4.2919,3.8261,1.2522,-0.6261
2440,0.5365,-8.5071,-3.9087,3.8261,1.3217,-0.5565
2445,0.4982,-8.5454,-4.3302,3.8261,1.3217,-0.6261
2450,0.4982,-8.5454,-4.1386,3.8957,1.3217,-0.5565
2455,0.5748,-8.4688,-4.2919,3.9652,1.3217,-0.6261
2460,0.6898,-8.5454,-4.062,4.0348,1.1826,-0.5565
2465,0.6514,-8.4688,-4.2536,4.3826,1.113,-0.6261
2470,0.5365,-8.5071,-4.2919,4.5217,1.113,-0.5565
2475,0.6131,-8.5454,-4.1769,4.7304,1.0435,-0.487
2480,0.5365,-8.6221,-4.2152,5.0087,0.9739,-0.5565
2485,0.6514,-8.6987,-4.3685,5.287,0.9739,-0.6261
2490,0.6131,-8.5071,-4.1769,5.4261,1.113,-0.5565
2495,0.5748,-8.6221,-4.3685,5.5652,1.113,-0.487
2500,0.4982,-8.5071,-4.1386,5.6348,1.0435,-0.5565
2505,0.6131,-8.5071,-4.062,5.7043,0.9739,-0.6261
2510,0.4982,-8.5071,-4.062,5.8435,0.9739,-0.5565
2515,0.5748,-8.5071,-4.1003,5.913,1.113,-0.5565
2520,0.6131,-8.4688,-4.1769,5.913,1.113,-0.5565
2525,0.6131,-8.5071,-4.2536,5.7739,1.0435,-0.6261
2530,0.4215,-8.6221,-4.062,5.7043,1.0435,-0.487
2535,0.3832,-8.5071,-3.9853,5.6348,0.9739,-0.3478
2540,0.5748,-8.4688,-4.2152,5.4261,0.9043,-0.487
2545,0.4982,-8.3921,-4.2536,5.1478,0.8348,-0.5565
2550,0.3066,-8.3155,-4.2152,4.9391,0.8348,-0.5565
2555,0.4982,-8.8137,-4.4068,4.7304,0.6957,-0.5565
2560,0.5365,-8.5071,-4.1003,4.7304,0.6957,-0.487
2565,0.5365,-8.5071,-4.1769,4.5913,0.6957,-0.6261
2570,0.5365,-8.4305,-4.2536,4.4522,0.6261,-0.6957
2575,0.6131,-8.3921,-4.1386,4.313,0.6957,-0.7652
2580,0.6514,-8.5454,-4.1769,4.2435,0.7652,-0.7652
2585,0.6131,-8.5071,-4.1769,4.1043,0.6957,-0.6957
2590,0.5365,-8.4688,-4.3302,3.9652,0.7652,-0.6957
2595,0.6898,-8.6221,-4.1769,4.0348,0.7652,-0.6261
2600,0.4982,-8.3155,-4.1386,3.9652,0.9739,-0.6957
2605,0.5748,-8.7754,-4.1003,3.8957,1.113,-0.7652
2610,0.6131,-8.5071,-4.2536,3.8261,1.113,-0.6957
2615,0.5748,-8.5838,-4.2152,3.6174,1.3217,-0.6261
2620,0.4598,-8.4305,-4.3685,3.6174,1.3913,-0.6261
2625,0.5365,-8.4688,-4.2919,3.6174,1.4609,-0.6261
2630,0.5365,-8.6604,-4.2536,3.6174,1.6,-0.5565
2635,0.5748,-8.5454,-4.2536,3.687,1.6,-0.487
2640,0.6131,-8.5071,-4.2919,3.8957,1.5304,-0.487
2645,0.5748,-8.4305,-4.1003,4.1739,1.3913,-0.5565
2650,0.6898,-8.5071,-4.2152,4.4522,1.3217,-0.487
2655,0.5365,-8.4305,-3.9853,4.7304,1.2522,-0.487
2660,0.5365,-8.3155,-4.3302,4.8696,1.113,-0.487
2665,0.5365,-8.5454,-4.1386,5.0087,1.113,-0.4174
2670,0.4982,-8.3921,-4.1769,5.0783,1.113,-0.5565
2675,0.6131,-8.4305,-4.2536,5.1478,1.2522,-0.5565
2680,0.4982,-8.5071,-4.1769,5.1478,1.2522,-0.5565
2685,0.5365,-8.4305,-4.1769,5.1478,1.3217,-0.487
2690,0.6131,-8.4688,-4.2536,5.0783,1.3913,-0.4174
2695,0.4982,-8.5071,-4.2536,4.8696,1.4609,-0.4174
2700,0.7281,-8.6604,-4.062,4.8696,1.5304,-0.3478
2705,0.5748,-8.5071,-4.1386,4.6609,1.6,-0.3478
2710,0.6514,-8.2389,-3.8704,4.5217,1.6,-0.4174
2715,0.6131,-8.5454,-4.1386,4.3826,1.6696,-0.6957
2720,0.5365,-8.3538,-4.1386,4.313,1.6,-0.5565
2725,0.5365,-8.6604,-4.1386,4.313,1.5304,-0.6261
2730,0.7281,-8.5838,-4.2152,4.313,1.5304,-0.6261
2735,0.6514,-8.5454,-4.1003,4.313,1.5304,-0.6261
2740,0.6514,-8.5838,-4.1003,4.2435,1.3217,-0.6957
2745,0.6514,-8.4688,-4.1769,4.2435,1.3217,-0.6957
2750,0.6131,-8.5454,-4.062,4.3826,1.3217,-0.7652
2755,0.5365,-8.5071,-4.1386,4.6609,1.1826,-0.7652
2760,0.6131,-8.5454,-4.2919,4.7304,1.113,-0.6957
2765,0.4982,-8.5071,-4.2919,4.8696,1.0435,-0.6261
2770,0.6131,-8.5071,-4.1386,5.0783,0.9739,-0.6261
2775,0.5748,-8.6221,-4.062,5.287,0.9739,-0.487
2780,0.6131,-8.5071,-4.1769,5.3565,0.9043,-0.5565
2785,0.6131,-8.4688,-4.1769,5.5652,0.9043,-0.4174
2790,0.6131,-8.4305,-4.1386,5.5652,0.9043,-0.4174
2795,0.4982,-8.5071,-4.1769,5.6348,0.9043,-0.4174
2800,0.4982,-8.4688,-4.1386,5.4957,1.0435,-0.3478
2805,0.5365,-8.5071,-4.1003,5.287,0.9043,-0.4174
2810,0.4598,-8.5454,-4.2152,5.0087,0.9043,-0.487
2815,0.5748,-8.4688,-3.947,4.7304,0.8348,-0.487
2820,0.3832,-8.3538,-4.1386,4.6609,0.8348,-0.5565
2825,0.5748,-8.5071,-4.1769,4.5217,0.9043,-0.6261
2830,0.6131,-8.5454,-4.1003,4.4522,0.8348,-0.8348
2835,0.5748,-8.5454,-4.1769,4.4522,0.8348,-0.9043
2840,0.6514,-8.5071,-4.1769,4.4522,0.9739,-0.9739
2845,0.6514,-8.5838,-4.062,4.4522,0.8348,-1.113
2850,0.5748,-8.5454,-4.062,4.5217,0.8348,-1.1826
2855,0.3832,-8.4688,-4.1769,4.5913,0.8348,-1.1826
2860,0.6131,-8.4688,-4.1386,4.5913,0.7652,-1.2522
2865,0.3832,-8.4688,-4.1386,4.6609,0.7652,-1.1826
2870,0.4982,-8.5071,-4.1769,4.5217,0.7652,-1.113
2875,0.3832,-8.6221,-4.4452,4.5217,0.9043,-1.0435
2880,0.6131,-8.5838,-4.1769,4.4522,1.0435,-1.0435
2885,0.4598,-8.5071,-4.2536,4.313,1.0435,-0.9739
2890,0.4982,-8.4688,-4.2536,4.2435,1.0435,-1.0435
2895,0.5748,-8.4305,-4.1386,4.1739,0.9739,-0.9043
2900,0.4982,-8.5071,-4.1003,4.1043,1.0435,-0.7652
2905,0.6131,-8.5838,-4.1769,4.1739,1.1826,-0.6957
2910,0.7664,-8.6604,-4.1386,4.1739,1.2522,-0.5565
2915,0.5365,-8.4688,-4.2536,4.2435,1.3217,-0.6957
2920,0.4215,-8.4688,-4.1386,4.2435,1.3217,-0.7652
2925,0.5748,-8.6221,-4.1386,4.3826,1.3913,-0.5565
2930,0.4982,-8.6604,-4.0236,4.5913,1.3913,-0.4174
2935,0.5365,-8.5838,-4.1769,4.6609,1.3913,-0.4174
2940,0.6131,-8.5071,-4.1769,4.8,1.4609,-0.3478
2945,0.4982,-8.5454,-4.0236,4.8,1.4609,-0.3478
2950,0.5748,-8.5454,-4.062,4.8,1.4609,-0.487
2955,0.4598,-8.4305,-4.1386,4.8696,1.3913,-0.487
2960,0.5365,-8.4688,-4.0236,4.7304,1.2522,-0.6261
2965,0.5748,-8.5071,-4.062,4.6609,1.1826,-0.6261
2970,0.6898,-8.6221,-3.9087,4.5913,1.1826,-0.7652
2975,0.6131,-8.6604,-4.2536,4.4522,1.1826,-0.7652
2980,0.4982,-8.6604,-4.3302,4.313,1.113,-0.8348
2985,0.4982,-8.2389,-3.9853,4.2435,1.0435,-0.9739
2990,0.6131,-8.5838,-3.947,4.1739,0.9043,-1.1826
2995,0.6131,-8.5838,-4.1386,4.0348,0.9043,-1.113
