timestamp,accX,accY,accZ,gyroX,gyroY,gyroZ
0,0.1916,-9.3118,1.3029,-4.3826,3.687,-0.487
5,0.2682,-9.3118,1.3412,-4.4522,3.6174,-0.3478
10,0.2299,-9.2352,1.2646,-4.5913,3.4783,-0.3478
15,0.3066,-9.3118,1.3029,-4.8,3.4087,-0.2783
20,0.2299,-9.3118,1.4562,-4.8696,3.4087,-0.3478
25,0.2682,-9.3885,1.1113,-4.9391,3.4783,-0.3478
30,0.2682,-9.3885,1.5328,-4.8,3.4087,-0.487
35,0.3449,-9.0436,1.1496,-4.8,3.4783,-0.487
40,0.2299,-9.3502,1.4179,-4.6609,3.5478,-0.487
45,0.2682,-9.4651,1.3795,-4.5217,3.5478,-0.487
50,0.2682,-9.3502,1.3795,-4.3826,3.6174,-0.487
55,0.2682,-9.3885,1.3412,-4.1739,3.8261,-0.3478
60,0.3066,-9.4651,1.2263,-4.0348,3.9652,-0.487
65,0.1916,-9.5801,1.3412,-3.9652,3.8957,-0.4174
70,0.1533,-9.2735,1.1879,-3.9652,3.9652,-0.4174
75,0.1533,-9.3885,1.2646,-3.9652,3.9652,-0.487
80,0.2299,-9.4651,1.3795,-3.8957,3.8957,-0.5565
85,0.3449,-9.2735,1.6478,-3.8261,3.7565,-0.5565
90,0.0,-9.1586,0.5748,-4.1739,3.8957,-0.6957
95,0.2682,-9.2352,1.3412,-4.313,3.9652,-0.6957
100,0.3066,-9.2735,1.1496,-4.5217,3.9652,-0.8348
105,0.2299,-9.4268,1.4179,-4.6609,3.8261,-0.7652
110,0.2299,-9.2735,1.4179,-4.8696,3.8261,-0.6957
115,0.1533,-9.3118,1.3029,-5.0087,3.7565,-0.6261
120,0.2299,-9.3502,1.3029,-4.9391,3.7565,-0.6261
125,0.1533,-9.3502,1.3029,-4.9391,3.687,-0.5565
130,0.2682,-9.2735,1.3795,-5.0087,3.687,-0.487
135,0.115,-9.2735,1.2263,-5.0087,3.687,-0.5565
140,0.2299,-9.2735,1.2263,-5.0783,3.7565,-0.4174
145,0.4598,-9.1202,0.843,-5.1478,3.8957,-0.5565
150,0.3066,-9.3502,1.3795,-5.2174,3.8957,-0.6261
155,0.2682,-9.4268,1.3029,-5.2174,4.1043,-0.5565
160,0.2299,-9.3118,1.3412,-5.3565,4.2435,-0.6261
165,0.115,-9.4268,1.2263,-5.4261,4.1739,-0.5565
170,0.2682,-9.4651,1.3029,-5.6348,3.9652,-0.6261
175,0.1916,-9.3885,1.2263,-5.4261,3.8261,-0.6261
180,0.1916,-9.4268,1.1879,-5.4261,3.687,-0.6261
185,0.2682,-9.2735,1.2263,-5.4261,3.4783,-0.6957
190,0.1533,-9.4651,1.3795,-5.1478,3.4087,-0.6261
195,0.1916,-9.3118,1.1879,-5.0087,3.5478,-0.6957
200,0.2682,-9.5034,1.3029,-4.8,3.687,-0.7652
205,0.1916,-9.3885,1.4179,-4.4522,3.8261,-0.7652
210,0.2682,-9.3118,1.2263,-4.1739,3.8261,-0.8348
215,0.1533,-9.2735,1.3412,-3.8957,3.8957,-0.7652
220,0.2682,-9.3502,1.1496,-3.7565,3.9652,-0.6957
225,0.1916,-9.3118,1.3029,-3.6174,4.0348,-0.6261
230,0.2682,-9.2352,1.3795,-3.4783,4.2435,-0.5565
235,0.1916,-9.3118,1.2646,-3.6174,4.2435,-0.5565
240,0.3449,-9.3118,0.9963,-3.7565,4.313,-0.4174
245,0.2682,-9.4651,1.3412,-3.8957,4.313,-0.4174
250,0.2299,-9.4268,1.3412,-4.313,4.313,-0.2087
255,0.0766,-9.2352,1.1879,-4.5913,4.2435,-0.2087
260,0.3066,-9.4651,1.2263,-4.9391,4.1043,-0.3478
265,0.2682,-9.4651,1.2646,-5.0087,3.8957,-0.4174
270,0.1916,-9.4268,1.1496,-4.8696,3.687,-0.487
275,0.0383,-9.3502,1.1879,-4.6609,3.4087,-0.5565
280,0.3449,-9.5034,1.0346,-4.313,3.2696,-0.6957
285,0.3832,-9.3118,1.1496,-3.8261,3.3391,-0.8348
290,0.2299,-9.5418,1.2263,-3.4087,3.4087,-0.9043
295,0.3066,-9.3118,1.2646,-2.9913,3.5478,-0.9739
300,0.115,-9.3885,1.2646,-2.5739,3.687,-0.9739
305,0.1533,-9.4268,1.3029,-2.2957,3.8261,-0.9739
310,0.1916,-9.4651,1.073,-2.2261,3.7565,-0.8348
315,0.0383,-9.7334,1.8777,-2.2261,3.7565,-0.7652
320,0.115,-9.3502,1.1496,-2.2261,3.687,-0.6957
325,0.3066,-9.4651,1.1879,-2.2261,3.6174,-0.6261
330,0.3449,-9.3885,1.1496,-2.3652,3.6174,-0.5565
335,0.2299,-9.4268,1.1496,-2.5043,3.6174,-0.487
340,0.2299,-9.5418,1.1879,-2.713,3.6174,-0.3478
345,0.2682,-9.4651,1.2263,-2.713,3.4783,-0.2783
350,0.1916,-9.3885,1.1879,-2.5739,3.4783,-0.3478
355,0.0383,-9.5034,1.4562,-2.2957,3.2696,-0.4174
360,-0.0383,-9.3502,1.073,-1.9478,3.1304,-0.2783
365,0.1916,-9.5034,1.3412,-1.4609,3.0609,-0.3478
370,0.3066,-9.5418,1.2263,-0.9739,2.9913,-0.3478
375,0.3066,-9.5034,1.1113,-0.6957,2.9913,-0.4174
380,0.2682,-9.3885,1.1496,-0.4174,2.8522,-0.3478
385,0.1916,-9.3118,0.9963,-0.4174,2.9913,-0.4174
390,0.1916,-9.3118,0.958,-0.6261,3.2,-0.487
395,0.2682,-9.3118,0.958,-0.9739,3.3391,-0.4174
400,0.1916,-9.2735,1.2646,-1.1826,3.4783,-0.3478
405,0.3449,-9.2352,1.1879,-1.2522,3.6174,-0.4174
410,0.2299,-9.4651,1.1879,-1.6,3.687,-0.3478
415,0.0766,-9.3502,0.8814,-1.8087,3.7565,-0.4174
420,0.1916,-9.3502,1.1879,-1.8087,3.7565,-0.487
425,0.1533,-9.3502,1.1496,-1.8783,3.687,-0.5565
430,0.1916,-9.4651,1.1496,-1.8087,3.7565,-0.6261
435,0.3066,-9.3885,1.1113,-1.6,3.7565,-0.8348
440,0.1533,-9.3502,1.2263,-1.3913,3.7565,-0.6957
445,0.2299,-9.3885,1.1496,-1.2522,3.7565,-0.8348
450,0.0383,-9.3885,1.073,-1.113,3.6174,-0.7652
455,0.3449,-9.3885,1.073,-1.2522,3.5478,-0.9043
460,0.2682,-9.3502,1.2263,-1.2522,3.3391,-0.7652
465,0.2299,-9.5418,1.1879,-1.3217,3.2,-0.6957
470,0.6514,-9.3118,0.8814,-1.4609,3.2,-0.6261
475,0.115,-9.3118,1.1496,-1.6,3.0609,-0.5565
480,0.2299,-9.2352,1.1496,-1.7391,2.9217,-0.487
485,0.1916,-9.3118,1.1879,-1.9478,2.9913,-0.5565
490,0.3449,-9.3502,1.1879,-2.087,2.9913,-0.4174
495,0.3449,-9.3502,1.1113,-2.2957,3.0609,-0.487
500,0.1916,-9.3502,1.1113,-2.3652,3.0609,-0.487
505,0.2299,-9.3885,1.1113,-2.5043,3.2,-0.5565
510,0.1916,-9.3885,1.0346,-2.713,3.4087,-0.5565
515,0.3832,-9.3885,1.073,-2.713,3.5478,-0.6957
520,0.1916,-9.4268,1.2646,-2.7826,3.6174,-0.6261
525,-0.0766,-9.3885,0.9963,-2.5739,3.6174,-0.6261
530,0.1916,-9.4651,1.0346,-2.2957,3.5478,-0.6261
535,0.2682,-9.4268,1.073,-1.9478,3.5478,-0.6957
540,0.3449,-9.4651,1.073,-1.7391,3.4783,-0.6261
545,0.4215,-9.4268,0.9963,-1.3217,3.4087,-0.6261
550,0.1916,-9.3885,1.0346,-1.0435,3.3391,-0.5565
555,0.1533,-9.3502,1.1496,-0.7652,3.4087,-0.6261
560,0.2299,-9.3502,1.073,-0.5565,3.4087,-0.5565
565,0.1533,-9.4268,1.1113,-0.4174,3.4783,-0.6261
570,0.0,-9.3118,1.2646,-0.3478,3.6174,-0.5565
575,0.2299,-9.5034,0.9963,-0.487,3.687,-0.6957
580,0.3832,-9.3502,0.843,-0.6261,3.7565,-0.7652
585,0.1916,-9.3885,1.1496,-0.6957,3.8261,-0.9739
590,0.1916,-9.4268,1.1496,-0.6261,3.7565,-0.9043
595,0.2682,-9.5418,1.1113,-0.4174,3.687,-0.9739
600,0.2682,-9.5034,1.1879,0.0,3.6174,-1.0435
605,0.3449,-9.5418,1.0346,0.4174,3.6174,-1.113
610,0.1533,-9.4268,1.073,1.113,3.687,-1.0435
615,0.2299,-9.5034,1.3029,1.7391,3.7565,-1.113
620,0.2682,-9.4268,1.2263,2.1565,3.8957,-1.0435
625,0.1916,-9.3885,1.0346,2.3652,4.1043,-0.9739
630,0.1916,-9.5034,1.1496,2.4348,4.3826,-0.9739
635,0.3832,-10.3848,1.1496,2.2957,4.5217,-1.113
640,0.2682,-9.4651,1.1879,2.1565,4.8,-1.0435
645,0.2299,-9.4651,1.0346,2.2957,5.0087,-0.9739
650,0.3066,-9.3502,1.073,2.5043,5.0783,-0.8348
655,0.2299,-9.3118,1.1879,2.713,5.1478,-0.9739
660,0.2682,-9.3502,1.1879,3.0609,5.1478,-0.9043
665,0.3066,-9.3118,1.1496,3.3391,4.9391,-0.9043
670,0.2299,-9.3885,1.3029,3.5478,4.9391,-0.6957
675,0.115,-9.3885,1.2646,3.5478,4.6609,-0.6957
680,0.2299,-9.3502,1.0346,3.5478,4.5217,-0.487
685,0.3449,-9.2352,1.1496,3.4783,4.313,-0.487
690,0.2682,-9.6567,1.6478,3.2,4.2435,-0.3478
695,0.3449,-9.4268,1.1496,2.9217,4.1043,-0.3478
700,0.2682,-9.2352,1.2646,2.2261,3.9652,-0.2783
705,0.4215,-9.4651,1.2263,1.6696,3.8957,-0.3478
710,0.3066,-9.4268,1.1113,1.113,3.8261,-0.2087
715,0.3066,-9.3502,1.2263,0.6957,3.7565,-0.2087
720,0.3066,-9.2735,1.2263,0.4174,3.687,-0.2087
725,0.3832,-9.3502,1.2646,0.2783,3.6174,-0.2087
730,0.3066,-9.3885,1.3795,0.2087,3.6174,0.0
735,0.2682,-9.3502,1.3029,0.1391,3.5478,-0.2087
740,0.4598,-9.2352,1.2263,0.1391,3.4087,0.0
745,0.0383,-9.2735,1.4179,0.487,3.3391,-0.0696
750,0.3449,-9.4268,1.1496,0.487,3.3391,0.0696
755,0.2682,-9.3502,1.1879,0.6261,3.3391,0.0696
760,0.3066,-9.4268,1.1496,0.9043,3.4783,0.1391
765,0.2299,-9.3502,1.1496,0.9739,3.4087,0.1391
770,0.3066,-9.4268,1.1496,1.113,3.4087,0.2087
775,0.2682,-9.4651,1.4179,1.1826,3.3391,0.2087
780,0.2299,-9.3502,1.2263,1.3913,3.3391,0.2087
785,0.1916,-9.4268,1.1113,1.5304,3.2,0.0696
790,0.1533,-9.4268,1.4179,1.5304,3.4087,0.1391
795,0.1533,-9.4651,1.2646,1.5304,3.6174,0.0696
800,0.1533,-9.3885,1.3412,1.3217,3.7565,0.2087
805,0.0766,-9.6184,1.2646,1.2522,3.9652,0.0696
810,0.115,-9.3118,1.1879,1.0435,4.0348,0.1391
815,0.1916,-9.4651,1.2646,0.9739,4.1739,0.1391
820,0.115,-9.3885,1.3412,1.0435,4.1043,0.2087
825,0.2299,-9.3502,1.3029,1.2522,3.8957,0.2087
830,0.1533,-9.3118,1.3412,1.5304,3.687,0.487
835,0.1533,-9.5418,1.4179,1.8783,3.5478,0.3478
840,0.1916,-9.3118,1.2263,2.087,3.4783,0.5565
845,0.1533,-9.4651,1.1879,2.2261,3.4783,0.2783
850,0.5365,-9.3118,0.6898,2.2261,3.6174,0.3478
855,0.0766,-9.3502,1.2646,2.087,3.7565,0.2087
860,0.3066,-9.4651,1.073,1.8783,3.9652,0.2087
865,0.1533,-9.3118,1.2263,1.8783,4.1739,0.0
870,0.2299,-9.2735,1.1113,1.9478,4.2435,0.0
875,0.1916,-9.4651,1.1879,1.8783,4.2435,-0.1391
880,0.0766,-9.4651,1.073,2.0174,4.1739,-0.0696
885,0.2299,-9.3885,1.1496,2.1565,3.8957,-0.2783
890,0.1533,-9.3885,1.2646,2.4348,3.687,-0.2087
895,0.1916,-9.4268,1.1879,2.5739,3.5478,-0.3478
900,0.2299,-9.4651,1.2263,2.9217,3.4087,-0.3478
905,0.2682,-9.5034,1.7627,3.2,3.2696,-0.487
910,0.1916,-9.3502,1.1879,3.687,3.3391,-0.6261
915,0.2299,-9.3885,1.2646,3.8957,3.4087,-0.8348
920,0.1533,-9.3502,1.073,4.0348,3.7565,-0.8348
925,0.2299,-9.2735,1.3029,4.2435,4.0348,-1.0435
930,0.2299,-9.3118,1.2646,4.313,4.2435,-0.9739
935,0.1533,-9.3502,1.1496,4.2435,4.4522,-1.0435
940,0.1916,-9.2352,1.0346,4.1739,4.6609,-0.9043
945,0.1916,-9.3502,1.2646,4.0348,4.7304,-1.113
950,0.2682,-9.3502,1.3029,3.8957,4.9391,-0.9043
955,0.1916,-9.3502,1.2646,3.7565,5.1478,-0.9043
960,-0.1916,-9.1969,1.1496,3.687,5.2174,-0.7652
965,0.3066,-9.3118,1.1496,3.7565,5.3565,-0.7652
970,0.2299,-9.3118,1.3795,3.7565,5.3565,-0.5565
975,0.3832,-9.4268,1.2263,3.9652,5.3565,-0.6957
980,0.2682,-9.3502,1.3029,4.1043,5.2174,-0.3478
985,0.3449,-9.3885,1.4179,4.313,5.0783,-0.4174
990,0.3832,-9.3118,1.1879,4.4522,4.9391,-0.1391
995,0.2299,-9.2735,1.4562,4.5217,4.8,-0.2783
1000,0.3449,-9.3118,1.3795,4.5217,4.5913,0.0
1005,0.1533,-9.3502,1.4562,4.3826,4.5217,-0.2087
1010,0.3066,-9.2735,1.5711,4.3826,4.313,0.0
1015,0.2682,-9.6567,1.8394,4.1739,4.1739,-0.1391
1020,0.2682,-9.3118,1.3412,4.0348,4.0348,-0.0696
1025,0.2299,-9.3885,1.4562,3.7565,3.8261,-0.2783
1030,0.2682,-9.3118,1.4179,3.6174,3.8261,-0.2087
1035,0.2682,-9.3885,1.3412,3.6174,3.7565,-0.487
1040,0.1533,-9.1586,1.4562,3.687,3.6174,-0.4174
1045,0.1916,-9.2735,1.5328,3.8957,3.687,-0.6261
1050,0.2682,-9.3502,1.4179,4.1043,3.687,-0.6957
1055,0.3449,-9.1969,1.4945,4.1739,3.8957,-0.9043
1060,0.3066,-9.3502,1.5711,4.3826,4.1043,-0.8348
1065,0.4215,-9.3118,1.3412,4.5217,4.1739,-0.9043
1070,0.115,-8.6987,1.0346,4.5217,4.313,-0.9043
1075,0.1916,-9.1586,1.4562,4.2435,4.4522,-1.0435
1080,0.2682,-9.3118,1.3795,3.8957,4.5217,-0.7652
1085,0.2299,-9.3502,1.4179,3.4783,4.6609,-0.9043
1090,0.3066,-9.4268,1.4945,3.0609,4.5913,-0.7652
1095,0.3449,-9.3118,1.5328,2.9217,4.5913,-0.9043
1100,0.3066,-9.2735,1.5328,2.9217,4.6609,-0.7652
1105,0.3066,-9.3502,1.7627,2.9913,4.5913,-0.7652
1110,0.3066,-9.4651,1.5711,3.4087,4.5913,-0.6261
1115,0.3449,-9.4268,1.6478,3.9652,4.3826,-0.6957
1120,0.2299,-9.2352,1.7627,4.6609,4.2435,-0.5565
1125,0.5748,-8.9286,1.3412,5.3565,4.1043,-0.487
1130,0.1916,-9.3118,1.5328,6.1217,3.8957,-0.3478
1135,0.2682,-9.2735,1.5711,6.7478,3.687,-0.4174
1140,0.2299,-9.3118,1.4945,7.2348,3.6174,-0.3478
1145,0.2682,-9.2352,1.5328,7.1652,3.8261,-0.4174
1150,0.2682,-9.3502,1.5328,7.0261,3.7565,-0.2087
1155,0.2299,-9.1969,1.4945,6.4696,3.8957,-0.3478
1160,0.1533,-9.3118,1.7244,5.8435,4.1739,-0.1391
1165,0.3832,-9.2735,1.4179,5.287,4.4522,-0.3478
1170,0.2682,-9.1969,1.3795,4.6609,4.8,-0.0696
1175,0.1916,-9.2735,1.6095,4.1739,5.0087,-0.2783
1180,-0.3066,-9.4651,1.9927,3.8261,5.2174,-0.1391
1185,0.1916,-9.1969,1.4945,3.4087,5.287,-0.4174
1190,0.1916,-9.2352,1.4945,3.2,5.4261,-0.2087
1195,0.1916,-9.2735,1.5328,2.9217,5.5652,-0.4174
1200,0.2682,-9.3502,1.4945,2.5739,5.4957,-0.2783
1205,0.1916,-9.2735,1.4945,2.087,5.5652,-0.487
1210,0.2682,-9.3118,1.6095,1.7391,5.5652,-0.4174
1215,0.3449,-9.3885,1.4945,1.6,5.3565,-0.5565
1220,0.2682,-9.3885,1.6861,1.6,5.287,-0.4174
1225,0.2682,-9.2735,1.7244,1.6696,5.1478,-0.6261
1230,0.4215,-9.4268,1.916,1.8087,5.0087,-0.5565
1235,0.4215,-9.0053,1.1113,2.1565,4.8,-0.6261
1240,0.1533,-9.1202,1.6095,2.4348,4.7304,-0.487
1245,0.3066,-9.3118,1.6095,2.5739,4.5217,-0.6261
1250,0.3066,-9.2735,1.6478,2.7826,4.313,-0.3478
1255,0.2299,-9.3118,1.5711,2.9217,4.2435,-0.4174
1260,0.2299,-9.2735,1.5711,2.7826,4.0348,-0.1391
1265,0.1533,-9.1969,1.5711,2.6435,3.9652,-0.2087
1270,0.2299,-9.3118,1.7244,2.5739,3.9652,0.0696
1275,0.3832,-9.3502,1.6095,2.5043,3.8957,-0.0696
1280,0.4215,-9.2735,1.4562,2.5043,3.8957,0.0696
1285,0.2299,-9.2735,1.5711,2.4348,3.8261,-0.1391
1290,-0.0766,-9.2735,2.031,2.4348,3.8261,0.0
1295,0.2299,-9.2352,1.6478,2.3652,3.7565,-0.1391
1300,0.1533,-9.1969,1.8011,2.2957,3.8261,-0.0696
1305,0.2682,-9.3118,1.8011,2.1565,3.9652,-0.3478
1310,0.3066,-9.3118,1.6095,1.9478,4.1043,-0.2087
1315,0.2682,-9.3118,1.6095,1.3913,4.2435,-0.2783
1320,0.2299,-9.2735,1.6861,0.8348,4.2435,-0.2087
1325,0.2299,-9.2735,1.5328,0.487,3.9652,-0.2783
1330,0.2299,-9.2735,1.6478,0.2783,3.8261,-0.0696
1335,0.2299,-9.2352,1.6095,-0.0696,3.687,0.0
1340,0.0,-9.3118,1.7627,0.0,3.7565,0.1391
1345,0.2682,-9.2735,1.6478,-0.1391,3.7565,0.0
1350,0.3832,-9.3118,1.7244,-0.2783,3.8957,0.0696
1355,0.1916,-9.3118,1.6095,-0.2087,3.9652,-0.0696
1360,0.3066,-9.2735,1.5328,-0.3478,4.0348,0.0
1365,0.1916,-9.2735,1.5711,-0.2783,3.8957,-0.2087
1370,0.3449,-9.1969,1.6861,-0.0696,3.9652,-0.0696
1375,0.2682,-9.1202,1.916,0.2087,3.9652,-0.2087
1380,0.2299,-9.2735,1.8011,0.3478,3.9652,0.0
1385,0.1533,-9.3885,1.7244,0.3478,3.8957,-0.2783
1390,0.1533,-9.2735,1.5711,0.2783,3.8957,-0.1391
1395,-0.2682,-9.1969,1.9543,0.0,3.8261,-0.1391
1400,0.1533,-9.3118,1.6861,-0.4174,3.7565,0.0
1405,0.0383,-9.2352,1.8011,-0.8348,3.5478,-0.2087
1410,0.115,-9.2352,1.6478,-1.113,3.6174,-0.0696
1415,0.1533,-9.2352,1.7244,-1.2522,3.5478,-0.2783
1420,0.1916,-9.3118,1.6478,-1.4609,3.6174,-0.0696
1425,0.2299,-9.2352,1.6861,-1.3913,3.4783,-0.2087
1430,0.2299,-9.2735,1.7244,-1.3217,3.5478,0.0
1435,0.1916,-9.0819,1.5328,-1.3913,3.5478,-0.1391
1440,0.3449,-9.2352,1.7244,-1.3913,3.4087,0.1391
1445,0.2682,-9.1969,1.6478,-1.3913,3.3391,0.0
1450,-0.0383,-9.3502,1.9543,-1.3913,3.4087,0.1391
1455,0.1916,-9.1969,1.6478,-1.3913,3.4783,-0.1391
1460,0.2682,-9.3502,1.6478,-1.3913,3.4783,0.0
1465,0.2299,-9.2352,1.6861,-1.2522,3.4087,-0.1391
1470,0.2682,-9.3118,1.7244,-1.3217,3.3391,0.0
1475,0.1916,-9.2735,1.6095,-1.3913,3.3391,-0.1391
1480,0.2682,-9.3118,1.7244,-1.6,3.2,0.0
1485,0.2299,-9.3502,1.7244,-1.7391,2.9913,-0.1391
1490,0.1533,-9.1202,1.5711,-2.087,2.9913,0.0
1495,0.3066,-9.1202,1.6478,-2.4348,2.9913,-0.1391
1500,0.1916,-9.2352,1.6861,-2.713,3.0609,0.0
1505,0.1916,-9.3502,1.7627,-2.9217,3.1304,-0.2087
1510,0.1533,-9.2735,1.8394,-3.6174,3.2,-0.0696
1515,0.2682,-9.2352,1.8777,-4.1739,2.9913,-0.2783
1520,0.1916,-9.2352,1.916,-4.8,2.6435,0.0
1525,0.1916,-9.3118,1.9927,-5.5652,2.5739,-0.2783
1530,0.1533,-9.1969,1.8394,-6.4,2.087,-0.0696
1535,0.2299,-9.1586,1.916,-7.6522,1.5304,-0.1391
1540,0.1533,-9.1202,1.7627,-9.7391,0.8348,0.1391
1545,0.3832,-9.1202,1.8777,-12.0348,0.3478,0.0
1550,0.2299,-9.0053,1.6861,-14.7478,-0.1391,0.2783
1555,0.1916,-9.0053,1.7244,-17.7391,-0.3478,0.0696
1560,0.115,-9.3885,2.031,-21.287,-0.487,0.1391
1565,0.2682,-8.9286,1.2646,-25.1826,-0.4174,-0.2087
1570,0.2682,-8.9286,1.073,-29.0087,-0.0696,-0.3478
1575,0.3066,-9.0053,0.958,-32.4174,0.3478,-0.8348
1580,0.2299,-9.1586,0.9963,-34.2957,1.3913,-1.113
1585,0.1916,-9.1586,1.073,-34.5043,3.2696,-1.7391
1590,0.1533,-9.2352,1.1879,-33.0435,4.9391,-2.0174
1595,0.0766,-9.1969,0.958,-31.0957,6.3304,-2.5739
1600,0.0766,-9.2352,1.1496,-29.5652,7.8609,-2.9217
1605,0.2299,-8.9286,0.8047,-29.0087,9.3913,-3.7565
1610,0.3449,-8.9286,1.1496,-29.9826,11.0609,-4.5913
1615,-0.0383,-8.9286,1.5711,-32.1391,12.3826,-5.8435
1620,0.3832,-8.852,1.073,-34.9217,13.287,-6.7478
1625,0.4215,-8.967,1.0346,-37.4261,13.6348,-8.0696
1630,0.4598,-9.1202,1.1879,-39.6522,13.2174,-8.8348
1635,0.3832,-9.1586,1.1879,-41.3913,11.8957,-9.8783
1640,0.3832,-9.3118,1.3029,-43.1304,10.5739,-9.8783
1645,0.4598,-9.2735,1.1496,-44.2435,9.3913,-9.6696
1650,0.4598,-9.3885,1.2263,-44.8696,8.6261,-8.9739
1655,0.1533,-9.4268,1.3029,-44.8696,7.7217,-8.4174
1660,0.3832,-9.5418,1.073,-44.3826,6.7478,-7.4435
1665,0.4215,-9.695,1.2646,-43.7565,6.1913,-6.7478
1670,0.1916,-10.1932,1.4179,-43.5478,5.7043,-5.7739
1675,0.3066,-9.7717,0.7664,-43.4783,5.287,-5.0783
1680,0.2299,-9.81,0.5748,-43.4783,5.287,-4.1739
1685,0.1916,-9.8483,0.5748,-42.713,5.3565,-3.5478
1690,0.3066,-9.8866,0.2682,-40.8348,5.913,-2.5739
1695,0.3449,-9.8866,0.115,-38.0522,6.887,-1.8783
1700,0.3066,-9.8483,0.0766,-34.6435,7.4435,-0.8348
1705,0.3066,-9.8483,0.0383,-31.3043,7.7217,-0.2783
1710,0.1533,-9.7334,-0.1533,-28.0348,7.3739,0.487
1715,0.3832,-9.7334,-0.115,-25.1826,6.9565,0.6957
1720,0.3449,-9.6184,-0.1533,-23.3043,6.6783,1.1826
1725,0.2682,-9.695,0.2682,-22.5391,6.6087,1.0435
1730,0.3066,-9.5034,0.0,-22.7478,6.6087,1.0435
1735,0.3066,-9.3885,0.0,-23.3739,6.4,0.5565
1740,0.3832,-9.4651,0.0383,-24.5565,6.3304,0.3478
1745,0.2299,-9.1969,0.1916,-25.5304,6.4,0.1391
1750,0.4215,-9.2352,0.1916,-26.9217,6.7478,0.1391
1755,0.4982,-9.1586,0.2682,-28.5217,7.2348,-0.2783
1760,0.4598,-9.0436,0.2682,-30.5391,7.9304,-0.3478
1765,0.4982,-9.1202,0.2682,-32.487,8.487,-0.8348
1770,0.4982,-9.1202,0.3449,-34.2957,8.9739,-0.8348
1775,0.6514,-9.2352,0.3832,-35.9652,9.1826,-1.113
1780,0.5365,-9.1586,0.4215,-37.287,9.5304,-0.9739
1785,0.5748,-9.1586,0.4598,-38.2609,9.8087,-1.1826
1790,0.6898,-9.3502,0.4598,-38.6783,9.8087,-0.8348
1795,0.6898,-9.3118,0.6898,-38.6087,9.8087,-0.6957
1800,0.6514,-9.4651,0.843,-38.4,9.9478,-0.0696
1805,0.2299,-9.3502,0.6898,-38.6087,9.7391,0.2087
1810,0.2299,-9.3885,0.958,-38.7478,9.1826,0.9739
1815,0.1533,-9.2735,1.1879,-39.6522,8.1391,1.3217
1820,0.0383,-9.1202,1.1496,-40.9739,6.7478,1.9478
1825,-0.1916,-9.0819,1.2646,-43.0609,5.5652,2.087
1830,-0.1916,-8.9286,1.7627,-45.8435,4.2435,2.4348
1835,0.1533,-8.8903,1.8394,-48.9043,2.8522,2.2261
1840,-0.2299,-8.737,1.8394,-52.0348,0.8348,2.0174
1845,-0.1916,-8.5454,1.7244,-54.887,-1.1826,1.4609
1850,-0.115,-8.2389,1.5711,-58.7826,-3.7565,1.1826
1855,-0.1533,-7.8557,1.4945,-64.0696,-6.6783,0.7652
1860,0.0766,-7.6641,1.6861,-70.5391,-9.1826,0.5565
1865,0.1533,-7.7024,1.8777,-76.6609,-10.5739,0.487
1870,0.1916,-7.9706,2.2226,-81.3913,-11.1304,1.0435
1875,0.3066,-8.2772,2.9123,-83.2696,-10.8522,1.7391
1880,0.3066,-8.852,3.1423,-82.6435,-9.8783,2.713
1885,0.9197,-9.1969,3.832,-81.113,-8.9739,3.5478
1890,0.7664,-9.4268,4.2919,-80.1391,-7.3043,4.1739
1895,0.5748,-9.7717,4.4068,-80.9043,-5.4957,3.8957
1900,0.4598,-10.0782,4.9433,-82.8522,-3.9652,3.4087
1905,0.4215,-10.4998,5.1732,-85.2174,-3.6174,3.2
1910,0.4982,-10.7297,4.9433,-88.6261,-4.8,3.6174
1915,0.3832,-10.9213,4.5601,-93.4261,-6.1217,3.8957
1920,0.3066,-11.3428,4.5218,-98.6435,-7.0261,4.7304
1925,0.1533,-11.5727,4.1386,-104.4174,-8.0,5.4261
1930,0.2682,-12.1859,3.6404,-110.4696,-9.0435,6.7478
1935,0.3832,-12.7607,2.5675,-118.5391,-10.2261,8.487
1940,-0.0383,-14.2935,1.3795,-130.9217,-11.7565,10.713
1945,-0.1533,-15.9413,0.7281,-142.887,-13.8435,12.8696
1950,-0.6898,-17.7806,0.4982,-152.9043,-17.5304,15.6522
1955,-0.5748,-19.62,0.6514,-157.2174,-21.5652,18.5043
1960,0.2299,-20.9995,0.7281,-153.3913,-22.6783,20.8696
1965,1.6861,-22.0342,0.5748,-140.8,-20.0348,19.1304
1970,2.3375,-22.1491,-0.6131,-120.9739,-13.9826,13.9826
1975,2.1843,-21.3061,-2.5291,-100.5217,-7.513,7.6522
1980,1.2646,-20.2714,-3.7171,-84.6609,-4.8696,2.0174
1985,0.8814,-19.5434,-3.6787,-72.5565,-6.6783,-3.7565
1990,1.1496,-19.735,-2.1843,-58.2957,-8.0696,-6.2609
1995,1.6478,-19.8116,-1.6478,-44.1739,-5.6348,-7.0957
2000,1.4562,-19.9649,-0.958,-27.1304,-0.9043,-7.3043
2005,1.1113,-19.8116,-0.8814,-10.3652,1.3217,-6.4
2010,0.8047,-19.3518,-1.0346,2.2957,-0.6261,-4.6609
2015,0.4215,-18.2021,-1.6861,9.3913,-4.5217,-4.8696
2020,0.3066,-17.1292,-2.3759,10.087,-7.5826,-5.9826
2025,0.3066,-16.1329,-3.0656,3.687,-9.1826,-7.7913
2030,0.4982,-15.9796,-3.4871,-7.5826,-9.8087,-9.3217
2035,0.6514,-16.0562,-3.7171,-21.0087,-10.7826,-10.6435
2040,0.6514,-16.5927,-3.832,-35.3391,-10.9913,-10.3652
2045,0.3832,-16.9759,-3.9853,-42.4348,-10.9913,-9.3217
2050,0.3066,-17.6273,-3.7554,-44.0348,-11.4783,-8.0696
2055,0.115,-17.9339,-3.7937,-39.7913,-12.313,-7.4435
2060,0.1916,-17.9339,-3.9853,-31.0957,-13.0783,-7.0261
2065,0.1916,-17.6657,-4.062,-19.4087,-13.8435,-7.7217
2070,0.3449,-17.2058,-4.1769,-7.1652,-14.1217,-8.2783
2075,0.4598,-16.8226,-4.2536,3.8957,-13.9826,-9.5304
2080,0.4982,-16.1712,-4.2152,12.313,-13.287,-10.5043
2085,0.5365,-15.5964,-4.062,18.3652,-12.3826,-11.7565
2090,0.4598,-14.8683,-4.0236,23.6522,-11.5478,-12.4522
2095,0.5365,-14.2935,-3.832,26.5043,-10.8522,-13.0783
2100,-0.115,-13.4504,-3.7171,28.8696,-10.6435,-13.2174
2105,0.2299,-13.0672,-3.5638,30.4696,-10.713,-12.8
2110,0.2682,-12.7223,-3.1423,31.5826,-11.2,-12.1739
2115,0.115,-12.3008,-3.2572,32.0696,-12.2435,-12.1739
2120,0.1916,-11.6877,-2.9123,32.0696,-12.9391,-11.4087
2125,-0.115,-10.9596,-2.7207,32.8348,-14.1217,-11.0609
2130,-0.1916,-10.653,-2.874,33.8087,-15.3043,-10.2261
2135,-0.1916,-10.0016,-2.5291,34.0174,-16.5565,-9.113
2140,-0.2299,-9.7334,-2.5291,34.087,-17.9478,-7.6522
2145,-0.3066,-9.3885,-2.874,33.8087,-19.4087,-6.6783
2150,0.0383,-8.7754,-1.916,33.6,-20.5217,-5.2174
2155,-0.1533,-8.0089,-2.3375,37.4261,-21.7043,-4.1043
2160,-0.1916,-7.6641,-2.6824,40.6261,-22.9565,-3.1304
2165,-0.0766,-6.821,-2.3375,41.8087,-23.513,-2.2957
2170,-0.1916,-5.9396,-2.2226,44.1739,-23.1652,-0.9739
2175,0.0,-5.2499,-1.9927,47.0261,-22.6783,0.9043
2180,0.1916,-4.5218,-1.7627,48.6957,-22.3304,2.3652
2185,0.2682,-3.6021,-1.4945,49.8087,-21.8435,2.4348
2190,0.0,-2.7591,-1.2263,50.9913,-21.0783,1.8087
2195,0.115,-2.1459,-1.1879,51.4783,-20.8,0.9043
2200,-0.0383,-1.2646,-1.073,50.5043,-20.1043,-0.3478
2205,0.1533,-0.2682,-1.3795,48.9043,-18.4348,-1.3913
2210,-0.2682,0.2299,-0.4598,47.0261,-16.9043,-1.8783
2215,-0.3066,0.843,-0.4982,44.8,-15.7217,-1.9478
2220,-0.3832,1.6478,-0.2682,40.6957,-14.4696,-2.1565
2225,-0.3832,2.1459,-0.3449,36.1043,-13.4957,-2.9217
2230,-0.5365,2.5291,-0.6898,31.7217,-13.1478,-1.6696
2235,-0.5748,2.7207,-0.4982,25.8783,-12.8696,0.6261
2240,-0.3066,2.6824,-0.4598,17.4609,-12.0348,1.8783
2245,-0.3449,2.4908,-0.8047,8.487,-10.7826,2.0174
2250,0.2299,2.2609,-1.1113,-1.3217,-8.9043,3.1304
2255,0.0766,1.916,-1.4179,-12.0348,-6.4696,3.2696
2260,0.4982,1.5328,-1.9543,-22.6087,-3.1304,3.687
2265,0.1916,0.843,-1.6861,-32.1391,-0.2087,3.4087
2270,0.3066,0.1916,-1.8011,-40.2087,2.3652,2.713
2275,0.0766,-0.4598,-1.8777,-46.6087,4.313,0.4174
2280,0.0,-0.9963,-2.1076,-49.3217,5.8435,-0.8348
2285,-0.0766,-1.8011,-2.6824,-48.0696,7.1652,-2.5043
2290,-0.3066,-2.4908,-2.4525,-42.1565,7.7217,-4.1043
2295,-0.4598,-3.1039,-2.9507,-29.9826,6.2609,-5.5652
2300,-0.5748,-3.8704,-3.5638,-14.4,2.6435,-7.3739
2305,-0.6514,-3.7937,-3.4105,0.0696,-2.4348,-8.4174
2310,-0.4982,-3.5638,-3.7937,14.9565,-9.0435,-8.487
2315,-0.8047,-2.9123,-3.9853,28.9391,-15.7217,-9.6696
2320,-0.8814,-3.2189,-4.6751,39.5826,-21.5652,-10.2261
2325,-0.9197,-3.5638,-5.4032,45.7739,-25.8087,-10.0174
2330,-0.5365,-3.7171,-5.02,44.5217,-27.8261,-9.3913
2335,-0.1916,-3.5255,-4.8284,41.6696,-27.4087,-9.8087
2340,0.0,-3.7937,-4.8667,39.2348,-23.513,-9.3217
2345,0.5365,-4.6368,-4.6751,34.2957,-17.8087,-9.113
2350,1.2263,-5.6331,-4.6368,27.0609,-9.8783,-9.8087
2355,1.6478,-6.821,-4.1386,16.6957,-0.7652,-11.5478
2360,1.916,-8.3155,-4.062,4.5913,8.0696,-12.7304
2365,2.1459,-9.8866,-3.832,-8.4174,15.4435,-13.4957
2370,2.1076,-11.3811,-4.1003,-21.287,20.8696,-12.8
2375,1.9927,-12.8756,-3.947,-32.3478,24.0696,-11.0609
2380,1.9543,-14.1402,-4.2152,-40.0696,25.0435,-8.5565
2385,1.8011,-15.1365,-4.8284,-43.7565,24.487,-7.0957
2390,1.4562,-16.0562,-5.0583,-42.0174,23.5826,-6.8174
2395,1.1113,-16.5544,-5.6331,-34.4348,23.9304,-6.6783
2400,0.843,-16.8226,-5.9396,-22.2609,25.6,-6.1913
2405,0.3449,-16.2861,-5.2882,-5.5652,27.8261,-6.3304
2410,-0.115,-15.4431,-4.5984,16.5565,29.4261,-6.6087
2415,-0.5748,-14.6384,-4.062,40.9043,29.3565,-7.2348
2420,-1.2646,-13.0289,-3.2955,63.513,27.687,-6.6783
2425,-1.4945,-11.726,-2.7207,81.6696,24.1391,-5.5652
2430,-1.8394,-10.1932,-2.3759,92.7304,19.6174,-3.687
2435,-2.0693,-8.8903,-2.1843,96.9043,14.5391,-0.9739
2440,-2.1459,-8.0089,-2.1459,92.313,8.6261,1.8087
2445,-2.1843,-7.2042,-2.1076,81.8783,4.1043,4.1739
2450,-2.1076,-6.3995,-2.1076,69.287,0.2087,6.8174
2455,-1.9927,-6.1313,-1.8394,57.8087,-2.4348,8.1391
2460,-1.7244,-6.0163,-1.7244,47.1652,-4.3826,8.6957
2465,-1.2263,-5.7864,-2.031,37.5652,-5.7739,8.3478
2470,-1.0346,-5.7864,-1.9543,28.3826,-7.0261,8.0696
2475,-0.6131,-6.1313,-1.6861,19.9652,-8.2087,7.513
2480,-0.4598,-6.0163,-1.8394,13.0783,-9.2522,7.3043
2485,0.115,-6.1313,-1.7244,8.4174,-10.1565,6.9565
2490,0.2299,-6.0929,-2.0693,4.0348,-10.5739,6.7478
2495,0.5365,-6.0546,-2.1843,0.6957,-9.7391,7.0261
2500,0.843,-6.2462,-2.3759,-3.687,-8.0,7.513
2505,0.9197,-6.5145,-2.4908,-9.3217,-5.0783,8.2783
2510,1.2263,-6.821,-2.6824,-16.0696,-1.9478,9.1826
2515,1.0346,-7.3575,-2.6058,-23.1652,0.487,10.2957
2520,1.073,-8.0089,-2.7207,-29.913,1.6,11.4783
2525,0.8047,-8.5838,-2.8357,-35.6174,1.8087,12.5217
2530,0.4215,-9.5801,-2.6441,-39.6522,1.8087,13.6348
2535,0.9963,-9.8483,-2.4908,-41.3217,1.7391,14.4
2540,0.7281,-10.4231,-2.3375,-39.5826,1.9478,14.3304
2545,0.5365,-10.9596,-2.4142,-35.2696,1.7391,13.4957
2550,0.3066,-11.5727,-2.4142,-29.0783,1.3217,12.0348
2555,0.115,-11.726,-2.4142,-21.9826,0.6957,10.1565
2560,-0.0383,-11.9176,-2.4525,-15.5826,0.0,7.9304
2565,-0.3449,-11.841,-2.6824,-9.6,-0.6957,5.7043
2570,-0.3066,-11.726,-2.6441,-4.4522,-1.2522,3.9652
2575,-0.3832,-11.6111,-3.1806,-1.4609,-1.1826,1.9478
2580,-0.4215,-11.3811,-3.1423,-0.1391,-0.5565,0.4174
2585,-0.3832,-10.4231,-3.2189,0.1391,0.0,-1.0435
2590,-0.6898,-10.4614,-2.989,0.5565,0.0,-1.5304
2595,-0.7281,-9.925,-2.7591,1.8087,-0.9043,-1.3913
2600,-0.6514,-9.695,-2.4908,3.8957,-2.5043,-0.7652
2605,-0.7664,-9.5418,-2.4525,6.2609,-4.6609,0.2087
2610,-0.7281,-9.1586,-2.1843,7.7217,-6.9565,1.3217
2615,-0.6131,-8.8903,-2.2609,8.2087,-8.9739,2.2957
2620,-0.5748,-8.6604,-2.0693,6.887,-10.5739,2.9913
2625,-0.2299,-8.4688,-2.4908,4.1043,-11.6174,3.0609
2630,-0.115,-8.5838,-2.1843,0.2087,-12.0348,2.9913
2635,-0.0383,-8.6604,-2.2609,-4.0348,-11.6174,2.3652
2640,0.1533,-8.5454,-2.989,-8.8348,-10.4348,1.6
2645,0.2299,-8.967,-2.031,-11.8957,-8.9739,0.9739
2650,0.3832,-9.2352,-1.8011,-13.4261,-7.513,0.3478
2655,0.4598,-9.3885,-1.7244,-13.7043,-6.1913,0.0
2660,0.4215,-9.5801,-1.7627,-12.8696,-5.4261,-0.1391
2665,0.4982,-9.6184,-1.7244,-11.4087,-5.0783,-0.2087
2670,0.5748,-9.695,-1.7627,-9.9478,-4.9391,-0.1391
2675,0.7281,-9.695,-1.6095,-8.8348,-4.4522,-0.1391
2680,0.6514,-9.695,-2.0693,-7.8609,-3.3391,-0.1391
2685,0.843,-9.5801,-1.9927,-7.2348,-1.4609,-0.6957
2690,0.9197,-9.7717,-2.0693,-6.8174,1.0435,-1.2522
2695,0.958,-9.6184,-1.8777,-6.6783,2.9913,-1.7391
2700,0.6898,-9.4268,-2.2609,-6.4696,4.4522,-2.1565
2705,0.6131,-9.3885,-2.3375,-6.4,5.287,-2.2261
2710,0.4982,-9.2735,-2.2226,-6.2609,5.5652,-1.9478
2715,0.4598,-9.4651,-2.1459,-5.913,5.3565,-1.6696
2720,0.3066,-9.2735,-2.1076,-5.7739,5.0783,-1.1826
2725,0.2682,-9.3502,-2.1459,-5.7739,4.7304,-0.5565
2730,0.1916,-9.3885,-2.2609,-5.7043,4.313,0.2087
2735,0.0383,-9.6567,-2.1843,-5.7739,3.9652,0.9739
2740,0.1916,-9.5418,-2.1076,-5.7739,3.4087,1.6
2745,0.2299,-9.5801,-2.2226,-5.913,3.1304,2.1565
2750,-0.2682,-9.5418,-1.8011,-5.7739,2.9217,2.7826
2755,0.0766,-9.7334,-2.1459,-5.6348,2.9217,3.0609
2760,0.1533,-9.7334,-2.2992,-5.287,2.9217,3.3391
2765,0.0766,-9.695,-2.1459,-4.9391,3.0609,3.4783
2770,0.0,-9.6184,-2.2609,-4.7304,3.2696,3.4783
2775,0.0,-9.6567,-2.2226,-4.7304,3.4783,3.3391
2780,0.1533,-9.695,-2.1843,-4.7304,3.6174,3.3391
2785,-0.0766,-9.6567,-2.1076,-4.5217,3.6174,3.2696
2790,-0.0766,-9.6184,-1.916,-4.6609,3.3391,3.2
2795,-0.1916,-9.5418,-1.8394,-4.7304,3.2,2.9913
2800,-0.2682,-9.5034,-2.1459,-4.5217,3.1304,2.713
2805,-0.0383,-9.5801,-1.8011,-4.2435,3.2696,2.3652
2810,0.0383,-9.695,-1.8394,-4.1043,3.7565,1.9478
2815,0.0383,-9.6567,-2.031,-4.2435,4.313,1.6
2820,0.115,-9.6184,-1.8394,-4.4522,4.8696,0.9739
2825,0.0766,-9.6184,-1.9927,-4.8696,5.3565,0.487
2830,0.115,-9.7334,-1.8011,-5.3565,5.6348,0.2087
2835,0.0766,-9.7334,-1.9927,-5.8435,5.7043,0.0696
2840,0.0766,-9.695,-1.8777,-5.913,5.5652,0.0696
2845,0.0766,-9.7717,-1.916,-5.913,5.3565,0.2783
2850,0.0383,-9.7334,-1.9543,-5.4957,4.9391,0.4174
2855,0.5748,-9.3502,-2.2226,-5.0087,4.3826,0.6957
2860,-0.0766,-9.695,-1.916,-4.313,3.5478,0.8348
2865,0.0766,-9.7334,-1.9927,-3.687,2.6435,1.0435
2870,-0.0383,-9.6184,-1.8011,-3.2,1.7391,1.0435
2875,-0.115,-9.5418,-1.8777,-2.8522,1.0435,1.0435
2880,-0.0383,-9.5418,-1.916,-2.713,0.3478,1.0435
2885,-0.0383,-9.6567,-1.916,-2.7826,0.0,0.9043
2890,0.0,-9.7717,-1.9927,-2.7826,-0.2783,0.6957
2895,0.0,-9.695,-1.8777,-2.7826,-0.3478,0.487
2900,-0.0766,-9.6567,-1.8011,-2.5739,-0.3478,0.1391
2905,0.1533,-9.81,-1.916,-2.087,-0.4174,-0.0696
2910,0.958,-9.81,-1.6478,-1.3217,-0.5565,-0.3478
2915,0.1533,-9.7717,-1.7244,-0.4174,-0.487,-0.3478
2920,0.115,-9.7334,-1.6861,0.487,-0.6957,-0.487
2925,0.115,-9.695,-1.7244,1.2522,-0.7652,-0.6261
2930,0.3066,-9.7334,-1.6861,1.6696,-0.9043,-0.5565
2935,0.1533,-9.5801,-1.7244,2.0174,-0.9739,-0.487
2940,0.2299,-9.7334,-1.6478,2.0174,-0.9043,-0.5565
2945,0.3066,-9.6567,-1.8011,1.8087,-0.6261,-0.6261
2950,0.1533,-9.5034,-1.6861,1.4609,-0.487,-0.6261
2955,0.3449,-9.5801,-1.8394,1.113,-0.2087,-0.487
2960,0.0766,-9.6184,-1.7627,0.7652,0.1391,-0.487
2965,0.1916,-9.2352,-1.9543,0.3478,0.4174,-0.4174
2970,0.1533,-9.5801,-1.8394,0.0696,0.5565,-0.4174
2975,0.1916,-9.5034,-1.6861,-0.0696,0.7652,-0.2783
2980,0.115,-9.4651,-1.6478,-0.0696,1.0435,-0.1391
2985,0.2299,-9.5801,-1.7244,-0.1391,1.2522,-0.0696
2990,0.0766,-9.5418,-1.4945,-0.3478,1.4609,-0.0696
2995,0.1916,-9.6184,-1.7627,-0.6261,1.4609,-0.0696
