timestamp,accX,accY,accZ,gyroX,gyroY,gyroZ
0,0.2299,-6.1696,-9.1202,-3.9652,-2.5043,-5.3565
5,0.115,-5.978,-8.8137,-2.1565,-2.2957,-4.5217
10,0.0766,-6.0163,-8.852,-1.113,-2.0174,-4.0348
15,0.3066,-6.0929,-8.8137,-0.8348,-1.8783,-3.7565
20,0.0766,-5.978,-8.6987,0.0,-1.7391,-3.1304
25,0.2299,-5.9013,-8.6221,0.487,-1.8087,-2.8522
30,0.0383,-5.978,-8.6987,0.6261,-1.9478,-3.1304
35,0.0383,-5.7864,-8.6221,0.487,-2.2957,-3.687
40,0.1533,-5.7864,-8.5454,0.0,-2.5739,-3.9652
45,0.0766,-5.7864,-8.6604,-0.4174,-2.7826,-3.9652
50,0.0,-5.5948,-8.4305,-0.8348,-3.2,-3.5478
55,0.0383,-5.748,-8.5838,-1.2522,-3.9652,-3.0609
60,0.0766,-5.748,-8.6221,-1.7391,-4.5217,-2.6435
65,0.0383,-5.7864,-8.852,-1.7391,-4.8696,-2.2957
70,0.115,-5.9013,-8.8137,-1.1826,-5.1478,-2.4348
75,-0.0383,-5.9013,-8.852,-0.1391,-5.287,-2.8522
80,-0.1916,-5.978,-9.1586,1.0435,-5.287,-3.4087
85,0.0,-6.1313,-8.8137,2.4348,-4.9391,-3.8957
90,-0.2299,-6.1696,-9.0053,4.1739,-4.313,-4.2435
95,-0.1916,-6.1696,-9.0053,5.6348,-3.687,-4.1739
100,-0.0766,-6.1313,-9.0436,7.5826,-2.2957,-3.8957
105,-0.0383,-6.2845,-8.967,10.7826,-0.9043,-4.0348
110,0.0,-6.0929,-8.8137,12.3826,0.0696,-3.6174
115,0.115,-5.978,-8.6987,13.8435,0.5565,-3.5478
120,0.0766,-5.978,-8.6221,15.0261,1.2522,-3.3391
125,0.0,-5.748,-8.5454,15.8609,1.1826,-3.4087
130,0.0766,-5.863,-8.6221,16.3478,1.113,-3.1304
135,-0.1533,-5.748,-8.4688,16.2783,1.2522,-2.9913
140,-0.0383,-5.7097,-8.2005,16.0696,0.9739,-2.9913
145,-0.0766,-5.6331,-8.3155,15.3739,0.6957,-2.9913
150,-0.2682,-5.748,-8.1622,14.5391,0.487,-2.9217
155,-0.2299,-5.748,-8.5071,13.7739,0.0696,-3.0609
160,-0.2299,-5.8247,-8.2772,12.5913,-0.5565,-3.0609
165,-0.2682,-5.8247,-8.2772,11.8957,-0.9739,-2.9217
170,-0.4215,-5.9013,-8.2389,11.0609,-1.2522,-2.5739
175,-0.3449,-5.978,-8.4305,10.1565,-1.7391,-2.4348
180,-0.3066,-6.1313,-8.6604,9.7391,-2.2957,-2.3652
185,-0.3449,-6.0163,-8.5071,9.8087,-2.2957,-2.1565
190,-0.4598,-6.0546,-8.4688,9.7391,-2.5739,-1.8087
195,-0.3066,-6.0546,-8.6987,9.6,-3.0609,-1.8087
200,-0.3832,-6.0163,-8.6987,8.9739,-3.4783,-2.5739
205,-0.3066,-6.2462,-8.6221,8.8348,-3.687,-2.9217
210,-0.115,-6.0163,-8.6987,9.3913,-3.687,-2.9913
215,0.0,-6.2079,-8.737,10.9217,-4.0348,-2.4348
220,-0.0766,-6.2079,-8.7754,12.5913,-3.9652,-2.2261
225,-0.0383,-6.2079,-8.8137,13.8435,-3.7565,-2.1565
230,-0.0766,-6.0546,-8.6604,14.6087,-3.8261,-2.0174
235,-0.1916,-5.9396,-8.6604,14.4,-4.1739,-2.2261
240,-0.2682,-5.9013,-8.6604,14.1217,-4.313,-2.2957
245,-0.2299,-5.7864,-8.6221,13.7739,-4.2435,-2.087
250,-0.1916,-5.9013,-8.6987,13.6348,-4.1739,-1.6696
255,-0.1916,-6.0546,-8.7754,13.7739,-3.8261,-1.6
260,-0.1916,-5.978,-8.8137,13.913,-3.4087,-1.6
265,-0.2682,-5.978,-8.5454,13.4957,-3.0609,-1.8087
270,-0.2299,-6.0929,-8.6604,12.5913,-2.6435,-2.087
275,-0.115,-6.2079,-8.6221,11.4087,-2.4348,-2.4348
280,-0.2299,-6.2079,-8.852,10.6435,-2.1565,-2.4348
285,-0.2299,-6.2845,-8.8137,10.0174,-1.6696,-2.5739
290,-0.1533,-6.3229,-9.0053,9.5304,-1.2522,-2.5739
295,-0.0766,-6.3995,-8.8903,9.3217,-0.9739,-2.7826
300,-0.0383,-6.3612,-8.737,9.1826,-0.8348,-2.713
305,-0.0766,-6.3229,-8.8137,9.0435,-0.8348,-2.8522
310,-0.0766,-6.3995,-8.6987,8.9739,-0.6261,-2.713
315,-0.1533,-6.2462,-8.737,8.9739,-0.5565,-2.9217
320,0.4215,-6.2079,-8.3155,9.1826,-0.6261,-2.8522
325,-0.115,-6.3995,-8.737,9.5304,-0.487,-2.8522
330,-0.0766,-6.4761,-8.6987,9.8087,-0.487,-2.9217
335,-0.1916,-6.4378,-8.737,10.2957,-0.4174,-2.8522
340,-0.115,-6.4378,-8.7754,10.8522,-0.3478,-2.6435
345,-0.1916,-6.3995,-8.5454,11.687,-0.0696,-2.6435
350,-0.1916,-6.3995,-8.5838,12.5217,0.3478,-2.5739
355,-0.0766,-6.3995,-8.5071,12.9391,0.5565,-2.5739
360,-0.1533,-6.2462,-8.5071,13.287,0.9043,-2.1565
365,-0.115,-6.3612,-8.5454,13.287,1.0435,-2.1565
370,-0.1533,-6.2079,-8.3921,13.0783,1.3217,-1.7391
375,-0.0766,-6.1313,-8.5071,12.8696,1.4609,-1.7391
380,-0.1533,-6.1696,-8.3538,12.313,1.6696,-1.4609
385,-0.1916,-6.0929,-8.4305,11.7565,2.087,-1.4609
390,-0.115,-6.2079,-8.2772,11.2696,2.2957,-1.1826
395,-0.1533,-6.0929,-8.1622,10.8522,2.4348,-1.113
400,-0.2682,-6.2079,-8.2772,10.5739,2.713,-1.0435
405,-0.2299,-6.1313,-8.2389,10.0174,2.713,-1.0435
410,-0.2682,-5.978,-8.2389,9.6,2.713,-0.6957
415,-0.3449,-6.0929,-8.2005,9.2522,2.5739,-0.5565
420,-0.4215,-6.0163,-8.0089,8.9043,2.5043,-0.4174
425,-0.1916,-6.0929,-7.9706,8.487,2.3652,-0.4174
430,-0.2682,-6.0929,-8.1622,8.0,2.4348,-0.0696
435,-0.2682,-6.0546,-8.2005,7.7913,2.6435,0.2087
440,-0.1916,-6.2079,-8.1622,7.3043,2.9217,0.6957
445,-0.0383,-6.2462,-8.0089,7.0957,3.3391,0.9739
450,-0.0766,-6.1696,-7.9706,6.9565,3.687,1.6
455,0.115,-6.1696,-7.8173,6.9565,3.9652,1.8783
460,0.0383,-6.0929,-7.9323,7.0957,4.3826,2.5739
465,0.0,-6.1313,-7.9323,7.4435,4.6609,3.1304
470,0.0766,-6.1696,-7.779,7.9304,4.8,3.8261
475,0.0766,-6.0929,-8.0089,8.0696,5.0783,4.313
480,-0.0766,-6.0929,-7.894,8.0696,5.2174,4.7304
485,0.0,-6.1696,-7.8173,8.0,5.3565,5.0087
490,0.0383,-6.2845,-7.779,7.9304,5.6348,5.3565
495,-0.0383,-6.3229,-7.7024,7.9304,6.1217,5.4261
500,0.0,-6.2462,-7.779,8.0696,6.4696,5.5652
505,-0.115,-6.2845,-7.5108,8.0696,6.8174,5.3565
510,0.0,-6.2845,-7.779,8.3478,7.0261,5.3565
515,-0.0383,-6.2462,-7.7407,8.6957,7.0261,5.2174
520,-0.0766,-6.0546,-7.7024,8.9043,7.2348,5.0783
525,-0.1916,-6.1313,-7.6257,9.0435,7.4435,4.8696
530,-0.1916,-5.9396,-7.6257,9.0435,7.4435,4.8
535,-0.1533,-6.0163,-7.6257,8.9043,7.513,4.4522
540,-0.0766,-6.0929,-7.5874,8.6957,7.7217,4.3826
545,-0.115,-6.1696,-7.6641,8.5565,7.7913,4.1043
550,-0.1533,-6.0929,-7.8557,8.0696,7.7217,3.9652
555,-0.0766,-6.1313,-7.6257,7.7217,7.7913,3.6174
560,-0.0766,-6.1696,-7.6257,7.3043,7.9304,3.5478
565,0.0,-6.2462,-7.7024,6.9565,7.9304,3.3391
570,0.0766,-6.3612,-7.6641,6.887,8.2087,3.4783
575,0.0383,-6.2845,-7.7407,7.1652,8.2087,3.3391
580,-0.0383,-6.3229,-7.8173,7.3043,8.4174,3.5478
585,0.0,-6.2079,-7.8173,7.3739,8.5565,3.4783
590,0.0766,-6.3612,-7.779,7.3043,8.6261,3.6174
595,0.0766,-6.3995,-7.894,7.1652,8.6957,3.687
600,-0.0383,-6.3612,-7.7407,7.0957,8.7652,3.687
605,0.0,-6.3995,-7.7407,6.9565,8.8348,3.6174
610,-0.115,-6.3612,-7.7407,6.8174,8.8348,3.7565
615,-0.0766,-6.3612,-7.6641,6.6087,8.7652,3.4087
620,-0.115,-6.3612,-7.894,6.2609,8.6957,3.4783
625,-0.115,-6.4378,-7.8173,5.9826,8.5565,3.2
630,-0.2299,-6.3995,-7.8557,5.6348,8.3478,3.2696
635,-0.1916,-6.4761,-7.8173,5.5652,8.0696,3.0609
640,-0.1916,-6.5528,-7.9706,5.4957,8.0,3.0609
645,-0.2299,-6.5145,-8.0089,5.6348,7.8609,2.9217
650,-0.0766,-6.5528,-7.8557,5.7739,7.7913,2.9913
655,0.0383,-6.6294,-8.0089,5.9826,7.6522,2.713
660,-0.115,-6.6294,-8.0089,6.1217,7.4435,2.9217
665,-0.115,-6.5911,-8.0473,6.1913,7.2348,2.713
670,0.0,-6.5911,-7.9323,6.1217,7.1652,2.7826
675,-0.0383,-6.5528,-7.894,6.2609,7.1652,2.713
680,-0.0766,-6.6294,-7.779,6.1913,7.0261,2.8522
685,-0.0383,-6.4378,-7.9323,6.3304,6.887,2.9217
690,-0.115,-6.5145,-7.8173,6.2609,6.887,3.0609
695,0.0766,-6.6294,-7.9323,6.2609,6.7478,2.9913
700,-0.0383,-6.5528,-7.8557,6.3304,6.6783,3.1304
705,-0.0766,-6.4761,-7.8173,6.3304,6.7478,3.1304
710,-0.115,-6.4378,-7.8173,6.4696,6.8174,3.4087
715,-0.0766,-6.4761,-7.7024,6.5391,6.7478,3.3391
720,-0.0383,-6.5911,-7.779,6.3304,6.6783,3.6174
725,-0.115,-6.3612,-7.779,6.1913,6.4,3.4783
730,-0.1916,-6.3995,-7.894,5.913,6.3304,3.6174
735,-0.1916,-6.3229,-7.7024,5.8435,6.1217,3.5478
740,-0.1533,-6.4761,-7.7024,5.4957,5.913,3.687
745,-0.2682,-6.3612,-7.7407,5.2174,5.7043,3.5478
750,-0.115,-6.3612,-7.7407,5.0783,5.4957,3.687
755,0.0,-6.5528,-7.6641,4.8,5.4957,3.6174
760,-0.0766,-6.3995,-7.7024,4.5913,5.4261,3.687
765,0.0,-6.4378,-7.7024,4.313,5.4261,3.687
770,-0.1916,-6.4378,-7.7407,4.1043,5.4957,3.9652
775,0.0383,-6.4761,-7.6641,3.9652,5.287,3.8957
780,-0.1533,-6.5145,-7.6257,3.7565,5.0783,4.1043
785,0.0,-6.4378,-7.5874,3.6174,4.8,3.9652
790,-0.1533,-6.3995,-7.8173,3.4783,4.7304,4.1739
795,-0.115,-6.3995,-7.5108,3.2,4.5217,4.0348
800,-0.2299,-6.4761,-7.4341,2.9217,4.313,4.1739
805,-0.1533,-6.4378,-7.5874,2.7826,4.2435,3.9652
810,-0.1916,-6.4378,-7.6257,2.5739,4.313,4.1043
815,-0.2299,-6.4378,-7.4725,2.6435,4.2435,3.7565
820,-0.1916,-6.4761,-7.6257,2.6435,4.1043,3.7565
825,-0.0383,-6.4761,-7.5491,2.7826,4.1043,3.3391
830,-0.1916,-6.3612,-7.6257,2.713,4.0348,3.3391
835,-0.1533,-6.3995,-7.7407,2.5739,4.0348,2.9913
840,-0.1916,-6.3995,-7.5491,2.5739,3.7565,2.9217
845,-0.1916,-6.3995,-7.5874,2.2957,3.4783,2.5739
850,-0.1533,-6.3229,-7.4341,1.9478,3.3391,2.5043
855,-0.3066,-6.3612,-7.5108,1.5304,3.2696,2.087
860,-0.1916,-6.3229,-7.6257,1.0435,3.2,2.1565
865,-0.2299,-6.3612,-7.6641,0.5565,3.0609,1.8783
870,-0.115,-6.3995,-7.5491,0.0696,3.0609,1.7391
875,-0.1533,-6.4378,-7.5874,-0.487,3.0609,1.6
880,-0.115,-6.5145,-7.6257,-0.7652,3.0609,1.6
885,-0.2682,-6.4378,-7.6257,-0.9739,2.9913,1.2522
890,-0.1533,-6.7061,-7.6641,-1.1826,2.8522,1.3217
895,-0.1916,-6.6294,-7.7024,-1.3913,2.713,1.0435
900,-0.3449,-6.7061,-7.6641,-1.3217,2.5739,0.9739
905,-0.1916,-6.7061,-7.5491,-1.3913,2.5043,0.6957
910,-0.115,-6.7444,-7.5874,-1.2522,2.5739,0.5565
915,-0.1533,-6.6677,-7.6641,-1.0435,2.6435,0.3478
920,-0.1916,-6.5911,-7.7407,-0.9043,2.5739,0.4174
925,-0.2299,-6.5911,-7.5874,-0.7652,2.5043,0.2087
930,-0.3066,-6.5145,-7.7024,-0.7652,2.4348,0.2783
935,-0.1533,-6.5911,-7.7024,-0.7652,2.2957,0.0696
940,-0.115,-6.5911,-7.7407,-0.8348,2.1565,0.3478
945,-0.1916,-6.5528,-7.7024,-0.9739,2.0174,0.0696
950,-0.1533,-6.5911,-7.4725,-1.113,2.087,0.1391
955,-0.1533,-6.6677,-7.7407,-1.113,1.8783,-0.0696
960,-0.0766,-6.7061,-7.6641,-1.0435,1.9478,-0.2087
965,-0.1533,-6.6294,-7.5108,-0.8348,1.9478,-0.4174
970,-0.0766,-6.7444,-7.5874,-0.487,1.8087,-0.4174
975,-0.1533,-6.7444,-7.6641,-0.2087,1.8087,-0.6957
980,-0.1533,-6.6677,-7.8173,-0.0696,1.7391,-0.6261
985,-0.1533,-6.6294,-7.6641,0.0,1.7391,-0.9043
990,-0.1533,-6.5911,-7.7024,0.0696,1.6,-0.8348
995,-0.2299,-6.5145,-7.6257,0.0,1.7391,-1.113
1000,-0.1533,-6.5145,-7.6257,-0.0696,1.6696,-0.9739
1005,-0.1916,-6.4761,-7.6641,-0.5565,1.7391,-1.1826
1010,-0.1533,-6.5528,-7.7024,-0.9043,1.7391,-1.1826
1015,-0.1533,-6.5911,-7.7024,-1.1826,1.9478,-1.4609
1020,-0.1533,-6.6294,-7.7407,-1.3217,2.1565,-1.3217
1025,-0.0766,-6.7061,-7.5874,-1.1826,2.3652,-1.6
1030,-0.115,-6.7061,-7.6641,-1.2522,2.5739,-1.4609
1035,-0.1533,-6.6294,-7.7024,-0.8348,2.6435,-1.6696
1040,-0.1533,-6.7444,-7.8173,-0.6261,2.5739,-1.5304
1045,-0.1916,-6.6294,-7.6641,-0.3478,2.713,-1.6696
1050,-0.115,-6.5911,-7.779,-0.1391,2.713,-1.5304
1055,0.0,-6.6294,-7.6641,0.0,2.7826,-1.6
1060,-0.1916,-6.6294,-7.8173,0.2783,2.8522,-1.3913
1065,-0.0383,-6.6294,-7.5874,0.5565,2.9217,-1.6
1070,-0.115,-6.6294,-7.7407,0.5565,2.9913,-1.4609
1075,-0.115,-6.6677,-7.7407,0.6957,3.0609,-1.5304
1080,-0.1533,-6.6294,-7.6257,0.9739,2.9217,-1.3217
1085,-0.0766,-6.5528,-7.7024,1.113,2.7826,-1.5304
1090,-0.1916,-6.5528,-7.7024,1.3217,2.7826,-1.2522
1095,-0.1916,-6.5911,-7.6257,1.3217,2.713,-1.3217
1100,-0.115,-6.5145,-7.5491,1.2522,2.8522,-1.1826
1105,-0.2682,-6.3612,-7.6641,1.3217,2.8522,-1.3913
1110,-0.2682,-6.3995,-7.5108,1.3217,2.9217,-1.1826
1115,-0.1533,-6.5145,-7.5108,1.2522,2.9913,-1.3913
1120,-0.2682,-6.4378,-7.5108,1.1826,2.9913,-1.2522
1125,-0.2682,-6.4378,-7.5491,1.0435,2.9913,-1.4609
1130,-0.2682,-6.4378,-7.4725,0.9739,3.1304,-1.3913
1135,-0.3066,-6.4761,-7.5491,0.9739,3.1304,-1.5304
1140,-0.2682,-6.4761,-7.5874,0.9043,3.0609,-1.3913
1145,-0.2299,-6.3995,-7.5108,0.9043,2.9217,-1.5304
1150,-0.2299,-6.3995,-7.7024,0.9739,2.8522,-1.3913
1155,-0.2299,-6.3995,-7.6641,0.7652,2.9217,-1.6696
1160,-0.1533,-6.3229,-7.6257,0.5565,2.9913,-1.3913
1165,-0.115,-6.3995,-7.6641,0.4174,2.9217,-1.3913
1170,-0.2299,-6.4378,-7.4341,0.2783,2.9217,-1.2522
1175,-0.2682,-6.5145,-7.6641,0.0696,2.9217,-1.3913
1180,-0.115,-6.4761,-7.3575,-0.0696,3.0609,-1.1826
1185,-0.1533,-6.4378,-7.5874,0.2087,3.1304,-1.1826
1190,-0.1916,-6.5528,-7.5874,0.6261,3.2,-0.7652
1195,-0.1533,-6.5528,-7.5874,1.1826,3.2,-0.8348
1200,-0.3066,-6.4761,-7.4725,1.5304,3.2,-0.487
1205,-0.2299,-6.6294,-7.3958,1.8087,3.0609,-0.487
1210,-0.1916,-6.4378,-7.7024,2.0174,3.0609,-0.2783
1215,-0.3449,-6.5145,-7.5491,2.1565,3.0609,-0.2087
1220,-0.2682,-6.3612,-7.6641,2.1565,3.0609,-0.0696
1225,-0.2299,-6.4378,-7.5874,1.8783,3.0609,-0.2783
1230,-0.3066,-6.3995,-7.5108,1.6696,3.0609,-0.1391
1235,-0.3066,-6.4378,-7.5874,1.4609,3.1304,-0.4174
1240,-0.3449,-6.3229,-7.3958,1.2522,3.1304,-0.3478
1245,-0.2682,-6.5145,-7.5108,1.1826,3.1304,-0.487
1250,-0.2682,-6.3995,-7.5108,1.1826,3.1304,-0.2783
1255,-0.115,-6.5528,-7.3958,1.2522,3.1304,-0.5565
1260,-0.1916,-6.5145,-7.6641,1.2522,3.2,-0.2087
1265,-0.1916,-6.5911,-7.4341,1.113,3.2,-0.3478
1270,-0.1916,-6.5528,-7.4725,0.9739,3.1304,-0.1391
1275,-0.1916,-6.6677,-7.5491,0.9739,3.0609,-0.2783
1280,-0.2682,-6.5528,-7.6257,1.113,3.0609,-0.0696
1285,-0.2299,-6.5145,-7.5108,1.2522,2.8522,-0.3478
1290,-0.2682,-6.5528,-7.4341,1.2522,2.8522,-0.1391
1295,-0.3449,-6.6294,-7.5491,1.2522,2.9217,-0.3478
1300,-0.3066,-6.5528,-7.5491,1.2522,2.9217,-0.3478
1305,-0.3449,-6.5528,-7.5108,1.3217,2.9913,-0.487
1310,-0.2299,-6.5528,-7.6257,1.2522,3.1304,-0.3478
1315,-0.2682,-6.5145,-7.6257,1.3913,3.2696,-0.487
1320,-0.3066,-6.5911,-7.5108,1.4609,3.2696,-0.2087
1325,-0.1916,-6.5145,-7.5491,1.4609,3.3391,-0.5565
1330,-0.1916,-6.5911,-7.4725,1.6,3.4783,-0.3478
1335,-0.1916,-6.5528,-7.5108,1.6,3.4783,-0.487
1340,-0.2682,-6.5145,-7.5108,1.6696,3.5478,-0.2783
1345,-0.2299,-6.5911,-7.5491,1.6,3.5478,-0.4174
1350,-0.3449,-6.6294,-7.7407,1.6,3.6174,-0.2783
1355,-0.1916,-6.5145,-7.2809,1.5304,3.687,-0.4174
1360,-0.1916,-6.6294,-7.3192,1.5304,3.687,-0.2783
1365,-0.1533,-6.7827,-7.5874,1.3913,3.687,-0.3478
1370,0.0,-6.5911,-8.2772,1.2522,3.6174,0.0
1375,-0.2682,-6.2462,-7.8173,1.0435,3.4783,-0.2783
1380,-0.2299,-6.0163,-7.5491,0.9043,3.4087,0.0
1385,-0.2682,-6.6294,-7.3958,0.7652,3.3391,-0.2087
1390,-0.2682,-6.6294,-7.4725,0.487,3.2,-0.1391
1395,-0.1533,-6.5911,-7.5108,0.487,3.2696,-0.3478
1400,-0.1916,-6.6294,-7.5108,0.5565,3.2,-0.2087
1405,-0.1533,-6.7061,-7.5874,0.5565,3.2,-0.3478
1410,-0.2299,-6.7827,-7.5874,0.6261,3.2696,-0.1391
1415,-0.2299,-6.7061,-7.5874,0.7652,3.1304,-0.3478
1420,-0.1916,-6.7061,-7.3958,0.9043,3.1304,-0.0696
1425,-0.1533,-6.6677,-7.5108,1.113,3.2,-0.1391
1430,-0.1533,-6.6294,-7.6257,1.3217,3.2696,0.0696
1435,-0.1916,-6.6677,-7.6257,1.4609,3.2,-0.0696
1440,-0.1916,-6.6294,-7.7024,1.6,3.2696,0.0696
1445,-0.2299,-6.5911,-7.5491,1.7391,3.4087,-0.0696
1450,-0.0766,-6.5145,-7.5108,1.7391,3.5478,0.0696
1455,-0.1533,-6.5911,-7.4725,1.7391,3.5478,-0.0696
1460,-0.1916,-6.5911,-7.5108,1.6,3.7565,0.2087
1465,-0.115,-6.7061,-7.5491,1.5304,3.7565,0.0
1470,-0.2299,-6.5528,-7.5491,1.6,3.8261,0.4174
1475,-0.115,-6.6294,-7.4725,1.6696,3.9652,0.4174
1480,-0.2682,-6.6294,-7.5491,1.8783,4.0348,0.7652
1485,-0.115,-6.5911,-7.4725,2.087,3.9652,0.6957
1490,-0.1533,-6.6677,-7.6257,2.087,3.9652,1.0435
1495,-0.1533,-6.5911,-7.4725,1.8783,3.8261,0.9739
1500,-0.115,-6.6294,-7.4725,1.5304,3.7565,1.113
1505,-0.3832,-6.7061,-7.5491,1.1826,3.687,0.9739
1510,-0.2682,-6.6677,-7.5491,0.9043,3.6174,0.9739
1515,-0.3449,-6.5528,-7.4341,0.487,3.5478,0.6957
1520,-0.2299,-6.6294,-7.5874,-0.0696,3.6174,0.7652
1525,-0.2299,-6.7827,-7.5108,-0.2783,3.687,0.3478
1530,-0.1916,-6.821,-7.5491,-0.6261,3.8261,0.2783
1535,-0.115,-6.6294,-7.4341,-0.6957,3.687,0.0696
1540,-0.1916,-6.6677,-7.5108,-0.6957,3.687,0.2087
1545,-0.1916,-6.6677,-7.5491,-0.9043,3.7565,0.0696
1550,-0.2299,-6.7444,-7.3192,-1.113,3.687,0.2087
1555,-0.2682,-6.6677,-7.4725,-1.2522,3.687,0.2087
1560,-0.1916,-6.821,-7.5108,-1.2522,3.687,0.3478
1565,-0.1533,-6.5911,-7.4725,-1.3217,3.8261,0.2783
1570,-0.1533,-6.7061,-7.6257,-1.3217,3.8957,0.3478
1575,-0.1533,-6.8977,-7.4341,-1.113,4.1043,0.2087
1580,-0.1916,-6.6294,-7.4341,-0.7652,4.1739,0.2783
1585,-0.2682,-6.6677,-7.5491,-0.487,4.1739,0.0
1590,-0.2299,-6.6677,-7.5491,-0.1391,4.3826,0.2087
1595,-0.2299,-6.7061,-7.5491,0.2087,4.5217,0.0
1600,-0.0766,-6.7444,-7.4725,0.5565,4.4522,0.3478
1605,-0.3066,-6.6294,-7.4725,0.8348,4.4522,0.2087
1610,-0.1533,-6.821,-7.4725,0.9739,4.4522,0.2783
1615,-0.1533,-6.7061,-7.3575,1.113,4.3826,0.3478
1620,-0.2682,-6.6677,-7.2809,1.0435,4.4522,0.3478
1625,-0.3066,-6.5528,-7.5108,0.8348,4.4522,0.2783
1630,-0.2682,-6.5528,-7.4341,0.487,4.4522,0.3478
1635,-0.1916,-6.6294,-7.4341,-0.0696,4.4522,0.0696
1640,-0.1533,-6.5528,-7.3575,-0.487,4.4522,0.2783
1645,-0.0766,-6.6677,-7.3575,-1.0435,4.6609,0.1391
1650,-0.1533,-6.6294,-7.3958,-1.113,4.8,0.2087
1655,-0.2299,-6.6677,-7.4341,-1.1826,4.8696,0.1391
1660,-0.1533,-6.7061,-7.5491,-0.9739,5.0087,0.3478
1665,-0.1533,-6.7061,-7.3575,-0.8348,4.8696,0.487
1670,-0.115,-6.7444,-7.2809,-0.6957,4.9391,0.9739
1675,-0.1533,-6.7444,-7.4341,-0.9043,4.7304,1.113
1680,-0.2299,-6.7061,-7.5108,-0.6957,4.5913,1.2522
1685,-0.1533,-6.7444,-7.4725,-0.6261,4.5217,1.2522
1690,-0.3066,-6.7444,-7.4725,-1.3913,4.6609,2.4348
1695,-0.3066,-6.5528,-7.3575,-1.6696,4.3826,1.9478
1700,-0.2682,-6.5911,-7.5491,-1.3217,4.313,1.5304
1705,-0.3832,-6.5145,-7.4725,-1.0435,4.2435,1.113
1710,-0.2682,-6.6294,-7.3575,-1.113,4.313,1.113
1715,-0.1533,-6.7061,-7.4341,-1.2522,4.2435,0.9043
1720,-0.1916,-6.6294,-7.5874,-1.4609,4.1739,0.9739
1725,-0.0766,-6.7444,-7.4341,-1.4609,4.313,0.8348
1730,-0.115,-6.7061,-7.3192,-1.3913,4.3826,0.9043
1735,-0.3066,-6.7061,-7.3958,-1.2522,4.3826,1.0435
1740,-0.0766,-6.6294,-7.3958,-1.1826,4.313,1.113
1745,-0.115,-6.6294,-7.4725,-0.9739,4.2435,0.9739
1750,-0.2682,-6.6294,-7.5491,-1.0435,4.2435,1.113
1755,-0.1533,-6.6294,-7.5108,-1.113,4.1043,0.9043
1760,-0.3066,-6.5528,-7.3958,-1.113,4.1739,0.9043
1765,-0.2299,-6.7444,-7.5108,-0.9739,4.1739,0.6261
1770,-0.2682,-6.6677,-7.4341,-0.7652,4.2435,0.6261
1775,-0.0766,-6.7827,-7.3575,-0.6957,4.2435,0.4174
1780,-0.115,-6.7061,-7.4341,-0.5565,4.2435,0.487
1785,-0.2682,-6.7061,-7.3958,-0.5565,4.313,0.3478
1790,-0.2682,-6.5528,-7.4341,-0.4174,4.313,0.487
1795,-0.1916,-6.7061,-7.4725,-0.6261,4.313,0.2087
1800,-0.2299,-6.7444,-7.5491,-0.7652,4.3826,0.3478
1805,-0.3449,-6.6294,-7.5108,-0.9739,4.2435,0.1391
1810,-0.1533,-6.6294,-7.5874,-1.1826,4.1739,0.2087
1815,-0.2682,-6.6677,-7.5108,-1.3913,4.0348,0.0696
1820,-0.3066,-6.5528,-7.4725,-1.6,3.8957,0.0
1825,-0.2299,-6.7444,-7.5874,-1.6,3.8957,-0.0696
1830,-0.3449,-6.6677,-7.4341,-1.5304,3.8261,0.0
1835,-0.2682,-6.6294,-7.6257,-1.5304,3.8957,-0.2087
1840,-0.1533,-6.6677,-7.4725,-1.4609,3.7565,-0.0696
1845,-0.2682,-6.7061,-7.5491,-1.3913,3.687,-0.2087
1850,-0.1916,-6.7061,-7.6257,-1.1826,3.7565,-0.1391
1855,-0.1916,-6.6677,-7.4341,-1.113,3.687,-0.2087
1860,-0.2299,-6.5911,-7.5491,-0.9739,3.687,-0.1391
1865,-0.1533,-6.6294,-7.5491,-0.9739,3.7565,-0.1391
1870,-0.1533,-6.5528,-7.5108,-0.9739,3.7565,-0.0696
1875,-0.2682,-6.7061,-7.4341,-1.0435,3.8261,-0.2087
1880,-0.2299,-6.6294,-7.5874,-1.0435,3.7565,0.0
1885,-0.2682,-6.6677,-7.4341,-0.9739,3.6174,0.0
1890,-0.2299,-6.5911,-7.5874,-0.9043,3.6174,0.0696
1895,-0.2682,-6.7444,-7.5491,-0.9043,3.5478,0.0
1900,-0.2299,-6.6677,-7.4341,-0.9739,3.4783,0.0696
1905,-0.3066,-6.5911,-7.4725,-0.9043,3.4087,0.0
1910,-0.2299,-6.6294,-7.4725,-1.113,3.4087,0.0
1915,-0.3832,-6.5911,-7.4341,-1.1826,3.3391,-0.0696
1920,-0.3066,-6.7061,-7.5874,-1.0435,3.3391,0.0696
1925,-0.2682,-6.7444,-7.5108,-1.0435,3.4087,-0.2087
1930,-0.2682,-6.6677,-7.3958,-0.7652,3.4087,0.0
1935,-0.1916,-6.6677,-7.4341,-0.6261,3.3391,-0.0696
1940,-0.3449,-6.5911,-7.5108,-0.4174,3.2696,0.0
1945,-0.2682,-6.7061,-7.5491,-0.3478,3.2,0.0
1950,-0.1916,-6.5528,-7.4341,-0.4174,3.0609,0.0696
1955,-0.2682,-6.6294,-7.4725,-0.487,3.0609,0.0
1960,-0.2682,-6.6677,-7.7024,-0.487,3.0609,0.0696
1965,-0.1916,-6.5911,-7.3958,-0.487,3.2,0.0
1970,-0.3066,-6.5911,-7.3958,-0.487,3.3391,0.2087
1975,-0.2682,-6.6677,-7.5491,-0.3478,3.3391,0.0
1980,-0.2299,-6.5911,-7.5874,-0.3478,3.3391,0.1391
1985,-0.2299,-6.6677,-7.4725,-0.3478,3.3391,0.1391
1990,-0.2682,-6.5911,-7.4341,-0.4174,3.2696,0.2087
1995,-0.3066,-6.6677,-7.4725,-0.5565,3.2696,0.0696
2000,-0.2299,-6.6294,-7.4725,-0.7652,3.3391,0.2087
2005,-0.2682,-6.6294,-7.4341,-0.9739,3.4087,0.0696
2010,-0.2682,-6.6677,-7.3575,-1.1826,3.4087,0.1391
2015,-0.2299,-6.6294,-7.4341,-1.1826,3.3391,0.0
2020,-0.1916,-6.6677,-7.3958,-1.2522,3.4087,0.1391
2025,-0.1916,-6.6677,-7.4725,-1.0435,3.4087,0.1391
2030,-0.2682,-6.6294,-7.5491,-0.9043,3.4087,0.2087
2035,-0.2682,-6.6294,-7.4725,-0.6957,3.4087,0.2087
2040,-0.115,-6.7444,-7.6257,-0.5565,3.4087,0.3478
2045,-0.1533,-6.7061,-7.5491,-0.487,3.4087,0.2087
2050,-0.1916,-6.6677,-7.6257,-0.487,3.4783,0.3478
2055,-0.3066,-6.7061,-7.4341,-0.487,3.4783,0.2783
2060,-0.1916,-6.6294,-7.5108,-0.487,3.4783,0.3478
2065,-0.2682,-6.6677,-7.3958,-0.4174,3.4783,0.2087
2070,-0.3066,-6.5911,-7.6257,-0.2087,3.5478,0.3478
2075,-0.1533,-6.6677,-7.5874,-0.0696,3.5478,0.2783
2080,-0.2299,-6.6677,-7.5108,0.3478,3.5478,0.487
2085,-0.1533,-6.6677,-7.7024,0.487,3.6174,0.3478
2090,-0.115,-6.7061,-7.5874,0.7652,3.687,0.4174
2095,-0.3066,-6.5911,-7.4341,0.9739,3.687,0.3478
2100,-0.1916,-6.6677,-7.5491,1.0435,3.7565,0.4174
2105,-0.2682,-6.5911,-7.5108,0.9739,3.8261,0.3478
2110,-0.2682,-6.5911,-7.6257,0.9043,3.687,0.4174
2115,-0.2299,-6.6294,-7.3958,0.8348,4.0348,0.4174
2120,-0.2682,-6.5528,-7.5491,0.7652,4.1043,0.4174
2125,-0.2299,-6.5911,-7.5108,0.6957,4.2435,0.3478
2130,-0.3449,-6.6294,-7.5874,0.7652,4.2435,0.5565
2135,-0.2299,-6.6294,-7.3958,0.6261,4.1739,0.6261
2140,-0.2299,-6.5911,-7.5491,0.487,4.313,0.6957
2145,-0.3066,-6.6294,-7.5491,0.2087,4.313,0.5565
2150,-0.3066,-6.6294,-7.5491,0.0696,4.1043,0.6957
2155,-0.3066,-6.6677,-7.4341,-0.3478,4.1739,0.5565
2160,-0.3449,-6.6677,-7.5108,-0.2783,4.2435,0.6261
2165,-0.1916,-6.7444,-7.4725,-0.3478,4.2435,0.487
2170,-0.1533,-6.7444,-7.5108,-0.2783,4.2435,0.487
2175,-0.2299,-6.7061,-7.5491,-0.0696,4.313,0.487
2180,-0.1916,-6.6294,-7.5108,0.0696,4.313,0.487
2185,-0.2682,-6.6677,-7.4725,0.487,4.2435,0.487
2190,-0.1533,-6.7061,-7.5108,0.6957,4.2435,0.6957
2195,-0.2299,-6.5911,-7.5491,0.8348,4.2435,0.7652
2200,-0.1916,-6.7061,-7.4341,0.9043,4.2435,0.9043
2205,-0.2682,-6.4378,-7.4341,0.9739,4.1043,0.8348
2210,-0.3832,-6.5528,-7.5108,1.0435,4.0348,0.8348
2215,-0.3066,-6.5911,-7.3958,0.9043,3.9652,0.7652
2220,-0.2682,-6.5528,-7.5491,0.9043,3.8957,0.8348
2225,-0.3832,-6.6294,-7.3958,0.9739,4.0348,0.6261
2230,-0.2682,-6.6677,-7.4725,1.113,4.0348,0.7652
2235,-0.2682,-6.6677,-7.3958,1.1826,4.0348,0.6957
2240,-0.1533,-6.6677,-7.4725,1.1826,4.0348,0.6957
2245,-0.3066,-6.7061,-7.4725,1.113,4.1043,0.6261
2250,-0.2299,-6.6294,-7.3958,1.1826,4.1739,0.6261
2255,-0.3449,-6.5911,-7.5108,1.1826,4.0348,0.6261
2260,-0.2682,-6.6677,-7.3575,0.9739,4.2435,0.6957
2265,-0.3449,-6.5911,-7.3958,0.9043,4.3826,0.5565
2270,-0.3832,-6.5528,-7.5874,0.9043,4.2435,0.6261
2275,-0.2299,-6.6677,-7.5108,0.6957,4.1739,0.6261
2280,-0.1916,-6.6677,-7.3575,0.6261,4.1739,0.7652
2285,-0.3066,-6.6294,-7.5108,0.6261,4.1043,0.6261
2290,-0.3449,-6.6677,-7.5874,0.6261,4.2435,0.5565
2295,-0.2682,-6.7061,-7.5108,0.6261,4.2435,0.487
2300,-0.3449,-6.6677,-7.5108,0.6957,4.1739,0.5565
2305,-0.2682,-6.5911,-7.6257,0.6261,4.1739,0.487
2310,-0.3066,-6.6294,-7.7024,0.6957,4.1739,0.6261
2315,-0.2682,-6.7444,-7.6257,0.6261,4.1739,0.6261
2320,-0.2682,-6.7827,-7.5491,0.6261,4.0348,0.6261
2325,-0.2682,-6.6677,-7.5491,0.6261,4.0348,0.5565
2330,-0.2682,-6.5145,-7.5874,0.487,4.0348,0.6261
2335,-0.2299,-6.6294,-7.7407,0.4174,3.9652,0.6261
2340,-0.2682,-6.6294,-7.6641,0.2087,4.1739,0.5565
2345,-0.2682,-6.7061,-7.6257,0.0,4.2435,0.487
2350,-0.115,-6.8593,-7.8557,-0.1391,4.5913,0.6261
2355,-0.2299,-6.7061,-7.6641,-0.2783,4.8,0.487
2360,-0.1916,-6.821,-7.6641,-0.4174,5.0783,0.4174
2365,-0.2682,-6.7827,-7.6641,-0.487,5.3565,0.3478
2370,-0.3832,-6.7827,-7.7407,-0.6261,5.6348,0.2087
2375,-0.3066,-6.7827,-7.6641,-0.487,5.7739,0.2783
2380,-0.2682,-6.8593,-7.7407,-0.5565,5.9826,0.2087
2385,-0.3449,-6.821,-7.7407,-0.5565,5.913,0.2783
2390,-0.2299,-6.936,-7.9323,-0.6261,5.8435,0.2783
2395,-0.3066,-6.8977,-7.779,-0.6957,5.913,0.2087
2400,-0.2682,-6.8593,-7.894,-0.6957,5.913,0.2783
2405,-0.3066,-6.8977,-7.9706,-0.5565,5.8435,0.1391
2410,-0.3066,-6.936,-7.779,-0.4174,5.9826,0.2087
2415,-0.2682,-6.8593,-7.8557,-0.1391,6.1913,0.1391
2420,-0.2299,-6.8593,-7.9706,-0.0696,6.3304,0.1391
2425,-0.2299,-6.936,-7.9323,-0.2087,6.4696,0.2087
2430,-0.1533,-6.8593,-8.0473,-0.2783,6.7478,0.3478
2435,-0.0383,-6.9743,-8.0089,-0.487,7.2348,0.4174
2440,0.0,-6.936,-7.9706,-0.9043,7.7217,0.5565
2445,-0.0383,-7.0126,-8.0856,-1.113,8.3478,0.6957
2450,-0.115,-6.9743,-8.1239,-1.5304,8.9739,0.8348
2455,-0.0766,-7.0126,-8.0089,-1.8087,9.7391,1.1826
2460,-0.2299,-7.0126,-8.2005,-2.0174,9.9478,1.1826
2465,-0.1533,-6.9743,-8.2005,-2.4348,10.2261,1.3217
2470,-0.1916,-7.0126,-8.2772,-3.0609,10.3652,1.4609
2475,-0.3066,-7.0509,-8.2389,-3.2696,10.2957,1.3913
2480,-0.2682,-7.1276,-8.2772,-3.6174,10.2957,1.3217
2485,-0.3066,-7.2042,-8.2772,-3.8261,10.1565,1.2522
2490,-0.3832,-7.2042,-8.3155,-3.8261,10.087,0.9739
2495,-0.2682,-7.0893,-8.2772,-3.687,10.0174,0.6261
2500,-0.3449,-7.1659,-8.2772,-3.5478,10.2261,0.487
2505,-0.3832,-7.1276,-8.3155,-3.3391,10.5043,0.6261
2510,-0.2682,-7.2809,-8.2005,-3.2696,11.1304,0.7652
2515,-0.1533,-7.2425,-8.3155,-2.9913,11.687,1.0435
2520,-0.1533,-7.1659,-8.2005,-2.713,12.0348,1.1826
2525,-0.1533,-7.3192,-8.2772,-2.2957,12.3826,1.3217
2530,-0.0383,-7.4341,-8.2005,-2.1565,12.6609,1.4609
2535,0.0,-7.3192,-8.2772,-2.1565,13.0087,1.6696
2540,0.0,-7.2809,-8.3538,-2.1565,13.1478,1.7391
2545,0.0,-7.3575,-8.3538,-2.1565,13.3565,2.0174
2550,-0.0383,-7.3575,-8.5071,-2.2957,13.7043,2.2261
2555,-0.1916,-7.2809,-8.3921,-2.4348,13.8435,2.5739
2560,-0.1916,-7.3958,-8.3155,-2.5739,13.8435,2.6435
2565,-0.1916,-7.3575,-8.2772,-2.5043,13.9826,2.5739
2570,-0.2299,-7.3192,-8.2389,-2.2957,14.1217,2.5043
2575,-0.3449,-7.3958,-8.2389,-1.8087,14.1913,2.4348
2580,-0.2682,-7.2809,-8.2772,-1.4609,14.3304,2.2957
2585,-0.3066,-7.1659,-8.3538,-1.3217,14.4,2.4348
2590,-0.1916,-7.2425,-8.2005,-1.3217,14.2609,2.5043
2595,-0.3449,-7.2809,-8.3538,-0.9739,14.1913,2.8522
2600,-0.3832,-7.2809,-8.2772,-0.3478,13.9826,2.9217
2605,-0.3449,-7.2809,-8.2389,0.4174,13.7043,3.1304
2610,-0.3832,-7.3575,-8.2389,1.2522,13.2174,3.2696
2615,-0.3449,-7.4725,-8.1239,1.8783,12.7304,3.2696
2620,-0.2682,-7.4725,-8.2005,2.6435,12.3826,3.1304
2625,-0.1533,-7.5108,-8.1239,3.8261,11.8957,3.0609
2630,-0.2682,-7.5491,-8.2005,4.9391,11.7565,2.9217
2635,-0.0766,-7.4725,-8.0089,5.8435,11.9652,2.9913
2640,-0.1533,-7.4341,-7.9323,6.4,12.1043,2.8522
2645,-0.0383,-7.4725,-7.894,6.6087,12.2435,2.8522
2650,-0.115,-7.4341,-7.8557,7.2348,12.1739,2.6435
2655,0.0383,-7.5108,-7.9323,7.6522,12.2435,2.5739
2660,0.0766,-7.4341,-7.6641,7.8609,11.9652,2.4348
2665,0.0,-7.4341,-7.7407,7.7913,11.8957,2.4348
2670,-0.0383,-7.3958,-7.5491,7.6522,11.8261,2.2957
2675,0.0,-7.3192,-7.7024,7.3043,11.687,2.3652
2680,0.0,-7.2809,-7.5874,7.0957,11.4783,2.2261
2685,-0.0766,-7.3192,-7.7407,7.7217,11.0609,2.2261
2690,-0.2682,-7.2042,-7.5874,7.9304,10.9217,2.2261
2695,-0.1533,-7.2809,-7.6641,7.9304,10.6435,2.1565
2700,-0.1533,-7.2425,-7.6641,8.1391,10.5043,2.087
2705,-0.2682,-7.2425,-7.6641,8.5565,10.3652,2.087
2710,-0.1916,-7.3958,-7.6257,9.2522,10.1565,1.9478
2715,-0.0383,-7.4341,-7.7407,10.0174,10.1565,1.9478
2720,-0.115,-7.5108,-7.7407,10.6435,10.4348,2.1565
2725,0.0383,-7.4725,-7.6641,10.9913,10.9217,2.4348
2730,0.0383,-7.5108,-7.5108,10.6435,11.4087,2.4348
2735,0.0383,-7.5108,-7.6641,9.8087,11.5478,2.3652
2740,0.1533,-7.5874,-7.6641,9.3913,11.4783,2.2957
2745,0.0766,-7.5874,-7.6641,9.5304,11.2696,2.2957
2750,0.0383,-7.5108,-7.779,9.1826,11.0609,2.1565
2755,-0.115,-7.5108,-7.5108,8.7652,10.9913,2.1565
2760,0.1533,-7.5491,-7.7024,8.7652,10.9217,2.087
2765,-0.1533,-7.5874,-7.8173,8.8348,10.7826,2.2261
2770,-0.0383,-7.5874,-7.779,8.7652,10.713,2.087
2775,-0.2299,-7.5874,-7.7407,8.9739,10.2957,2.087
2780,-0.1533,-7.5874,-7.8557,9.5304,9.8087,2.0174
2785,-0.1533,-7.5491,-7.9323,10.0174,9.113,2.0174
2790,-0.115,-7.5874,-7.894,10.2261,8.8348,1.6
2795,-0.0766,-7.5491,-7.894,10.5043,8.3478,1.5304
2800,0.0,-7.6641,-7.9323,10.8522,8.1391,1.6696
2805,0.0,-7.4725,-8.2772,10.7826,8.0696,1.6696
2810,-0.115,-7.5491,-8.0856,10.2957,8.0696,1.7391
2815,-0.0383,-7.5491,-8.1622,9.7391,7.9304,2.0174
2820,0.0,-7.5108,-8.0856,9.3217,7.7217,2.087
2825,-0.0766,-7.5108,-7.9323,8.9043,7.513,2.087
2830,0.0383,-7.5874,-8.0856,8.6261,7.2348,2.087
2835,0.0,-7.5874,-7.894,8.2783,6.6783,2.2957
2840,0.0383,-7.5491,-7.9323,7.9304,6.4696,2.1565
2845,0.0383,-7.6641,-8.0473,7.6522,6.4696,2.2261
2850,0.0766,-7.5874,-7.894,7.3739,6.3304,2.0174
2855,0.0,-7.5491,-7.894,7.4435,6.2609,1.8087
2860,-0.0383,-7.6257,-7.9706,7.7913,6.3304,1.4609
2865,-0.0766,-7.7024,-7.8557,8.4174,6.1913,1.3217
2870,-0.0383,-7.779,-7.779,9.3217,6.1913,0.9739
2875,0.0766,-7.8173,-7.6641,10.5739,6.1217,0.9043
2880,0.115,-7.8173,-7.6257,12.5217,6.1217,0.7652
2885,0.115,-7.779,-7.5874,13.913,6.0522,0.6261
2890,-0.0383,-7.7024,-7.3958,14.887,5.8435,0.4174
2895,-0.1533,-7.6257,-7.4341,15.513,5.4261,0.4174
2900,0.0,-7.5874,-7.2809,15.4435,5.1478,0.0696
2905,-0.0383,-7.7407,-7.3575,14.4696,4.6609,0.0696
2910,-0.0766,-7.6257,-7.3575,12.8,4.1043,-0.2087
2915,-0.0383,-7.5491,-7.3575,10.9217,3.2696,-0.2087
2920,0.115,-7.6257,-7.5108,8.9739,2.3652,-0.3478
2925,0.0383,-7.5874,-7.3575,7.6522,1.6696,-0.2783
2930,-0.0383,-7.5874,-7.2809,6.887,1.1826,-0.2783
2935,0.0,-7.6641,-7.6641,6.4696,0.6261,-0.2783
2940,0.0,-7.6641,-7.5874,6.4696,0.0,-0.4174
2945,-0.0766,-7.7407,-7.4725,6.6087,-0.5565,-0.4174
2950,-0.115,-7.779,-7.4725,7.2348,-1.0435,-0.5565
2955,-0.115,-7.8173,-7.5491,8.2783,-1.0435,-0.7652
2960,0.0766,-7.8173,-7.4725,9.4609,-0.6261,-0.9739
2965,-0.0383,-7.9323,-7.2809,11.4783,-0.0696,-1.0435
2970,-0.1533,-7.894,-7.3192,13.4261,0.5565,-1.3913
2975,-0.1916,-7.8173,-7.3192,15.3739,0.9043,-1.5304
2980,-0.115,-7.9706,-7.1276,17.1826,0.9739,-1.7391
2985,-0.0383,-7.9323,-7.0509,18.8522,1.0435,-1.7391
2990,-0.0766,-7.7407,-7.1276,20.1739,0.9043,-2.0174
2995,0.0,-7.7407,-7.2042,20.8696,0.6261,-2.087
