timestamp,accX,accY,accZ,gyroX,gyroY,gyroZ
0,-1.1496,-8.5454,-4.6368,-2.5043,7.3739,2.5043
5,-1.1879,-8.6221,-4.5984,-2.5739,7.1652,2.5739
10,-1.1879,-8.6221,-4.6368,-2.4348,6.9565,2.5043
15,-1.1113,-8.6221,-4.6368,-2.6435,6.7478,2.4348
20,-1.0346,-8.6604,-4.7134,-2.713,6.6087,2.0174
25,-1.1113,-8.5454,-4.7517,-2.7826,6.4696,1.9478
30,-1.0346,-8.8903,-4.5601,-3.0609,6.4696,1.6
35,-1.1113,-8.5838,-4.5984,-3.2696,6.3304,1.2522
40,-1.1879,-8.4305,-4.6751,-3.4087,6.2609,0.9043
45,-1.1496,-8.5838,-4.7134,-3.8261,6.3304,0.5565
50,-1.1113,-8.6987,-4.79,-4.1739,6.2609,0.4174
55,-1.073,-8.6221,-4.5601,-4.313,6.3304,0.1391
60,-1.1496,-8.5838,-4.5218,-4.4522,6.3304,0.0696
65,-1.1113,-8.5838,-4.5218,-4.5913,6.3304,-0.2087
70,-1.1879,-8.6987,-4.5601,-4.6609,6.2609,-0.2783
75,-1.1113,-8.6987,-4.4068,-4.8,6.2609,-0.3478
80,-1.073,-8.737,-4.6368,-4.9391,6.0522,-0.4174
85,-1.1113,-8.737,-4.5218,-5.0783,5.8435,-0.4174
90,-1.1496,-8.7754,-4.4452,-5.2174,5.7043,-0.487
95,-1.1879,-8.737,-4.4452,-5.0783,5.4957,-0.4174
100,-1.2263,-8.6987,-4.4835,-4.8696,5.3565,-0.3478
105,-1.0346,-8.9286,-4.5601,-4.5217,5.0087,-0.2783
110,-1.2263,-8.852,-4.5601,-4.1739,4.7304,-0.2783
115,-1.1496,-8.737,-4.6368,-3.8261,4.3826,-0.2783
120,-1.2263,-8.7754,-4.5984,-3.5478,4.1739,-0.487
125,-1.1496,-8.8137,-4.5984,-3.2696,3.9652,-0.5565
130,-1.2263,-8.7754,-4.7517,-2.7826,3.7565,-0.6957
135,-1.2646,-8.9286,-4.79,-2.5043,3.7565,-0.8348
140,-1.3029,-8.6987,-4.9433,-2.2261,3.7565,-0.9043
145,-1.1879,-8.852,-4.7134,-2.0174,3.6174,-0.9739
150,-1.1496,-8.8903,-4.7134,-1.8087,3.5478,-1.1826
155,-1.3029,-8.7754,-4.7517,-1.7391,3.4783,-1.2522
160,-1.2646,-8.6604,-4.7517,-1.6,3.4783,-1.4609
165,-1.3029,-8.7754,-4.7517,-1.6,3.3391,-1.6696
170,-1.1879,-8.7754,-4.5601,-1.6696,3.2696,-1.8087
175,-1.1879,-8.6604,-4.6368,-1.6,3.3391,-1.8783
180,-1.3029,-8.6987,-4.5984,-1.6,3.2696,-2.0174
185,-1.1879,-8.6987,-4.5601,-1.5304,3.2,-2.1565
190,-1.1879,-8.6987,-4.5984,-1.4609,3.0609,-2.087
195,-1.2263,-8.6221,-4.6751,-1.6,2.9913,-2.2261
200,-1.073,-8.737,-4.5218,-1.6,2.8522,-2.1565
205,-1.1879,-8.5454,-4.6368,-1.8087,2.6435,-2.2261
210,-1.073,-8.5838,-4.6368,-2.0174,2.713,-2.2261
215,-1.0346,-8.737,-4.5984,-2.2261,2.6435,-2.2957
220,-1.0346,-8.6221,-4.6751,-2.5043,2.4348,-2.2957
225,-1.073,-8.6987,-4.79,-2.6435,2.5043,-2.3652
230,-0.9963,-8.737,-4.6368,-2.7826,2.4348,-2.5043
235,-1.073,-8.6987,-4.6751,-2.713,2.2957,-2.5043
240,-0.9963,-8.737,-4.3302,-2.5043,2.4348,-2.5739
245,-1.1879,-8.6604,-4.6751,-2.3652,2.2957,-2.6435
250,-0.9963,-8.737,-4.5984,-2.087,2.3652,-2.8522
255,-1.0346,-8.6604,-4.79,-2.0174,2.2261,-2.9217
260,-1.073,-8.737,-4.7134,-1.8783,2.2957,-2.9913
265,-1.0346,-8.7754,-4.6368,-1.7391,2.2957,-3.1304
270,-1.0346,-8.8137,-4.7134,-1.6696,2.3652,-3.3391
275,-1.073,-8.8137,-4.7517,-1.4609,2.3652,-3.2696
280,-1.0346,-8.6987,-4.7517,-1.1826,2.4348,-3.2696
285,-1.0346,-8.6221,-4.7134,-1.1826,2.2957,-3.3391
290,-0.958,-8.6987,-4.5601,-1.1826,2.2957,-3.4087
295,-0.8814,-8.6604,-4.6751,-1.2522,2.3652,-3.4087
300,-1.1113,-8.5454,-4.6368,-1.6,2.4348,-3.4783
305,-0.9197,-8.5454,-4.5984,-2.087,2.5043,-3.687
310,-0.843,-8.5838,-4.5601,-2.5739,2.5739,-3.687
315,-0.843,-8.5071,-4.5984,-3.1304,2.713,-3.6174
320,-0.8814,-8.5454,-4.5601,-3.8261,2.9217,-3.6174
325,-0.843,-8.5071,-4.4068,-4.4522,3.1304,-3.5478
330,-0.843,-8.4688,-4.6751,-5.2174,3.3391,-3.4783
335,-0.958,-8.3538,-4.5601,-6.0522,3.4087,-3.4783
340,-0.843,-8.4688,-4.5218,-7.0261,3.4087,-3.4087
345,-0.958,-8.5454,-4.4835,-7.8609,3.5478,-3.4087
350,-0.8814,-8.6987,-4.5218,-8.6261,3.6174,-3.4783
355,-1.1496,-8.967,-4.9433,-9.3217,3.687,-3.6174
360,-0.9197,-8.6604,-4.4068,-9.8783,3.7565,-3.6174
365,-1.1113,-8.7754,-4.6368,-10.0174,3.8957,-3.5478
370,-0.9963,-8.7754,-4.6368,-9.7391,4.1739,-3.4783
375,-1.1113,-8.8137,-4.7134,-9.113,4.2435,-3.4087
380,-0.9963,-8.852,-4.7134,-8.4174,4.3826,-3.4087
385,-0.958,-8.8137,-4.79,-7.513,4.7304,-3.4087
390,-0.9963,-8.9286,-4.8284,-6.5391,4.8696,-3.4783
395,-0.958,-8.8137,-4.8284,-5.5652,5.0087,-3.4783
400,-0.958,-8.7754,-4.8284,-4.5913,5.0783,-3.5478
405,-0.958,-8.8137,-4.8667,-3.7565,5.1478,-3.4783
410,-1.0346,-8.6221,-4.9816,-2.9217,5.1478,-3.4087
415,-0.9197,-8.6604,-4.9433,-2.2261,5.0087,-3.4087
420,-0.9963,-8.5838,-4.9433,-1.7391,4.9391,-3.3391
425,-0.843,-8.6221,-4.9816,-1.6696,4.8,-3.2696
430,-0.8047,-8.5071,-5.02,-1.6,4.7304,-3.1304
435,-0.843,-8.4688,-4.9816,-1.8087,4.5913,-2.9913
440,-0.8814,-8.4305,-4.905,-2.3652,4.4522,-2.8522
445,-0.958,-8.3155,-4.905,-2.9913,4.313,-2.7826
450,-0.7281,-8.4688,-5.02,-3.7565,4.2435,-2.6435
455,-0.8814,-8.5071,-4.8667,-4.3826,4.1739,-2.5739
460,-0.9197,-8.4688,-4.7517,-5.0087,4.0348,-2.5043
465,-0.9963,-8.3155,-4.905,-5.7043,4.0348,-2.4348
470,-0.8814,-8.4688,-4.6368,-6.3304,3.9652,-2.2957
475,-0.9197,-8.5454,-4.6368,-6.9565,3.9652,-2.4348
480,-0.9197,-8.5071,-4.5984,-7.6522,4.1043,-2.4348
485,-0.9197,-8.4688,-4.5601,-8.5565,4.2435,-2.5043
490,-0.9197,-8.5454,-4.79,-9.2522,4.313,-2.5739
495,-0.958,-8.6987,-4.7134,-9.8087,4.5217,-2.5739
500,-0.8814,-8.737,-4.7134,-9.9478,4.8696,-2.6435
505,-0.9963,-8.737,-4.79,-9.6,5.1478,-2.6435
510,-0.9197,-8.8137,-4.8667,-8.9739,5.287,-2.6435
515,-0.958,-8.8137,-4.9433,-7.9304,5.287,-2.5739
520,-0.9963,-8.852,-5.0966,-6.6087,5.287,-2.5043
525,-0.843,-8.852,-5.0966,-5.287,5.1478,-2.5043
530,-0.8814,-8.737,-5.02,-4.1043,5.0087,-2.5043
535,-0.8047,-8.6987,-5.1349,-3.1304,4.7304,-2.3652
540,-0.843,-8.6987,-5.02,-2.2261,4.4522,-2.3652
545,-0.8814,-8.7754,-5.1349,-1.5304,4.2435,-2.3652
550,-0.8814,-8.6604,-4.9433,-0.9739,4.1739,-2.1565
555,-0.8814,-8.6987,-4.9433,-0.5565,4.0348,-2.0174
560,-0.9197,-8.5071,-5.02,-0.2783,3.9652,-2.0174
565,-0.958,-8.5838,-4.9433,-0.2087,4.0348,-2.0174
570,-1.1113,-8.4305,-4.8284,-0.2087,3.9652,-1.9478
575,-0.8814,-8.6604,-4.9816,-0.3478,4.0348,-2.0174
580,-0.843,-8.5454,-4.7517,-0.5565,4.1739,-2.087
585,-0.958,-8.5454,-4.7134,-0.8348,4.1739,-1.9478
590,-0.958,-8.5071,-4.905,-1.1826,4.2435,-1.9478
595,-0.8814,-8.3921,-4.79,-1.4609,4.313,-2.0174
600,-0.8814,-8.4688,-4.6368,-1.8087,4.4522,-2.0174
605,-0.9197,-8.737,-4.79,-2.1565,4.5217,-2.1565
610,-0.9963,-8.5454,-4.7517,-2.5043,4.5217,-2.1565
615,-0.958,-8.6987,-4.7517,-2.8522,4.7304,-2.1565
620,-1.0346,-8.5838,-4.7517,-2.9913,4.8,-2.2261
625,-0.8814,-8.6604,-4.8284,-3.0609,4.8,-2.3652
630,-0.958,-8.6604,-4.7517,-2.9217,4.8,-2.2957
635,-0.958,-8.737,-4.79,-2.6435,4.7304,-2.3652
640,-0.9963,-8.6604,-4.8284,-2.4348,4.7304,-2.3652
645,-0.8814,-8.7754,-4.8284,-2.0174,4.6609,-2.4348
650,-0.958,-8.6604,-4.8284,-1.6696,4.5217,-2.3652
655,-0.8047,-8.737,-4.8667,-1.1826,4.5217,-2.3652
660,-0.9197,-8.737,-4.9816,-0.487,4.4522,-2.4348
665,-0.843,-8.6604,-4.905,0.1391,4.4522,-2.2957
670,-0.9963,-8.5454,-4.9433,0.7652,4.5217,-2.3652
675,-0.958,-8.6221,-5.02,1.113,4.7304,-2.2261
680,-0.8814,-8.5454,-4.8284,1.3217,4.8,-2.1565
685,-0.9963,-8.5454,-5.2499,1.2522,4.7304,-2.0174
690,-0.843,-8.5838,-4.8284,0.9739,4.6609,-1.8783
695,-0.8814,-8.6604,-4.9433,0.8348,4.5217,-1.6696
700,-0.9197,-8.6987,-4.905,0.8348,4.4522,-1.6
705,-0.8814,-8.5838,-4.8667,0.9043,4.1043,-1.6696
710,-0.958,-8.5454,-4.9816,0.9043,3.8261,-1.5304
715,-0.8047,-8.6221,-4.79,0.9043,3.687,-1.5304
720,-0.9197,-8.6604,-4.8667,0.6957,3.5478,-1.6
725,-0.8814,-8.5454,-4.9816,0.6261,3.4087,-1.4609
730,-0.843,-8.5071,-5.0583,0.487,3.4783,-1.4609
735,-0.843,-8.5454,-4.905,0.2087,3.4783,-1.5304
740,-0.8814,-8.5071,-4.7134,0.1391,3.6174,-1.3913
745,-0.843,-8.6987,-4.9433,-0.1391,3.7565,-1.3217
750,-0.7664,-8.5071,-4.8667,-0.3478,3.8957,-1.2522
755,-0.9197,-8.6221,-4.8667,-0.4174,4.1739,-1.2522
760,-0.9197,-8.6987,-4.7134,-0.4174,4.3826,-1.2522
765,-0.8047,-8.737,-4.8284,-0.487,4.5217,-1.3217
770,-0.8047,-8.8137,-4.7517,-0.2783,4.6609,-1.2522
775,-0.7664,-8.6987,-4.8667,-0.0696,4.6609,-1.2522
780,-0.8047,-8.7754,-4.905,0.0,4.7304,-1.113
785,-0.843,-8.6987,-4.79,0.2087,4.7304,-1.113
790,-1.0346,-8.3921,-4.9433,0.3478,4.5913,-1.113
795,-0.7664,-8.6987,-4.8284,0.4174,4.4522,-1.0435
800,-0.8047,-8.5838,-4.8284,0.6261,4.3826,-0.9739
805,-0.9197,-8.5838,-4.79,0.6261,4.313,-0.9739
810,-0.9197,-8.6604,-4.7134,0.7652,4.313,-0.9043
815,-0.8814,-8.6221,-4.905,0.9043,4.313,-0.7652
820,-0.9197,-8.737,-4.7517,0.9739,4.313,-0.6261
825,-0.843,-8.5838,-4.8667,0.9739,4.5217,-0.5565
830,-0.7664,-8.6221,-4.79,0.9739,4.5913,-0.5565
835,-0.7664,-8.5454,-4.8667,0.9043,4.5217,-0.4174
840,-0.7281,-8.6604,-4.6751,0.7652,4.5217,-0.4174
845,-0.958,-8.5838,-4.9433,0.6957,4.5217,-0.4174
850,-0.6898,-8.6987,-4.6751,0.6957,4.5217,-0.487
855,-0.8047,-8.6221,-4.79,0.6957,4.5217,-0.3478
860,-0.8814,-8.6604,-4.8667,0.6261,4.5913,-0.1391
865,-0.843,-8.5838,-4.905,0.6261,4.4522,-0.2087
870,-0.7664,-8.6221,-4.7134,0.6957,4.4522,0.0
875,-0.7281,-8.6604,-4.79,0.5565,4.4522,0.0696
880,-0.8047,-8.5838,-4.905,0.6261,4.4522,0.0696
885,-0.958,-8.6604,-4.7134,0.5565,4.4522,0.0696
890,-0.843,-8.737,-4.8284,0.487,4.3826,0.0696
895,-0.8047,-8.5838,-4.9433,0.5565,4.4522,0.0
900,-0.8814,-8.5838,-4.8284,0.5565,4.5913,0.1391
905,-0.843,-8.6987,-4.9433,0.6957,4.5217,0.0696
910,-0.8047,-8.5838,-4.79,0.7652,4.7304,0.1391
915,-0.7664,-8.6221,-4.8284,0.8348,4.8696,0.1391
920,-0.8814,-8.6987,-4.8284,0.9739,4.9391,0.1391
925,-0.8814,-8.6221,-4.79,1.0435,5.0087,0.2087
930,-0.8047,-8.5071,-4.79,1.0435,5.0087,0.2087
935,-0.8814,-8.6604,-4.8284,1.113,5.0783,0.2783
940,-0.8047,-8.5454,-4.905,1.113,5.0783,0.4174
945,-0.8814,-8.5838,-4.8284,1.1826,5.287,0.3478
950,-0.6898,-8.6604,-4.9816,1.3913,5.2174,0.4174
955,-0.958,-8.6221,-4.8284,1.4609,5.2174,0.4174
960,-0.8814,-8.5838,-4.8667,1.6696,5.1478,0.4174
965,-0.9197,-8.5071,-4.8667,1.8087,5.0087,0.5565
970,-0.9197,-8.5838,-4.9433,1.8783,4.6609,0.487
975,-0.9197,-8.6221,-4.8667,1.8783,4.4522,0.4174
980,-0.9197,-8.5454,-4.7134,1.9478,4.2435,0.487
985,-0.843,-8.6604,-4.8284,1.8783,4.313,0.4174
990,-0.8047,-8.6604,-4.7134,1.8783,4.313,0.4174
995,-0.8814,-8.6221,-4.7134,1.8783,4.2435,0.4174
1000,-0.8814,-8.6987,-4.7517,1.8783,4.3826,0.487
1005,-0.958,-8.737,-4.79,2.1565,4.313,0.487
1010,-0.8047,-8.6221,-4.7134,2.2957,4.3826,0.4174
1015,-0.9197,-8.8137,-4.8284,2.5043,4.3826,0.4174
1020,-0.7281,-8.9286,-4.7517,2.6435,4.3826,0.3478
1025,-0.958,-8.5838,-4.6751,2.7826,4.4522,0.2087
1030,-0.958,-8.737,-4.7134,2.8522,4.5217,0.2087
1035,-0.9197,-8.5838,-4.7517,2.7826,4.4522,0.1391
1040,-0.8814,-8.5838,-4.79,2.9913,4.4522,0.0
1045,-0.7664,-8.6987,-4.6751,3.1304,4.4522,-0.0696
1050,-0.958,-8.6604,-4.6368,3.2696,4.5217,-0.1391
1055,-0.8814,-8.6221,-4.7517,3.2696,4.5217,-0.0696
1060,-0.8814,-8.6221,-4.6368,3.2696,4.5217,-0.1391
1065,-0.9963,-8.6221,-4.6368,3.2696,4.5217,-0.2087
1070,-0.8047,-8.8137,-4.79,3.2696,4.4522,-0.3478
1075,-0.958,-8.6987,-4.7134,3.2696,4.5913,-0.2087
1080,-0.9963,-8.737,-4.7517,3.2,4.5217,-0.2783
1085,-1.0346,-8.6987,-4.7517,3.3391,4.6609,-0.2087
1090,-0.9197,-8.737,-4.6751,3.3391,4.5217,-0.0696
1095,-0.8814,-8.737,-4.6368,3.4783,4.5217,0.0
1100,-0.9197,-8.5838,-4.8667,3.5478,4.4522,-0.1391
1105,-0.9963,-8.7754,-4.79,3.7565,4.4522,-0.0696
1110,-0.9197,-8.6987,-4.8284,3.9652,4.3826,-0.1391
1115,-0.9197,-8.6987,-4.79,4.1739,4.2435,-0.0696
1120,-0.8047,-8.5838,-4.7517,4.313,4.1043,-0.2087
1125,-0.9963,-8.5838,-4.79,4.3826,4.0348,-0.2087
1130,-0.958,-8.6604,-4.7517,4.3826,4.0348,-0.3478
1135,-0.9197,-8.7754,-4.7134,4.313,3.9652,-0.4174
1140,-0.843,-8.6987,-4.7134,4.2435,4.0348,-0.4174
1145,-0.843,-8.7754,-4.5984,4.1043,3.9652,-0.5565
1150,-1.0346,-8.737,-4.6751,4.1043,4.0348,-0.5565
1155,-0.958,-8.6987,-4.5984,3.8957,3.9652,-0.6957
1160,-0.9197,-8.7754,-4.6368,3.8957,3.9652,-0.6957
1165,-1.073,-8.6987,-4.6751,3.8957,3.8957,-0.6957
1170,-0.9197,-8.8137,-4.5601,3.8261,4.0348,-0.8348
1175,-0.958,-8.6987,-4.6751,3.7565,3.8957,-0.7652
1180,-0.958,-8.737,-4.6751,3.7565,3.8957,-0.7652
1185,-0.9197,-8.6604,-4.6368,3.687,3.8957,-0.9739
1190,-0.8814,-8.7754,-4.4835,3.687,3.8261,-0.9739
1195,-0.9963,-8.6987,-4.79,3.6174,3.8957,-0.9739
1200,-0.9197,-8.7754,-4.5218,3.5478,3.8957,-0.9739
1205,-0.8814,-8.737,-4.6368,3.4783,3.9652,-0.9739
1210,-0.9963,-8.737,-4.5984,3.3391,4.1043,-0.9043
1215,-0.958,-8.7754,-4.5984,3.4087,4.1739,-0.9739
1220,-0.9197,-8.737,-4.5601,3.4087,4.1739,-0.8348
1225,-0.9963,-8.6221,-4.4452,3.3391,4.1739,-0.8348
1230,-0.9197,-8.737,-4.3685,3.1304,4.2435,-0.7652
1235,-0.7664,-8.737,-4.5984,3.2696,4.2435,-0.6261
1240,-0.9197,-8.737,-4.6751,3.3391,4.1043,-0.6957
1245,-0.843,-8.6604,-4.5218,3.687,4.0348,-0.6957
1250,-0.9197,-8.7754,-4.5601,3.7565,3.8957,-0.7652
1255,-0.8047,-8.737,-4.5984,3.8957,3.7565,-0.6957
1260,-0.9197,-8.5838,-4.5601,3.8957,3.6174,-0.7652
1265,-0.843,-8.8137,-4.4835,3.9652,3.5478,-0.7652
1270,-0.8047,-8.7754,-4.7517,4.1043,3.4087,-0.6957
1275,-0.843,-8.7754,-4.5984,4.1043,3.2696,-0.7652
1280,-0.8047,-8.6604,-4.5984,3.8261,3.2696,-0.6957
1285,-0.7664,-8.737,-4.6368,3.687,3.2696,-0.6261
1290,-0.9197,-8.6987,-4.5601,3.4783,3.4783,-0.5565
1295,-0.8814,-8.7754,-4.5601,3.1304,3.4087,-0.6261
1300,-0.958,-8.6987,-4.4835,2.9913,3.6174,-0.6261
1305,-0.9963,-8.6604,-4.4835,2.9217,3.8261,-0.6957
1310,-0.9197,-8.7754,-4.5601,2.7826,3.9652,-0.6261
1315,-0.9197,-8.6987,-4.5601,2.7826,4.1739,-0.6261
1320,-0.8047,-8.6987,-4.5218,2.713,4.313,-0.8348
1325,-0.843,-8.7754,-4.4835,2.5739,4.4522,-0.8348
1330,-0.8814,-8.6604,-4.5984,2.5739,4.5913,-0.9043
1335,-0.843,-8.7754,-4.4452,2.5739,4.5913,-0.8348
1340,-0.9197,-8.6221,-4.6368,2.4348,4.6609,-0.8348
1345,-0.8047,-8.6221,-4.5218,2.2261,4.6609,-0.8348
1350,-0.843,-8.737,-4.5984,2.087,4.6609,-0.6957
1355,-0.6898,-8.7754,-4.6751,2.087,4.5217,-0.6957
1360,-0.8814,-8.852,-4.5218,1.8783,4.5913,-0.6957
1365,-0.843,-8.8137,-4.4068,1.8087,4.4522,-0.5565
1370,-0.843,-8.8137,-4.3685,1.6696,4.313,-0.487
1375,-0.843,-8.737,-4.4835,1.6696,4.2435,-0.4174
1380,-0.843,-8.8903,-4.4835,1.6696,4.2435,-0.3478
1385,-0.958,-8.852,-4.5218,1.8783,4.2435,-0.2783
1390,-0.843,-8.7754,-4.5218,2.2957,4.0348,-0.3478
1395,-0.843,-9.0436,-4.5218,2.5043,4.0348,-0.3478
1400,-0.7664,-8.8903,-4.4835,2.8522,4.0348,-0.3478
1405,-0.6898,-8.8903,-4.6368,3.2,3.8957,-0.487
1410,-0.7664,-8.8137,-4.5218,3.4087,3.8957,-0.4174
1415,-0.8047,-8.7754,-4.5984,3.5478,3.8261,-0.487
1420,-0.8047,-8.6987,-4.5218,3.5478,3.8261,-0.5565
1425,-0.8814,-8.8137,-4.5984,3.4783,3.8957,-0.5565
1430,-0.8047,-8.6987,-4.5601,3.6174,4.0348,-0.6261
1435,-0.843,-8.852,-4.4835,3.4783,4.1043,-0.6261
1440,-0.843,-8.6221,-4.5984,3.5478,4.1739,-0.6261
1445,-0.843,-8.737,-4.4452,3.4783,4.1739,-0.487
1450,-0.843,-8.737,-4.5984,3.3391,4.2435,-0.5565
1455,-0.7664,-8.7754,-4.4068,3.1304,4.4522,-0.487
1460,-0.8047,-8.737,-4.5218,2.8522,4.6609,-0.487
1465,-0.8814,-8.8137,-4.4068,2.713,4.5217,-0.4174
1470,-0.9197,-8.7754,-4.4835,2.5739,4.7304,-0.4174
1475,-0.9197,-8.737,-4.5601,2.5043,4.8696,-0.3478
1480,-0.9197,-8.6987,-4.3302,2.4348,4.7304,-0.2783
1485,-0.9197,-8.7754,-4.4835,2.2957,4.8,-0.2783
1490,-0.9963,-8.6604,-4.4452,2.2957,4.8,-0.4174
1495,-0.958,-8.8903,-4.4835,2.2957,4.6609,-0.3478
1500,-0.9197,-8.7754,-4.4835,2.2957,4.5913,-0.3478
1505,-0.8814,-8.8137,-4.3685,2.1565,4.5913,-0.2783
1510,-0.843,-8.8137,-4.4835,2.1565,4.5217,-0.3478
1515,-0.8047,-8.737,-4.4835,2.0174,4.5913,-0.2087
1520,-0.843,-8.8903,-4.2536,1.9478,4.5217,-0.2087
1525,-0.9197,-8.6604,-4.4068,1.8783,4.5217,-0.2087
1530,-0.958,-8.852,-4.4452,1.8783,4.5913,-0.1391
1535,-0.8047,-8.852,-4.4068,1.6696,4.5217,-0.1391
1540,-0.8814,-8.8137,-4.4452,1.6,4.5217,-0.0696
1545,-1.0346,-8.8137,-4.5984,1.6,4.5217,0.0
1550,-0.8814,-8.8137,-4.4835,1.4609,4.5913,0.0696
1555,-0.6131,-8.7754,-4.5218,1.6,4.5913,0.0696
1560,-0.7664,-8.8137,-4.4068,1.4609,4.5913,0.1391
1565,-0.843,-8.852,-4.5601,1.2522,4.5913,0.0696
1570,-0.8814,-8.8137,-4.5218,1.2522,4.5217,0.0
1575,-0.8814,-8.7754,-4.5601,1.113,4.7304,0.0
1580,-0.9197,-8.8903,-4.4452,1.0435,4.8,0.0
1585,-0.843,-8.9286,-4.3302,0.9043,4.8696,0.0
1590,-0.958,-8.852,-4.4452,0.9739,4.8696,0.0
1595,-0.843,-8.852,-4.4835,0.9739,4.9391,-0.0696
1600,-0.843,-8.737,-4.4452,0.9043,4.8696,-0.1391
1605,-0.958,-8.8903,-4.1769,0.8348,5.0087,-0.1391
1610,-0.8047,-8.737,-4.4835,0.7652,5.0087,-0.2087
1615,-0.8047,-9.0436,-4.3302,0.6261,4.8696,-0.1391
1620,-0.8814,-8.8903,-4.4835,0.6957,4.8,-0.1391
1625,-0.958,-8.967,-4.4835,0.8348,4.5913,-0.2087
1630,-0.8047,-8.967,-4.4835,1.2522,4.5217,-0.1391
1635,-0.958,-8.8903,-4.5601,1.6,4.4522,-0.0696
1640,-0.958,-8.852,-4.4068,1.7391,4.5217,-0.2783
1645,-0.9197,-8.8903,-4.4835,1.8783,4.4522,-0.2783
1650,-0.958,-8.8903,-4.4835,1.8783,4.4522,-0.2783
1655,-0.7664,-8.8137,-4.5601,1.8087,4.3826,-0.3478
1660,-0.9963,-8.8137,-4.3685,1.6696,4.4522,-0.4174
1665,-0.9963,-8.737,-4.2919,1.5304,4.3826,-0.4174
1670,-0.9197,-9.0436,-4.3302,1.4609,4.5217,-0.4174
1675,-0.958,-8.8903,-4.3685,1.6,4.3826,-0.487
1680,-0.843,-8.8903,-4.2919,1.6,4.3826,-0.487
1685,-0.9197,-9.0053,-4.2152,1.6696,4.3826,-0.487
1690,-0.9963,-8.8137,-4.2919,1.5304,4.4522,-0.4174
1695,-0.9197,-8.7754,-4.2919,1.5304,4.4522,-0.487
1700,-0.9963,-8.852,-4.2152,1.3913,4.313,-0.487
1705,-0.9963,-8.8137,-4.1769,1.1826,4.3826,-0.5565
1710,-0.843,-8.967,-4.2919,1.0435,4.3826,-0.5565
1715,-0.8814,-8.8903,-4.2152,0.8348,4.3826,-0.6261
1720,-0.9197,-9.0436,-4.3685,0.6261,4.4522,-0.6261
1725,-0.958,-8.9286,-4.4452,0.6261,4.4522,-0.5565
1730,-0.8047,-8.9286,-4.2536,0.6261,4.3826,-0.6957
1735,-0.843,-8.8137,-4.5218,0.6957,4.3826,-0.7652
1740,-0.9963,-8.737,-4.3302,0.8348,4.4522,-0.6957
1745,-0.958,-8.8903,-4.2152,0.8348,4.3826,-0.6261
1750,-0.8814,-8.8137,-4.4835,0.9739,4.313,-0.6957
1755,-0.9963,-8.852,-4.4452,1.113,4.313,-0.6957
1760,-0.8814,-8.852,-4.2919,1.113,4.313,-0.6957
1765,-0.9197,-8.8137,-4.4068,1.113,4.4522,-0.7652
1770,-0.843,-8.852,-4.4068,1.1826,4.3826,-0.6261
1775,-0.8814,-8.852,-4.4452,1.1826,4.4522,-0.6957
1780,-0.8814,-8.9286,-4.4452,1.113,4.5217,-0.6957
1785,-0.843,-8.8137,-4.4835,1.113,4.6609,-0.7652
1790,-0.9197,-8.852,-4.2919,1.0435,4.6609,-0.7652
1795,-0.9197,-8.852,-4.5601,0.9043,4.7304,-0.6957
1800,-0.9197,-8.737,-4.4068,0.7652,4.6609,-0.8348
1805,-0.8814,-8.8903,-4.3685,0.6957,4.6609,-0.6957
1810,-0.8814,-8.852,-4.4068,0.6957,4.5913,-0.6261
1815,-0.8814,-8.737,-4.3685,0.6261,4.5217,-0.5565
1820,-0.843,-8.8903,-4.3685,0.487,4.3826,-0.6957
1825,-0.8814,-8.9286,-4.2152,0.5565,4.4522,-0.7652
1830,-0.9197,-8.852,-4.2152,0.487,4.313,-0.6261
1835,-0.9197,-8.852,-4.4452,0.5565,4.4522,-0.6957
1840,-0.958,-8.8137,-4.4068,0.5565,4.5217,-0.6957
1845,-0.9197,-8.967,-4.4068,0.487,4.5217,-0.6957
1850,-0.7664,-8.8137,-4.3302,0.5565,4.6609,-0.6261
1855,-0.9197,-9.0053,-4.2919,0.4174,4.5913,-0.487
1860,-0.843,-8.852,-4.2152,0.4174,4.6609,-0.4174
1865,-0.843,-8.8137,-4.3302,0.487,4.6609,-0.5565
1870,-0.8047,-8.8903,-4.4835,0.487,4.5913,-0.5565
1875,-0.8814,-8.8903,-4.4452,0.487,4.5913,-0.5565
1880,-0.843,-8.9286,-4.3685,0.487,4.7304,-0.5565
1885,-0.7664,-8.8903,-4.3685,0.487,4.8,-0.6261
1890,-0.9963,-8.8137,-4.4452,0.4174,4.7304,-0.5565
1895,-0.7664,-8.9286,-4.3302,0.3478,4.6609,-0.5565
1900,-0.7281,-8.852,-4.3685,0.2087,4.7304,-0.487
1905,-0.843,-8.8903,-4.3685,0.0696,4.8,-0.5565
1910,-0.958,-8.8903,-4.4068,0.0696,4.8,-0.5565
1915,-0.9197,-8.8137,-4.3302,0.0,4.8696,-0.5565
1920,-0.843,-8.9286,-4.2536,0.0,5.0087,-0.6261
1925,-0.843,-9.0053,-4.3302,0.0,4.9391,-0.5565
1930,-0.7664,-8.8903,-4.3302,0.0,4.8696,-0.6957
1935,-0.8814,-8.852,-4.4835,0.0,4.7304,-0.5565
1940,-0.8814,-8.852,-4.4452,0.0,4.6609,-0.5565
1945,-0.843,-8.967,-4.3302,-0.0696,4.4522,-0.5565
1950,-0.9197,-8.852,-4.2152,-0.0696,4.3826,-0.5565
1955,-0.8814,-8.852,-4.2919,-0.2087,4.2435,-0.5565
1960,-0.8814,-8.7754,-4.2919,-0.3478,4.1739,-0.5565
1965,-0.8814,-8.852,-4.3302,-0.4174,4.1043,-0.487
1970,-0.9963,-8.8903,-4.2152,-0.6261,4.1043,-0.487
1975,-0.8814,-8.9286,-4.4068,-0.6261,4.2435,-0.487
1980,-0.9197,-8.9286,-4.1769,-0.6261,4.313,-0.487
1985,-0.8814,-8.8903,-4.3302,-0.5565,4.313,-0.487
1990,-1.2263,-9.0819,-4.2919,-0.487,4.5217,-0.4174
1995,-0.9197,-8.8137,-4.3685,-0.3478,4.8,-0.4174
2000,-0.8814,-8.852,-4.3685,-0.3478,4.8696,-0.3478
2005,-0.843,-8.8903,-4.2152,-0.2783,4.9391,-0.3478
2010,-0.9963,-8.8903,-4.2919,-0.2783,5.0087,-0.4174
2015,-0.9197,-8.8903,-4.4452,-0.2783,5.0087,-0.487
2020,-0.8047,-8.8137,-4.3685,-0.2783,4.9391,-0.4174
2025,-0.8047,-8.8903,-4.3302,-0.3478,4.8696,-0.487
2030,-0.843,-8.9286,-4.2919,-0.3478,4.8,-0.487
2035,-0.9197,-8.852,-4.3302,-0.3478,4.8696,-0.5565
2040,-0.843,-8.8137,-4.3685,-0.4174,4.7304,-0.5565
2045,-0.9197,-8.737,-4.4068,-0.4174,4.7304,-0.487
2050,-0.843,-8.8903,-4.4452,-0.6261,4.6609,-0.4174
2055,-0.8814,-8.8137,-4.2919,-0.7652,4.8696,-0.2783
2060,-0.9197,-8.8903,-4.3685,-0.8348,4.7304,-0.1391
2065,-0.8814,-8.8903,-4.2919,-0.7652,4.5913,0.0
2070,-0.8814,-8.7754,-4.4068,-0.6261,4.5913,0.0696
2075,-0.9197,-8.8137,-4.3685,-0.4174,4.5217,0.0696
2080,-0.843,-8.8903,-4.4835,-0.3478,4.4522,0.0
2085,-0.7664,-8.7754,-4.6751,-0.2783,4.3826,-0.0696
2090,-0.843,-8.8137,-4.6368,-0.2087,4.4522,0.0
2095,-0.843,-8.7754,-4.4835,-0.5565,4.5217,-0.1391
2100,-0.843,-8.852,-4.7134,-0.9043,4.5217,-0.2087
2105,-0.843,-8.852,-4.4835,-1.2522,4.5217,-0.2783
2110,-0.6898,-8.967,-4.5984,-1.6696,4.7304,-0.6261
2115,-0.7281,-8.8903,-4.4068,-2.0174,4.8696,-0.9739
2120,-0.8047,-8.8137,-4.5218,-2.5043,4.8696,-1.6
2125,-0.8047,-8.8903,-4.4835,-2.9913,4.9391,-2.087
2130,-0.8047,-8.8137,-4.7134,-3.4087,5.0087,-2.4348
2135,-0.8047,-8.6604,-4.5218,-3.7565,5.0783,-2.713
2140,-0.7281,-8.5071,-4.6751,-3.6174,5.3565,-2.4348
2145,-0.8814,-8.3921,-4.79,-3.8957,6.1913,-1.8783
2150,-0.9197,-8.4305,-4.7517,-6.4696,7.6522,-0.5565
2155,-1.1496,-8.5454,-4.5218,-11.2696,9.6696,1.1826
2160,-1.2646,-8.5838,-4.7134,-17.3913,11.6174,3.1304
2165,-1.1879,-8.6221,-4.905,-21.9826,13.287,4.8
2170,-1.073,-7.6641,-5.3648,-22.1913,13.9826,5.8435
2175,-0.8814,-6.8977,-5.6331,-19.2,13.1478,5.8435
2180,-0.9963,-6.2079,-5.8247,-17.7391,10.6435,5.6348
2185,-0.7281,-6.4378,-5.2882,-22.9565,7.513,7.7913
2190,-0.3449,-6.4761,-5.1732,-34.5043,3.687,11.4087
2195,-0.843,-5.863,-6.0163,-46.1217,-1.6696,11.2
2200,-2.031,-5.2116,-6.5528,-53.6348,-7.9304,6.1217
2205,-2.4142,-4.5601,-6.936,-58.6435,-11.2696,1.4609
2210,-2.3759,-5.2116,-6.8977,-64.487,-10.7826,-0.487
2215,-2.2226,-6.0929,-6.821,-73.6,-7.8609,-0.3478
2220,-1.6095,-7.0509,-6.7444,-85.5652,-5.7043,1.7391
2225,-1.4562,-7.4725,-6.4378,-94.4696,-3.8957,3.4087
2230,-1.4945,-8.2005,-6.4761,-96.9043,-2.3652,3.5478
2235,-1.073,-9.0053,-6.3229,-97.8783,-1.2522,5.2174
2240,-0.8814,-9.6184,-5.8247,-97.3217,1.3217,7.9304
2245,-0.6514,-9.7334,-5.6714,-93.9826,4.5217,8.9043
2250,-0.5748,-10.0016,-5.5948,-88.0,6.7478,8.0696
2255,-0.5748,-10.0782,-5.2499,-81.2522,7.7217,6.887
2260,-0.6514,-10.4231,-5.2499,-74.9217,7.5826,6.4696
2265,-0.7664,-10.6147,-5.0583,-68.4522,6.8174,7.1652
2270,-0.6131,-10.883,-4.5601,-61.5652,6.1913,8.6957
2275,-0.4598,-10.8446,-4.1003,-53.4957,6.2609,9.7391
2280,-0.5365,-10.653,-3.4871,-44.9391,6.6087,9.8783
2285,-0.5365,-10.4231,-3.1806,-37.913,6.5391,9.6
2290,-0.3832,-10.3082,-2.7974,-34.5043,6.3304,9.6
2295,-0.115,-10.1932,-2.4525,-35.5478,5.913,10.087
2300,-0.3449,-10.3465,-2.5675,-40.7652,5.0087,10.3652
2305,-0.4982,-10.5381,-2.2992,-49.6696,3.3391,10.7826
2310,-0.4982,-11.1512,-2.0693,-60.8,0.3478,11.5478
2315,-0.5748,-11.0363,-1.8394,-72.4174,-2.9913,12.2435
2320,-0.6898,-11.4578,-2.1076,-83.1304,-6.887,12.9391
2325,-0.6898,-11.3811,-2.7207,-92.7304,-9.6696,12.8
2330,-1.1113,-11.1895,-3.2955,-101.2174,-11.4783,12.8
2335,-1.4179,-10.9979,-4.0236,-107.8261,-12.8,13.0783
2340,-1.6478,-11.0363,-5.0583,-112.1391,-13.7739,13.287
2345,-1.8394,-11.3428,-5.6714,-114.9217,-14.1913,13.9826
2350,-1.6095,-11.5727,-6.0546,-116.4522,-14.1217,14.4
2355,-1.5711,-11.6877,-6.5145,-116.4522,-14.1913,14.1217
2360,-1.6095,-12.0326,-6.5911,-115.2,-14.4696,14.2609
2365,-1.2646,-12.4541,-6.3612,-111.7217,-15.3043,15.0261
2370,-1.1879,-12.9906,-6.2845,-104.9739,-16.1391,15.5826
2375,-1.3412,-13.4504,-6.5145,-95.3739,-16.8348,15.0957
2380,-1.5328,-13.3355,-7.0126,-84.3826,-18.1565,13.6348
2385,-1.6478,-12.9139,-7.4725,-73.2522,-19.8957,12.1043
2390,-1.5328,-12.3391,-7.9706,-62.6783,-21.3565,11.3391
2395,-1.4945,-11.9943,-8.2772,-53.9826,-21.8435,10.9913
2400,-1.5328,-11.7643,-8.737,-48.6261,-22.0522,10.8522
2405,-1.8394,-11.4961,-8.967,-46.6783,-21.9826,10.2957
2410,-1.9927,-11.0746,-9.3502,-46.1217,-21.4261,9.2522
2415,-1.9927,-11.0746,-9.5418,-45.0087,-19.8957,7.4435
2420,-1.916,-11.1895,-9.5801,-42.2957,-17.4609,5.4261
2425,-2.0693,-10.9213,-10.0399,-37.7739,-14.4696,3.687
2430,-2.1459,-11.0746,-10.0016,-31.5826,-10.9913,2.3652
2435,-2.1076,-10.8446,-10.1549,-24.2087,-7.7913,1.4609
2440,-2.0693,-10.768,-10.1549,-17.1826,-4.5913,0.5565
2445,-2.1076,-10.6914,-10.1932,-10.713,-1.3217,0.5565
2450,-2.0693,-10.6147,-10.0782,-4.8696,1.6696,0.4174
2455,-2.2609,-10.6914,-9.8866,0.3478,3.8261,-0.2087
2460,-2.2992,-10.6147,-10.0399,5.4957,5.3565,-0.7652
2465,-2.4142,-10.3465,-9.8483,9.9478,6.887,-1.6696
2470,-2.2226,-10.1932,-10.0399,13.0783,8.1391,-2.4348
2475,-2.2226,-9.9633,-9.81,14.3304,9.3217,-3.4087
2480,-2.2226,-10.0399,-9.8483,14.6087,9.9478,-4.3826
2485,-2.1843,-9.7334,-9.81,14.1913,10.1565,-5.8435
2490,-2.3375,-9.81,-9.6567,13.287,9.7391,-7.1652
2495,-2.2992,-9.6184,-9.5418,13.0087,8.9739,-8.4174
2500,-2.3759,-9.695,-9.5034,13.4261,7.9304,-9.3913
2505,-2.2992,-9.5034,-9.0819,14.6087,6.7478,-10.3652
2510,-2.2609,-9.5801,-8.7754,16.2783,5.0783,-11.4087
2515,-2.3375,-9.4268,-8.5838,18.713,3.3391,-12.6609
2520,-2.2226,-9.2735,-8.4688,21.287,2.0174,-14.1217
2525,-2.031,-9.0819,-8.2389,22.9565,1.6696,-15.3739
2530,-1.9927,-8.9286,-8.2005,23.5826,2.0174,-16.3478
2535,-1.9543,-8.8137,-8.0089,23.0957,2.8522,-16.9043
2540,-1.9543,-8.6604,-7.6257,21.913,3.5478,-16.9043
2545,-1.916,-8.6987,-7.6257,20.8,3.4783,-16.487
2550,-1.6861,-8.6221,-7.3575,19.7565,3.4783,-16.2087
2555,-1.6478,-8.6987,-7.2425,18.6435,3.2696,-15.3043
2560,-1.4945,-8.737,-7.0893,17.7391,2.9217,-13.8435
2565,-1.5328,-8.6987,-6.8593,17.0435,2.9217,-12.5217
2570,-1.4179,-8.737,-6.7827,16.7652,3.2696,-10.9913
2575,-1.4179,-8.6987,-6.7827,16.7652,4.1739,-9.7391
2580,-1.4562,-9.0053,-6.8593,17.0435,5.1478,-8.7652
2585,-1.3412,-8.967,-7.0893,17.6,5.5652,-7.7217
2590,-1.3795,-9.0053,-6.936,18.7826,5.4957,-7.0261
2595,-1.4179,-8.9286,-6.936,20.8,5.1478,-6.5391
2600,-1.2263,-8.967,-6.821,23.2348,4.8,-6.1217
2605,-1.1879,-8.852,-6.6677,26.0174,4.5217,-5.7739
2610,-0.9963,-8.6987,-6.4761,28.9391,4.2435,-5.913
2615,-1.073,-8.737,-6.5145,31.6522,4.2435,-6.4696
2620,-0.9963,-8.852,-6.1696,34.0174,4.5217,-6.887
2625,-1.0346,-8.8903,-6.0163,36.2435,5.4261,-7.2348
2630,-1.0346,-8.737,-5.748,38.3304,6.4696,-7.8609
2635,-0.8814,-9.1586,-5.748,40.6261,7.7217,-8.6261
2640,-0.9197,-8.6221,-5.5564,43.0609,9.0435,-9.2522
2645,-0.8814,-8.5071,-5.5564,45.7739,10.7826,-9.3913
2650,-0.958,-8.2772,-5.6331,48.0696,12.5217,-9.4609
2655,-0.8814,-8.1239,-5.5181,49.8783,14.2609,-9.5304
2660,-0.958,-7.779,-5.4032,51.6174,16.0,-9.4609
2665,-0.958,-7.4341,-5.4415,53.2174,17.2522,-9.4609
2670,-0.8814,-7.2425,-5.2499,54.4696,18.2957,-9.3913
2675,-0.7281,-7.0509,-5.02,55.513,19.2696,-9.3913
2680,-0.9197,-6.7827,-4.79,56.2783,20.313,-9.0435
2685,-0.7664,-6.7061,-4.5984,56.8348,20.9391,-8.5565
2690,-0.6898,-6.5911,-4.4835,57.0435,20.6609,-8.2783
2695,-0.7281,-6.4761,-4.5601,57.3913,19.8957,-8.0696
2700,-0.6514,-6.2845,-4.5601,58.2261,18.4348,-8.0696
2705,-0.7281,-6.1313,-4.3302,59.6174,16.6261,-8.2783
2710,-0.6514,-5.863,-4.4452,61.3565,14.9565,-8.6261
2715,-0.6514,-5.6714,-4.5218,63.1652,13.7043,-8.6261
2720,-0.9197,-5.3648,-4.5218,64.5565,12.9391,-8.4174
2725,-0.7664,-5.2116,-4.5984,64.9043,12.2435,-8.0
2730,-0.8047,-5.0966,-4.5601,64.9043,11.8261,-7.513
2735,-0.7281,-4.9433,-4.5984,65.0435,11.8261,-6.9565
2740,-0.8047,-5.0583,-4.4452,65.6696,12.1739,-6.9565
2745,-0.843,-5.0583,-4.4068,66.6435,12.5913,-7.0957
2750,-0.9197,-5.0966,-4.3302,67.5478,13.0087,-7.2348
2755,-0.6514,-5.02,-4.2919,68.6609,13.5652,-7.0957
2760,-0.7281,-4.9433,-4.2536,69.3565,13.913,-6.887
2765,-0.5748,-4.8667,-4.1769,69.0087,14.2609,-7.3043
2770,-0.6131,-4.9433,-3.9853,68.2435,14.5391,-7.7913
2775,-0.843,-4.9433,-3.7554,67.2,14.3304,-8.1391
2780,-0.7664,-4.79,-3.6021,65.8783,13.7739,-8.4174
2785,-0.6898,-4.8284,-3.5255,64.9739,13.287,-8.7652
2790,-0.6514,-4.79,-3.3722,64.4174,13.0783,-9.3217
2795,-0.7281,-4.6751,-3.2955,64.3478,13.0087,-9.8783
2800,-0.6131,-4.6751,-3.2572,64.3478,12.8,-10.713
2805,-0.7281,-4.5984,-3.1423,64.487,12.8696,-11.1304
2810,-0.8047,-4.5218,-2.9123,64.3478,12.9391,-11.4087
2815,-0.7281,-4.2919,-3.1423,64.4174,13.0087,-11.5478
2820,-0.8814,-4.062,-3.1039,63.5826,13.287,-11.2696
2825,-0.9197,-3.8704,-3.2189,62.6783,13.0087,-10.9913
2830,-0.958,-3.9087,-3.2572,60.8,12.7304,-10.5043
2835,-1.073,-3.832,-3.4105,58.4348,12.1739,-10.087
2840,-0.843,-3.8704,-3.3339,56.0696,11.7565,-9.5304
2845,-0.8047,-3.947,-3.4105,53.913,11.2,-8.9043
2850,-0.9197,-4.1003,-3.7554,51.8957,11.0609,-8.3478
2855,-0.8814,-4.1386,-3.8704,50.1565,11.3391,-7.4435
2860,-1.073,-4.2919,-3.7171,48.7652,11.8261,-6.5391
2865,-0.958,-4.4452,-3.947,47.513,12.1739,-5.4957
2870,-1.073,-4.5601,-4.1386,46.4696,12.1739,-4.4522
2875,-1.073,-4.6368,-4.1769,45.0783,11.7565,-3.4087
2880,-1.2263,-4.79,-4.2919,43.5478,10.9217,-2.7826
2885,-0.9963,-5.0966,-4.2152,41.8783,10.0174,-2.1565
2890,-1.1113,-5.2882,-4.3302,40.3478,9.3913,-1.6696
2895,-0.9963,-5.5564,-4.3302,39.3043,8.9043,-1.5304
2900,-0.8814,-5.748,-4.2152,38.1217,9.113,-1.113
2905,-0.8814,-5.9396,-4.1386,36.3826,9.7391,-0.2783
2910,-0.7281,-6.1696,-4.1769,34.9217,10.713,0.3478
2915,-0.6898,-6.3229,-4.1003,33.8087,12.1739,0.9739
2920,-0.5365,-6.6294,-3.8704,32.9043,13.5652,1.1826
2925,-0.4215,-6.7827,-3.8704,32.3478,14.9565,1.0435
2930,-0.3832,-7.0126,-3.947,31.7913,15.9304,0.9043
2935,-0.3449,-7.1276,-3.947,31.3043,16.487,0.5565
2940,-0.4215,-7.1276,-3.8704,30.9565,16.7652,0.4174
2945,-0.2682,-7.4341,-3.832,30.8174,16.487,0.0
2950,-0.2299,-7.5491,-4.062,30.6087,16.0696,-0.5565
2955,-0.1533,-7.6257,-3.947,29.7739,15.7217,-0.9043
2960,-0.1916,-7.8557,-3.947,28.8696,14.9565,-1.113
2965,-0.2682,-7.9706,-3.9853,27.8261,14.3304,-1.0435
2970,-0.1533,-8.1622,-3.832,27.0609,13.287,-1.1826
2975,-0.2682,-8.3921,-3.7937,26.7826,12.3826,-1.1826
2980,-0.3449,-8.6221,-3.7937,26.5739,11.4087,-1.1826
2985,-0.4982,-8.6604,-3.832,26.5739,10.5739,-1.3217
2990,-0.6131,-8.967,-3.947,26.713,9.8783,-1.4609
2995,-0.7281,-9.0436,-3.947,26.9913,9.113,-1.6696
