timestamp,accX,accY,accZ,gyroX,gyroY,gyroZ
0,-1.2646,-5.6714,-8.852,-11.4783,1.113,-4.5913
5,-1.2646,-5.6331,-8.967,-11.6174,1.1826,-4.1739
10,-1.2263,-5.5948,-8.967,-12.2435,1.1826,-3.7565
15,-1.1496,-5.6331,-9.0053,-12.8696,1.5304,-3.6174
20,-1.3412,-5.5948,-8.9286,-13.0783,2.2261,-3.5478
25,-1.2263,-5.5181,-9.0819,-13.0783,2.5739,-3.3391
30,-1.073,-5.7097,-9.0819,-12.313,3.2,-3.2696
35,-1.1113,-5.5564,-9.1202,-11.0609,3.5478,-3.2696
40,-1.1496,-5.4032,-9.1586,-9.4609,3.7565,-3.4087
45,-1.2646,-5.4798,-9.1202,-8.0,3.8957,-3.3391
50,-1.2646,-5.3265,-9.1969,-6.887,3.8261,-3.2696
55,-1.1879,-5.4798,-9.0436,-5.8435,3.9652,-3.0609
60,-1.3795,-5.5564,-9.0819,-4.8,4.0348,-2.8522
65,-1.2646,-5.5181,-9.0053,-4.0348,3.8261,-2.713
70,-1.3412,-5.4798,-8.9286,-3.2,3.5478,-2.5739
75,-1.3029,-5.4798,-8.8903,-2.2261,3.2696,-2.4348
80,-1.4179,-5.4415,-8.852,-1.3913,3.1304,-2.1565
85,-1.4179,-5.4032,-8.8903,-0.3478,2.2957,-1.8783
90,-1.5328,-5.2499,-8.6987,0.7652,1.7391,-1.3217
95,-1.4945,-5.4798,-8.6604,2.1565,1.2522,-0.9043
100,-1.4945,-5.5948,-8.5454,3.4783,0.7652,-0.5565
105,-1.6095,-5.4415,-8.6987,4.8,0.487,0.0696
110,-1.4945,-5.5948,-8.737,5.913,0.0,0.487
115,-1.5711,-5.5564,-8.6987,6.7478,-0.6261,0.9043
120,-1.7244,-5.5181,-8.8137,7.3739,-1.0435,1.2522
125,-1.6478,-5.5564,-8.8903,7.7217,-1.3217,1.6
130,-1.7627,-5.5181,-8.8137,7.8609,-1.4609,2.087
135,-1.6095,-5.7097,-8.8903,7.7217,-1.8087,2.713
140,-1.6861,-5.5948,-8.967,7.0957,-2.2957,3.2696
145,-1.4945,-5.5564,-8.852,6.5391,-2.5739,3.687
150,-1.4945,-5.8247,-8.967,6.3304,-2.9217,4.1739
155,-1.4179,-5.863,-9.0053,6.5391,-3.0609,4.5913
160,-1.3412,-5.9396,-9.0819,6.9565,-2.6435,4.8696
165,-1.3412,-5.863,-8.967,7.513,-2.2261,4.7304
170,-1.3029,-5.978,-9.0053,8.2087,-1.4609,4.5217
175,-1.2646,-6.0546,-8.9286,8.8348,-0.7652,4.1043
180,-1.1496,-6.2079,-9.0053,9.7391,-0.2783,3.4783
185,-1.1113,-6.2462,-9.0053,10.6435,0.1391,2.7826
190,-1.2646,-6.2079,-8.967,11.4087,0.487,1.9478
195,-1.3412,-6.2462,-8.8903,12.4522,0.7652,1.3913
200,-1.3029,-6.4378,-9.0819,13.6348,0.7652,1.0435
205,-1.2263,-6.3229,-8.9286,15.1652,1.113,0.6957
210,-1.3029,-6.5145,-9.4268,16.8348,1.4609,0.2087
215,-1.4562,-6.5528,-9.3118,18.4348,1.6696,-0.2087
220,-1.5328,-6.3612,-9.3118,19.9652,2.0174,-0.6957
225,-1.4945,-6.3995,-9.4268,21.0783,1.8783,-0.9739
230,-1.4179,-6.3995,-9.4268,21.8435,1.7391,-1.3217
235,-1.3029,-6.4761,-9.3885,22.6783,1.8783,-1.7391
240,-1.4945,-6.5145,-9.4268,23.2348,2.087,-1.7391
245,-1.4562,-6.4761,-9.2735,23.5826,2.2261,-2.2261
250,-1.3412,-6.3995,-9.3118,23.8609,2.2957,-2.5739
255,-1.4179,-6.4378,-9.2352,24.1391,2.2261,-2.8522
260,-1.4945,-6.4761,-9.2735,24.2783,2.1565,-3.3391
265,-1.3795,-6.6677,-9.3502,24.487,2.1565,-3.7565
270,-1.4562,-6.6294,-9.1969,24.6261,2.087,-4.2435
275,-1.5711,-6.7444,-9.1586,24.9043,2.1565,-4.4522
280,-1.5711,-6.6677,-9.1586,25.1826,2.0174,-4.6609
285,-1.4945,-6.8593,-9.1969,25.6696,1.6,-5.0087
290,-1.4179,-7.0509,-9.1586,26.2261,1.1826,-5.0087
295,-1.4945,-7.1276,-9.1586,26.713,0.7652,-5.0087
300,-1.4562,-7.1659,-9.1969,27.2,0.4174,-5.0783
305,-1.4945,-7.2425,-9.1969,27.5478,0.1391,-5.0783
310,-1.5328,-7.3192,-9.3118,27.5478,-0.0696,-5.2174
315,-1.2263,-7.1659,-9.2735,27.5478,-0.2087,-5.0087
320,-1.4562,-7.3192,-9.1586,27.7565,-0.0696,-4.9391
325,-1.4562,-7.4341,-9.2352,28.0348,0.2783,-4.8
330,-1.5328,-7.4725,-9.3118,28.5913,0.487,-4.6609
335,-1.4562,-7.5108,-9.3502,29.287,0.7652,-4.4522
340,-1.4945,-7.3575,-9.3118,30.1217,0.8348,-4.2435
345,-1.4945,-7.5108,-9.3502,30.9565,0.487,-4.4522
350,-1.4562,-7.5108,-9.4268,31.8609,0.4174,-4.6609
355,-1.4562,-7.5491,-9.2735,32.9043,0.6261,-4.6609
360,-1.4945,-7.4725,-9.3885,34.087,0.7652,-4.8696
365,-1.4562,-7.3958,-9.2735,35.1304,0.9043,-4.9391
370,-1.3795,-7.3958,-9.2352,35.8957,0.9739,-5.1478
375,-1.5328,-7.2809,-9.3118,36.8,0.9739,-5.2174
380,-1.3412,-7.3575,-9.0819,37.8435,0.9043,-5.4261
385,-1.4179,-7.4341,-9.0053,38.7478,0.9043,-5.4957
390,-1.2646,-7.3575,-8.852,39.7217,0.7652,-6.1217
395,-1.2646,-7.3958,-8.8903,40.6957,0.6261,-6.5391
400,-1.2646,-7.5108,-8.737,41.4609,0.7652,-7.0261
405,-1.3029,-7.4725,-8.6987,41.8783,0.7652,-7.2348
410,-1.2263,-7.4725,-8.6604,42.1565,0.6957,-7.4435
415,-1.1113,-7.2809,-8.6987,42.4348,0.6957,-7.7217
420,-1.1496,-7.3575,-8.5838,42.5739,0.8348,-7.9304
425,-0.958,-7.2809,-8.3538,42.5739,1.0435,-8.0
430,-0.8814,-7.3575,-8.5454,42.4348,1.4609,-8.0696
435,-1.073,-7.3192,-8.2389,42.2261,1.8783,-7.9304
440,-0.958,-7.3575,-8.1622,42.0174,2.0174,-7.5826
445,-0.9963,-7.3575,-8.2389,41.7391,2.0174,-7.4435
450,-1.0346,-7.2425,-8.2772,41.2522,2.0174,-7.513
455,-0.9197,-7.2425,-8.0856,40.5565,2.087,-7.3043
460,-0.8814,-7.2809,-7.894,40.0,2.0174,-7.3043
465,-0.958,-7.2425,-7.8173,39.3739,2.0174,-7.2348
470,-0.8047,-7.3575,-7.6257,38.8174,2.0174,-7.3043
475,-1.0346,-7.3192,-7.5874,38.1913,2.0174,-7.1652
480,-0.958,-7.3575,-7.4341,37.913,1.8087,-7.0957
485,-0.843,-7.3958,-7.3575,37.7043,1.7391,-6.9565
490,-0.9197,-7.4725,-7.3192,37.8435,1.8087,-6.887
495,-0.8047,-7.4725,-7.1659,38.4,1.9478,-6.887
500,-0.7664,-7.6257,-7.1276,38.9565,2.1565,-6.7478
505,-0.7281,-7.5874,-7.1276,39.4435,2.1565,-6.7478
510,-0.8047,-7.779,-7.0893,40.2087,2.4348,-6.7478
515,-0.6898,-7.779,-7.1659,41.1826,2.713,-6.6783
520,-0.6898,-7.8173,-7.0126,42.0174,2.9217,-6.6783
525,-0.843,-7.779,-6.936,42.4348,3.1304,-6.7478
530,-0.843,-7.779,-7.1659,42.713,3.2696,-7.0261
535,-0.6131,-7.9323,-7.0893,42.9217,3.4783,-7.3043
540,-0.8814,-7.7407,-7.2425,43.2,3.8957,-7.4435
545,-0.958,-7.6641,-6.9743,43.5478,4.2435,-7.513
550,-0.8814,-7.7407,-7.1659,43.9652,4.9391,-7.6522
555,-0.843,-7.7024,-7.1659,44.4522,5.7739,-7.8609
560,-0.7281,-7.5874,-7.0893,44.8,6.5391,-7.9304
565,-0.7664,-7.5108,-7.0509,45.0087,7.513,-7.8609
570,-0.8814,-7.6257,-7.0509,45.0087,8.4174,-7.7913
575,-0.7281,-7.5491,-7.0893,45.1478,8.9043,-7.6522
580,-0.7281,-7.4725,-7.0126,45.0783,9.4609,-7.8609
585,-0.9197,-7.5874,-6.936,44.9391,9.8087,-7.7913
590,-0.843,-7.6257,-7.0509,44.8696,9.9478,-7.5826
595,-0.843,-7.6641,-6.7827,44.9391,10.1565,-7.4435
600,-0.6898,-7.779,-6.8977,45.1478,10.1565,-7.3043
605,-0.6898,-7.9323,-6.936,45.287,9.8783,-7.1652
610,-0.843,-7.894,-6.8593,45.6348,9.8087,-7.0261
615,-0.9197,-7.779,-6.7444,45.9826,9.4609,-6.887
620,-0.8047,-7.779,-6.7444,46.4696,9.0435,-6.8174
625,-0.9963,-7.779,-6.7061,46.887,8.5565,-6.8174
630,-0.9963,-7.9706,-6.7444,47.513,8.1391,-6.887
635,-0.843,-7.8173,-6.7827,48.2783,7.5826,-6.8174
640,-0.8047,-8.0089,-6.7444,49.113,7.3739,-6.7478
645,-0.8814,-7.9323,-6.7444,49.7391,7.0957,-6.5391
650,-0.843,-7.9706,-6.6677,50.2261,6.887,-6.4
655,-0.8047,-8.0473,-6.5911,50.5043,6.887,-6.4696
660,-0.6898,-8.0473,-6.6294,50.713,6.8174,-6.4
665,-0.6514,-8.1239,-6.6294,50.5043,6.6783,-6.3304
670,-0.8047,-8.1239,-6.7061,50.1565,6.5391,-6.4696
675,-0.8047,-8.1239,-6.4761,50.087,6.6783,-6.6783
680,-0.7281,-8.0856,-6.4761,49.8087,6.6783,-7.0957
685,-0.8814,-8.1239,-6.3995,49.4609,6.4696,-7.3043
690,-0.8814,-8.1239,-6.3995,49.3217,6.4696,-7.3043
695,-0.8047,-8.2389,-6.3995,49.3217,6.3304,-7.1652
700,-0.843,-8.2005,-6.3229,49.2522,6.1913,-6.9565
705,-0.7664,-8.2772,-6.2079,49.1826,6.1217,-6.887
710,-0.6514,-8.2389,-6.3995,49.1826,6.0522,-6.8174
715,-0.7281,-8.2772,-6.1696,49.1826,5.913,-6.7478
720,-0.6898,-8.2005,-6.3229,49.0435,5.8435,-6.887
725,-0.8047,-8.2005,-6.1696,48.6261,5.6348,-6.887
730,-0.6898,-8.2005,-6.0929,48.0696,5.4261,-7.0957
735,-0.8047,-8.2005,-6.1696,47.513,5.2174,-7.3043
740,-0.7664,-8.3155,-6.0546,46.7478,5.1478,-7.5826
745,-0.6898,-8.3921,-5.9396,46.1217,5.0087,-7.7913
750,-0.7281,-8.3921,-5.863,45.4261,4.5913,-8.0696
755,-0.6898,-8.3921,-5.9013,44.7304,4.4522,-8.4174
760,-0.8047,-8.3538,-5.863,44.1043,4.313,-8.7652
765,-0.8047,-8.3921,-5.748,43.4087,3.9652,-8.9739
770,-0.7281,-8.5454,-5.748,42.9217,3.687,-9.1826
775,-0.7281,-8.5454,-5.7864,42.4348,3.6174,-9.2522
780,-0.843,-8.5071,-5.5948,42.0174,3.687,-9.1826
785,-0.958,-8.5454,-5.5948,41.6696,3.6174,-9.0435
790,-0.7664,-8.4688,-5.5181,41.3217,3.687,-8.8348
795,-0.8047,-8.4305,-5.5181,41.0435,3.7565,-8.487
800,-0.9197,-8.5838,-5.6331,40.487,3.7565,-8.0696
805,-0.8814,-8.5838,-5.5181,40.0696,3.9652,-7.7913
810,-0.8047,-8.5071,-5.4798,39.4435,4.1739,-7.6522
815,-0.6514,-8.6221,-5.4798,38.9565,4.3826,-7.3043
820,-0.6514,-8.5838,-5.5181,38.2609,4.4522,-6.8174
825,-0.5748,-8.6221,-5.3648,37.4261,4.5217,-6.3304
830,-0.6131,-8.6604,-5.3265,36.2435,4.3826,-5.7043
835,-0.6131,-8.737,-5.3265,35.2,4.1739,-5.1478
840,-0.5365,-8.6987,-5.3648,33.9478,4.1043,-4.6609
845,-0.5365,-8.737,-5.3265,32.9739,3.8957,-4.2435
850,-0.4982,-8.737,-5.3648,32.0,3.8261,-4.0348
855,-0.4215,-8.7754,-5.3265,31.2348,3.687,-3.687
860,-0.4982,-8.852,-5.4032,30.6783,3.687,-3.6174
865,-0.3066,-8.8903,-5.2882,30.0522,3.6174,-3.687
870,-0.1916,-9.0436,-5.2116,29.5652,3.687,-3.8261
875,-0.2682,-9.0819,-5.2499,29.287,3.8957,-4.1043
880,-0.3449,-9.1969,-5.2116,29.287,3.9652,-4.4522
885,-0.1533,-9.2735,-5.2116,29.2174,4.313,-4.9391
890,-0.1916,-9.1969,-5.0583,29.4261,4.5913,-5.1478
895,-0.2682,-9.2735,-5.2116,29.913,4.4522,-5.4957
900,-0.4598,-9.3502,-4.8667,30.5391,4.4522,-5.8435
905,-0.3832,-9.3885,-4.9433,31.3739,4.1739,-6.2609
910,-0.3832,-9.3885,-4.8667,32.0696,3.8957,-6.6783
915,-0.3066,-9.5034,-4.9816,32.6957,3.6174,-7.0261
920,-0.3832,-9.3502,-5.0583,33.3217,3.4783,-7.4435
925,-0.4215,-9.4268,-4.7517,33.8783,3.4087,-7.7217
930,-0.4215,-9.4651,-4.8667,34.2261,3.4087,-8.2087
935,-0.4598,-9.5418,-4.79,34.5739,3.4783,-8.6261
940,-0.4598,-9.4651,-4.79,34.8522,3.4783,-8.9043
945,-0.5748,-9.3885,-4.79,35.0609,3.7565,-9.113
950,-0.5748,-9.4651,-4.8284,35.0609,3.8261,-9.2522
955,-0.6898,-9.3502,-4.7134,34.9913,4.0348,-9.2522
960,-0.6131,-9.1969,-4.6751,34.5043,4.3826,-9.2522
965,-0.6898,-9.2735,-4.6751,34.087,4.8696,-9.2522
970,-0.5365,-9.1969,-4.5218,33.9478,5.3565,-9.3217
975,-0.6131,-9.3118,-4.6751,33.8087,5.7043,-9.3913
980,-0.6131,-9.3502,-4.7517,33.8087,6.1913,-9.6696
985,-0.5748,-9.3502,-4.5218,33.7391,6.4,-9.6696
990,-0.6131,-9.3118,-4.4452,33.8087,6.6087,-9.6696
995,-0.6131,-9.4268,-4.4068,34.0174,6.4696,-9.6
1000,-0.6898,-9.4268,-4.2536,34.3652,6.0522,-9.3217
1005,-0.6131,-9.4651,-4.2919,34.9217,5.3565,-9.0435
1010,-0.6131,-9.5418,-4.2536,35.4783,4.4522,-8.7652
1015,-0.6131,-9.5801,-4.1003,36.1739,3.6174,-8.487
1020,-0.6514,-9.5034,-4.1003,36.9391,2.9913,-8.2783
1025,-0.6514,-9.5034,-4.0236,37.7043,2.4348,-7.9304
1030,-0.6898,-9.4268,-4.0236,38.1913,1.9478,-7.6522
1035,-0.6131,-9.5801,-3.9853,38.5391,1.6,-7.513
1040,-0.7281,-9.5801,-4.0236,38.7478,1.5304,-7.513
1045,-0.6514,-9.4651,-3.832,38.887,1.5304,-7.2348
1050,-0.6514,-9.4651,-3.9853,38.6087,1.7391,-7.3043
1055,-0.6131,-9.4651,-3.8704,38.4,1.8087,-7.3043
1060,-0.7281,-9.5034,-3.6021,37.913,1.9478,-7.4435
1065,-0.6898,-9.5034,-3.7171,37.287,2.2957,-7.6522
1070,-0.8814,-9.3885,-3.5255,36.6609,2.5739,-7.8609
1075,-0.6514,-9.3885,-3.7554,35.6174,2.8522,-8.3478
1080,-0.7281,-9.5418,-3.5638,34.4348,3.2696,-8.6957
1085,-0.6514,-9.5801,-3.7171,33.0435,3.7565,-9.0435
1090,-0.6514,-9.5801,-3.6404,31.6522,4.0348,-9.3217
1095,-0.6131,-9.7334,-3.5638,30.2609,4.313,-9.6
1100,-0.5365,-9.5801,-3.5255,29.0783,4.5217,-9.7391
1105,-0.6131,-9.6184,-3.6787,28.1739,4.8696,-9.6696
1110,-0.4982,-9.6567,-3.4871,27.2,5.1478,-9.4609
1115,-0.4982,-9.7334,-3.6021,26.4348,5.5652,-9.3217
1120,-0.5748,-9.6567,-3.5638,25.9478,5.8435,-9.1826
1125,-0.4982,-9.6567,-3.5638,25.7391,6.2609,-8.9739
1130,-0.4215,-9.6567,-3.4488,25.6,6.4696,-8.8348
1135,-0.3832,-9.6567,-3.6404,25.6,6.7478,-8.6261
1140,-0.3832,-9.695,-3.5255,25.5304,6.887,-8.4174
1145,-0.2299,-9.6184,-3.4105,25.5304,6.9565,-8.3478
1150,-0.2299,-9.7717,-3.6021,25.3217,6.9565,-8.487
1155,-0.1533,-9.7334,-3.4871,25.2522,7.0261,-8.6957
1160,-0.1916,-9.7334,-3.3722,25.0435,6.887,-8.8348
1165,-0.1916,-9.5801,-3.3339,24.6957,6.8174,-9.0435
1170,-0.1533,-9.5034,-3.5255,24.1391,6.4696,-9.1826
1175,0.0,-9.5801,-3.5255,23.7913,6.3304,-9.1826
1180,0.0,-9.6567,-3.4488,23.1652,6.3304,-9.3913
1185,0.115,-9.4651,-3.4488,22.3304,6.4696,-9.6
1190,0.115,-9.695,-3.3339,21.4957,6.4,-9.9478
1195,0.2299,-9.5801,-3.4488,20.4522,6.3304,-10.2957
1200,0.1916,-9.5801,-3.4105,19.4087,6.2609,-10.713
1205,0.1533,-9.5801,-3.3339,18.3652,6.2609,-11.4087
1210,0.3066,-9.7334,-3.3339,17.0435,6.2609,-11.7565
1215,0.3066,-9.5801,-3.1806,15.9304,6.1913,-12.2435
1220,0.3832,-9.6567,-3.1806,14.887,6.1913,-12.4522
1225,0.3066,-9.6184,-3.2572,13.7739,6.1913,-12.5913
1230,0.3449,-9.7334,-3.1806,12.8696,6.1913,-12.4522
1235,0.4215,-9.6184,-3.1423,12.4522,6.1913,-12.1739
1240,0.3449,-9.7334,-3.2189,11.9652,6.2609,-11.9652
1245,0.3449,-9.7334,-3.1806,11.8957,6.0522,-11.6174
1250,0.3832,-9.81,-3.4488,11.8261,6.0522,-11.2
1255,0.3066,-9.695,-3.2955,11.7565,5.9826,-10.7826
1260,0.4598,-9.7717,-3.2955,11.7565,5.6348,-10.2957
1265,0.4598,-9.695,-3.3339,11.8261,5.287,-9.8783
1270,0.4215,-9.7334,-3.2572,11.6174,4.8696,-9.6696
1275,0.4598,-9.695,-3.2189,11.2,4.4522,-9.5304
1280,0.5365,-9.7334,-3.2955,10.4348,4.1043,-9.3217
1285,0.4215,-9.7334,-3.2955,9.6696,3.7565,-9.1826
1290,0.4598,-9.7334,-3.2572,8.7652,3.5478,-8.9043
1295,0.4598,-9.7717,-3.0656,8.0,3.3391,-8.8348
1300,0.3066,-9.5801,-3.2572,7.2348,3.0609,-8.6261
1305,0.3832,-9.6567,-3.1806,6.3304,2.8522,-8.4174
1310,0.4215,-9.7334,-3.2189,5.5652,2.5043,-8.2783
1315,0.3449,-9.5801,-3.2189,4.8696,1.8783,-8.0
1320,0.3832,-9.5801,-3.1806,4.313,1.3913,-7.6522
1325,0.2682,-9.5418,-3.1806,3.9652,0.9739,-7.3739
1330,0.2682,-9.6567,-3.1423,3.4783,0.4174,-6.7478
1335,0.1533,-9.5418,-2.989,3.3391,-0.1391,-6.1913
1340,0.2682,-9.5801,-3.1039,2.7826,-0.7652,-5.7739
1345,0.2299,-9.6567,-3.0656,2.2957,-1.2522,-5.3565
1350,0.1916,-9.5418,-3.1423,1.6696,-1.8087,-5.0783
1355,0.0766,-9.5801,-3.0656,0.9739,-2.1565,-4.6609
1360,0.1916,-9.695,-3.0273,0.1391,-2.3652,-4.6609
1365,0.1916,-9.6184,-2.989,-0.8348,-2.5739,-4.5913
1370,0.1916,-9.7334,-3.2572,-1.8783,-2.5043,-4.5217
1375,0.2299,-9.6184,-3.0656,-2.7826,-2.4348,-4.5913
1380,0.1533,-9.7334,-3.0656,-3.8261,-2.3652,-4.6609
1385,0.2299,-9.7717,-3.0656,-4.6609,-2.087,-4.7304
1390,0.0766,-9.6567,-3.1423,-5.4957,-1.8783,-4.5913
1395,0.1916,-9.81,-3.1039,-6.1913,-1.8087,-4.5913
1400,0.1533,-9.695,-3.1039,-6.8174,-1.8087,-4.3826
1405,0.115,-9.5418,-2.874,-7.3739,-1.8087,-3.9652
1410,0.1916,-9.7717,-3.0656,-7.8609,-1.8087,-3.7565
1415,0.1916,-9.7334,-3.1423,-8.2783,-1.8783,-3.2696
1420,0.2299,-9.695,-3.3722,-8.5565,-1.8783,-3.1304
1425,0.2682,-9.695,-3.2189,-9.113,-1.8783,-2.7826
1430,0.2682,-9.6567,-3.1039,-9.6,-1.8087,-2.6435
1435,0.2682,-9.695,-3.1806,-9.9478,-1.7391,-2.4348
1440,0.1916,-9.6567,-3.1806,-10.3652,-1.7391,-2.3652
1445,0.2299,-9.695,-3.1039,-10.713,-1.6696,-2.2261
1450,0.3832,-9.6567,-3.1039,-11.1304,-1.7391,-2.1565
1455,0.3832,-9.6567,-2.989,-11.4087,-1.8087,-2.087
1460,0.3066,-9.7717,-2.9507,-11.7565,-1.7391,-2.1565
1465,0.4215,-9.7717,-3.0656,-11.687,-2.0174,-2.2261
1470,0.3449,-9.7717,-2.874,-11.4783,-2.1565,-2.2957
1475,0.3449,-9.81,-2.989,-11.0609,-2.3652,-2.1565
1480,0.3066,-9.81,-2.8357,-10.7826,-2.5043,-2.0174
1485,0.2299,-9.7334,-2.7591,-10.5043,-2.5739,-1.8087
1490,0.3066,-9.8483,-3.0273,-10.1565,-2.6435,-1.5304
1495,0.2682,-9.7717,-2.9507,-10.0174,-2.5739,-1.3217
1500,0.3449,-9.81,-2.9507,-9.6,-2.4348,-1.0435
1505,0.3066,-9.7334,-3.0273,-9.4609,-2.3652,-0.9739
1510,0.3066,-9.7717,-3.0656,-9.3913,-2.2957,-0.9043
1515,0.2682,-9.7717,-2.989,-9.3217,-2.087,-0.7652
1520,0.2682,-9.81,-2.874,-9.3217,-1.8783,-0.6957
1525,0.3449,-9.8483,-2.7591,-9.4609,-1.5304,-0.6957
1530,0.2299,-9.7717,-2.8357,-9.8087,-1.3217,-0.6957
1535,0.115,-9.7334,-3.0656,-10.1565,-1.0435,-0.6261
1540,0.2682,-9.8866,-3.0273,-10.2957,-0.8348,-0.6957
1545,0.115,-9.8483,-2.9123,-10.2957,-0.487,-0.6261
1550,0.1916,-9.8866,-2.989,-10.2957,-0.1391,-0.5565
1555,0.2299,-9.8866,-2.989,-10.087,0.0,-0.5565
1560,0.1916,-9.9633,-2.9123,-9.8087,0.1391,-0.4174
1565,0.115,-9.925,-3.0273,-9.3217,0.2783,-0.3478
1570,0.2682,-9.925,-2.9123,-8.9043,0.1391,-0.2087
1575,0.0766,-9.8866,-2.7974,-8.5565,0.0,-0.2087
1580,0.2299,-9.9633,-2.9507,-8.1391,-0.2087,-0.0696
1585,0.2682,-9.925,-2.874,-7.5826,-0.487,0.0696
1590,0.2299,-9.7717,-2.874,-7.0957,-0.7652,0.1391
1595,0.2682,-9.8483,-2.7974,-6.4696,-0.9043,0.2783
1600,0.1533,-9.7334,-2.989,-5.913,-1.0435,0.4174
1605,0.1533,-9.7717,-2.8357,-5.287,-0.9739,0.5565
1610,0.1916,-9.8483,-2.9507,-5.0087,-1.0435,0.6261
1615,0.1916,-9.7717,-2.7974,-4.9391,-0.9043,0.6957
1620,0.3832,-9.7334,-2.9123,-4.8,-0.7652,0.6261
1625,0.2299,-9.8483,-2.989,-4.7304,-0.6957,0.7652
1630,0.2682,-9.81,-2.8357,-4.8696,-0.487,0.7652
1635,0.1916,-9.7717,-2.7591,-5.0783,-0.3478,0.8348
1640,0.3066,-9.81,-2.7974,-5.3565,-0.3478,0.8348
1645,0.3449,-9.81,-2.7207,-5.6348,-0.2087,0.9739
1650,0.3066,-9.8483,-2.7207,-5.913,-0.0696,0.8348
1655,0.1533,-9.695,-2.7207,-6.4,0.1391,0.7652
1660,0.2299,-9.7717,-2.6824,-6.7478,0.0696,0.7652
1665,0.2682,-9.8866,-2.7207,-7.0261,0.2087,0.9043
1670,0.3449,-9.81,-2.7974,-7.1652,0.2087,0.9043
1675,0.3066,-9.81,-2.8357,-7.3739,0.3478,0.9739
1680,0.2682,-9.7717,-2.9123,-7.513,0.4174,0.9739
1685,0.1916,-9.7334,-2.7591,-7.6522,0.5565,1.0435
1690,0.2682,-9.8483,-2.6824,-7.7913,0.6957,1.1826
1695,0.3066,-9.7717,-2.7591,-7.9304,0.7652,1.1826
1700,0.2682,-9.81,-2.8357,-8.0,0.9043,1.2522
1705,0.2682,-9.81,-2.7591,-8.1391,0.9043,1.3217
1710,0.3066,-9.8483,-2.7974,-8.4174,1.113,1.3913
1715,0.1533,-9.81,-3.0273,-8.7652,1.3217,1.5304
1720,0.1533,-9.81,-3.0656,-8.9043,1.4609,1.6
1725,0.2299,-9.8866,-2.9123,-9.3913,1.5304,1.7391
1730,0.4215,-10.0016,-3.1423,-9.8783,1.6696,1.6696
1735,0.1533,-9.8866,-3.1039,-10.3652,1.7391,1.7391
1740,0.2299,-9.7717,-3.1423,-10.8522,1.9478,1.6
1745,0.1916,-9.7334,-3.1806,-11.2,2.087,1.6
1750,0.2299,-9.8483,-3.2955,-11.6174,2.3652,1.4609
1755,0.1916,-9.7334,-3.2572,-11.8957,2.3652,1.3913
1760,0.3066,-9.7717,-3.2955,-12.1739,2.5739,1.3217
1765,0.2682,-9.7717,-3.4105,-12.3826,2.6435,1.1826
1770,0.3066,-9.6567,-3.3722,-12.313,2.713,1.113
1775,0.2299,-9.7334,-3.4488,-12.2435,2.6435,0.9739
1780,0.2299,-9.7717,-3.4871,-11.8957,2.6435,0.9043
1785,0.1916,-9.8483,-3.4871,-11.1304,2.6435,0.8348
1790,0.1916,-9.7717,-3.4488,-10.2261,2.5739,0.8348
1795,0.1916,-9.7717,-3.5638,-9.3913,2.3652,0.6957
1800,0.2682,-9.81,-3.6787,-8.4174,2.2957,0.8348
1805,0.1533,-9.81,-3.6404,-7.3739,2.1565,1.0435
1810,0.2682,-9.81,-3.5638,-6.4,1.9478,1.113
1815,0.2299,-9.7334,-3.6021,-5.7739,1.8087,1.1826
1820,0.1916,-9.695,-3.6787,-5.5652,1.6,1.3913
1825,0.1916,-9.7717,-3.6404,-5.2174,1.6,1.6696
1830,0.2682,-9.7717,-3.4871,-5.0783,1.5304,1.6696
1835,0.1916,-9.6184,-3.5255,-4.8696,1.4609,1.7391
1840,0.1916,-9.5418,-3.9087,-4.7304,1.6,1.6696
1845,0.0766,-9.695,-3.7937,-4.5913,1.7391,1.6
1850,0.1533,-9.6184,-3.5255,-4.313,1.9478,1.4609
1855,0.1916,-9.7334,-3.6404,-4.1739,2.2957,1.6
1860,0.115,-9.6567,-3.6021,-4.1739,2.5739,1.3913
1865,0.0,-9.6567,-3.6787,-4.313,2.9913,1.3217
1870,0.0383,-9.6567,-3.6021,-4.3826,3.2696,1.2522
1875,0.115,-9.5418,-3.6021,-4.6609,3.4783,1.0435
1880,0.115,-9.7717,-3.3722,-5.0087,3.8957,1.0435
1885,0.2299,-9.6567,-3.6021,-5.3565,4.1043,0.9043
1890,0.0766,-9.6567,-3.5255,-5.913,4.313,0.8348
1895,0.115,-9.6184,-3.5638,-6.3304,4.4522,0.8348
1900,0.2299,-9.5034,-3.2189,-6.887,4.5217,0.7652
1905,0.115,-9.695,-3.3339,-7.4435,4.5913,0.6957
1910,0.1533,-9.5801,-3.5255,-7.9304,4.6609,0.5565
1915,0.2299,-9.5801,-3.3339,-8.5565,4.7304,0.487
1920,0.3066,-9.6184,-3.2572,-9.0435,4.7304,0.2087
1925,0.1533,-9.7717,-3.2572,-9.1826,4.5913,-0.0696
1930,0.0766,-9.7334,-3.3722,-9.3217,4.5913,-0.1391
1935,0.0383,-9.6567,-3.3339,-8.9739,4.4522,-0.2087
1940,0.1533,-9.7334,-3.4488,-8.2783,4.4522,-0.487
1945,0.0383,-9.8866,-3.2955,-7.3739,4.2435,-0.6957
1950,0.2299,-9.7717,-3.4488,-6.5391,4.2435,-0.7652
1955,0.115,-9.7334,-3.5255,-5.7043,4.2435,-0.7652
1960,0.115,-9.7334,-3.6021,-5.1478,3.9652,-0.7652
1965,0.115,-9.695,-3.5638,-4.9391,3.8957,-0.6957
1970,0.115,-9.695,-3.4105,-5.0783,3.6174,-0.6957
1975,0.0766,-9.6184,-3.5255,-5.4261,3.3391,-0.5565
1980,0.0383,-9.6567,-3.5638,-5.913,3.2,-0.5565
1985,0.115,-9.7717,-3.3339,-6.6783,2.9217,-0.3478
1990,0.1533,-9.695,-3.5255,-7.3043,2.5739,-0.0696
1995,0.115,-9.7717,-3.4105,-8.0,2.4348,0.0696
2000,0.2682,-9.7334,-3.3722,-8.3478,2.087,0.1391
2005,0.1916,-9.7334,-3.4871,-8.8348,1.9478,0.2087
2010,0.3066,-9.7334,-3.4105,-9.1826,1.7391,0.1391
2015,0.2682,-9.81,-3.4871,-9.4609,1.6696,0.1391
2020,0.115,-9.7334,-3.3339,-9.7391,1.6696,0.0696
2025,0.1533,-9.8483,-3.5255,-9.7391,1.5304,0.0696
2030,0.2682,-9.7717,-3.3722,-9.8087,1.5304,0.0
2035,0.115,-9.7334,-3.4105,-9.7391,1.5304,0.0696
2040,0.115,-9.6184,-3.5638,-9.6,1.4609,0.0696
2045,0.2299,-9.7717,-3.5638,-9.5304,1.3913,-0.0696
2050,0.2299,-9.7334,-3.5255,-9.5304,1.4609,0.0696
2055,0.1533,-9.5801,-3.4488,-9.6,1.3913,0.1391
2060,0.0,-9.6184,-3.6404,-9.7391,1.3217,0.2783
2065,0.115,-9.5801,-3.6404,-10.0174,1.2522,0.2783
2070,0.1533,-9.5034,-3.7171,-10.5739,1.3217,0.4174
2075,0.1916,-9.5034,-3.6787,-10.8522,1.2522,0.5565
2080,0.1916,-9.5034,-3.7171,-11.2696,1.3913,0.6261
2085,0.1916,-9.4268,-3.7171,-11.7565,1.4609,0.6957
2090,0.2682,-9.7334,-3.7937,-12.0348,1.3913,0.6261
2095,0.1533,-9.5418,-3.7937,-12.4522,1.4609,0.6261
2100,0.1533,-9.5418,-3.7554,-12.7304,1.4609,0.487
2105,0.2299,-9.695,-3.832,-13.0087,1.4609,0.4174
2110,0.2299,-9.5801,-3.9087,-13.0087,1.6,0.3478
2115,0.1916,-9.6184,-3.947,-13.0087,1.5304,0.1391
2120,0.1916,-9.6184,-3.7554,-13.0087,1.6696,-0.0696
2125,0.115,-9.5801,-4.0236,-12.9391,1.6696,-0.2783
2130,0.1533,-9.5801,-3.832,-12.7304,1.6,-0.4174
2135,0.115,-9.7334,-3.9087,-12.5913,1.5304,-0.4174
2140,0.1533,-9.6567,-3.8704,-12.2435,1.4609,-0.6261
2145,0.115,-9.7717,-3.9087,-11.8957,1.3217,-0.7652
2150,0.1533,-9.6567,-3.9853,-11.4087,1.2522,-0.8348
2155,0.1916,-9.7334,-3.9087,-10.7826,1.113,-0.8348
2160,0.0383,-9.7334,-4.062,-10.087,0.9739,-0.6957
2165,0.4215,-9.6567,-3.9087,-9.3913,0.9043,-0.5565
2170,0.2299,-9.6567,-3.947,-8.9043,0.7652,-0.4174
2175,0.0383,-9.5801,-4.0236,-8.3478,0.7652,-0.2087
2180,0.115,-9.6184,-3.9853,-7.8609,0.6261,0.0
2185,0.1533,-9.6184,-4.0236,-7.4435,0.487,0.2087
2190,0.115,-9.6567,-4.062,-7.1652,0.4174,0.3478
2195,0.1533,-9.6567,-3.947,-6.9565,0.3478,0.4174
2200,0.115,-9.5801,-4.0236,-6.9565,0.2783,0.5565
2205,0.1533,-9.695,-3.9087,-6.887,0.2087,0.4174
2210,0.0383,-9.5801,-3.9853,-6.8174,0.1391,0.3478
2215,0.0,-9.5801,-3.8704,-6.887,0.1391,0.2783
2220,0.0766,-9.7717,-3.9853,-6.887,0.0,0.2087
2225,0.1533,-9.7717,-3.8704,-6.7478,0.0,0.0696
2230,0.0766,-9.695,-3.832,-6.4696,0.0696,-0.1391
2235,0.115,-9.6184,-3.947,-6.1217,0.0696,-0.2783
2240,0.0766,-9.695,-3.7937,-5.7739,-0.0696,-0.2783
2245,0.1533,-9.7717,-3.9853,-5.1478,-0.0696,-0.3478
2250,0.115,-9.7717,-3.832,-4.5217,-0.0696,-0.4174
2255,-0.0766,-9.7334,-4.0236,-3.8957,0.0696,-0.4174
2260,0.0383,-9.6184,-3.6787,-3.1304,0.1391,-0.1391
2265,0.0,-9.6184,-3.6787,-2.6435,0.2087,0.0
2270,0.0383,-9.7717,-3.9853,-2.0174,0.3478,0.1391
2275,-0.1916,-9.695,-3.6021,-1.6696,0.3478,0.4174
2280,0.0766,-9.695,-3.7554,-1.2522,0.487,0.5565
2285,0.0,-9.6184,-3.6404,-0.9043,0.5565,0.6261
2290,0.0383,-9.695,-3.7171,-0.6261,0.7652,0.6957
2295,0.0,-9.6567,-3.7171,-0.5565,0.6957,0.7652
2300,0.0383,-9.6567,-3.832,-0.3478,0.7652,0.7652
2305,0.0766,-9.695,-3.7171,-0.2087,0.8348,0.7652
2310,0.0,-9.5418,-3.6787,-0.2087,0.9739,0.6957
2315,0.1533,-9.7334,-3.7171,-0.2087,0.9043,0.6957
2320,0.115,-9.6567,-3.7554,-0.1391,0.9043,0.487
2325,0.1533,-9.5801,-3.7937,-0.2087,0.9043,0.3478
2330,0.115,-9.6567,-3.7171,-0.2783,0.9043,0.2783
2335,0.0766,-9.6184,-3.6404,-0.3478,0.9739,0.1391
2340,0.0766,-9.6184,-3.6404,-0.5565,1.0435,0.0
2345,0.0383,-9.6567,-3.6404,-0.9043,1.0435,-0.0696
2350,0.0383,-9.5801,-3.6787,-1.1826,1.1826,-0.1391
2355,0.0,-9.6567,-3.7554,-1.3913,1.3217,-0.2783
2360,0.0383,-9.4651,-3.6404,-1.8783,1.3913,-0.2783
2365,0.1916,-9.6567,-3.7554,-2.2957,1.4609,-0.3478
2370,0.0383,-9.5418,-3.6787,-2.6435,1.5304,-0.2783
2375,0.1916,-9.6184,-3.7171,-2.9217,1.5304,-0.3478
2380,-0.0383,-9.4651,-3.6787,-3.1304,1.6,-0.2783
2385,0.115,-9.695,-3.6404,-3.3391,1.4609,-0.2087
2390,0.1533,-9.6184,-3.7554,-3.4783,1.6,-0.2087
2395,0.2299,-9.5801,-3.7554,-3.6174,1.5304,-0.1391
2400,0.1533,-9.6184,-3.7171,-3.6174,1.5304,-0.1391
2405,0.1916,-9.5801,-3.6404,-3.687,1.6,-0.2783
2410,0.0766,-9.6184,-3.7171,-3.687,1.6,-0.1391
2415,0.115,-9.6567,-3.6021,-3.7565,1.6,-0.0696
2420,0.0766,-9.6567,-3.7937,-3.8957,1.6,-0.1391
2425,0.0766,-9.5801,-3.947,-3.8261,1.5304,-0.1391
2430,0.1533,-9.695,-3.7937,-3.8261,1.6,0.0
2435,0.0383,-9.6567,-3.8704,-3.687,1.6696,0.0
2440,0.0,-9.6567,-3.7937,-3.5478,1.8087,0.0
2445,0.1533,-9.695,-3.7171,-3.4783,1.7391,0.0696
2450,0.2299,-9.7334,-3.5638,-3.3391,1.6696,0.0696
2455,0.0383,-9.5801,-3.832,-3.2,1.6696,0.1391
2460,0.0766,-9.695,-3.832,-3.1304,1.6,0.1391
2465,0.115,-9.7717,-3.7171,-2.9217,1.6696,0.0696
2470,0.115,-9.5801,-3.832,-2.7826,1.5304,0.0
2475,0.1533,-9.6184,-3.832,-2.6435,1.6696,-0.1391
2480,0.0766,-9.695,-3.7554,-2.5043,1.6,-0.1391
2485,0.0766,-9.6184,-3.7937,-2.713,1.5304,-0.2087
2490,0.0383,-9.695,-3.6404,-2.7826,1.6,-0.2783
2495,0.115,-9.695,-3.8704,-2.8522,1.5304,-0.2783
2500,0.0766,-9.5034,-3.8704,-2.7826,1.5304,-0.2783
2505,0.1533,-9.7334,-3.832,-2.9217,1.5304,-0.3478
2510,0.1916,-9.7334,-3.832,-2.9217,1.4609,-0.3478
2515,0.1533,-9.695,-3.7554,-2.9217,1.3913,-0.4174
2520,0.1533,-9.6567,-3.7171,-3.0609,1.3217,-0.2783
2525,0.115,-9.695,-3.7937,-3.1304,1.3913,-0.2783
2530,0.2299,-9.7334,-3.7171,-2.9913,1.4609,-0.2783
2535,0.1533,-9.6567,-3.6787,-2.9913,1.5304,-0.3478
2540,0.115,-9.5418,-3.7937,-2.9217,1.4609,-0.3478
2545,0.115,-9.695,-3.7171,-2.9913,1.4609,-0.3478
2550,0.2299,-9.6567,-3.5638,-2.7826,1.3913,-0.3478
2555,0.2299,-9.5801,-3.6404,-2.713,1.3913,-0.4174
2560,0.1533,-9.6184,-3.6021,-2.6435,1.3217,-0.2783
2565,0.115,-9.695,-3.6787,-2.5739,1.1826,-0.2087
2570,0.1533,-9.6567,-3.7554,-2.6435,1.113,-0.2783
2575,0.1916,-9.695,-3.6787,-2.6435,1.0435,-0.2087
2580,0.115,-9.6567,-3.6787,-2.713,0.9739,-0.2087
2585,0.1916,-9.695,-3.6021,-2.7826,0.9043,-0.2087
2590,0.1533,-9.7334,-3.7554,-2.9913,0.8348,-0.3478
2595,0.1533,-9.695,-3.6787,-2.9217,0.9043,-0.3478
2600,0.2299,-9.7334,-3.7171,-2.9217,0.8348,-0.3478
2605,0.115,-9.6567,-3.6021,-2.713,0.8348,-0.3478
2610,0.1533,-9.695,-3.7937,-2.713,0.7652,-0.2783
2615,0.1533,-9.5801,-3.7554,-2.5739,0.6957,-0.3478
2620,0.0766,-9.7334,-3.7937,-2.5043,0.6261,-0.3478
2625,0.115,-9.6567,-3.6787,-2.5739,0.5565,-0.2783
2630,0.1533,-9.6567,-3.6787,-2.5043,0.4174,-0.3478
2635,0.1533,-9.6567,-3.7171,-2.6435,0.4174,-0.3478
2640,0.0383,-9.695,-3.7171,-2.4348,0.4174,-0.4174
2645,0.115,-9.6184,-3.5638,-2.4348,0.487,-0.4174
2650,0.0766,-9.695,-3.7171,-2.4348,0.487,-0.487
2655,0.0383,-9.5801,-3.7937,-2.3652,0.487,-0.5565
2660,0.0766,-9.6567,-3.7171,-2.4348,0.487,-0.487
2665,0.115,-9.5801,-3.7937,-2.3652,0.487,-0.487
2670,0.0766,-9.5801,-3.7554,-2.3652,0.487,-0.487
2675,0.0383,-9.5801,-3.6404,-2.5043,0.4174,-0.487
2680,0.0,-9.695,-3.5638,-2.5739,0.4174,-0.5565
2685,0.0383,-9.695,-3.7171,-2.6435,0.487,-0.3478
2690,0.115,-9.7717,-3.7937,-2.7826,0.487,-0.4174
2695,0.0383,-9.6567,-3.7171,-2.8522,0.487,-0.1391
2700,0.0383,-9.7334,-3.5255,-2.8522,0.4174,-0.0696
2705,0.1916,-9.6567,-3.5638,-2.9913,0.3478,0.0
2710,0.1916,-9.5034,-3.6787,-2.9913,0.3478,-0.0696
2715,0.115,-9.695,-3.5255,-2.9913,0.2087,-0.0696
2720,0.0383,-9.6567,-3.832,-3.0609,0.2087,-0.0696
2725,0.0383,-9.5801,-3.7937,-3.2696,0.3478,-0.0696
2730,0.0383,-9.6567,-3.7937,-3.3391,0.4174,-0.0696
2735,0.1533,-9.5801,-3.7554,-3.5478,0.4174,-0.0696
2740,0.0383,-9.6184,-3.7554,-3.6174,0.487,-0.1391
2745,0.115,-9.6567,-3.7937,-3.8261,0.6261,-0.2783
2750,0.115,-9.7334,-3.6404,-3.8957,0.8348,-0.3478
2755,0.0766,-9.6567,-3.7937,-3.9652,0.9043,-0.487
2760,0.0766,-9.7334,-3.6404,-3.8957,1.0435,-0.5565
2765,0.115,-9.695,-3.7937,-4.0348,1.3217,-0.5565
2770,0.115,-9.6567,-3.7554,-3.7565,1.3217,-0.6261
2775,0.0,-9.6567,-3.6787,-3.4783,1.3913,-0.6261
2780,0.1533,-9.6184,-3.7554,-3.2696,1.3913,-0.5565
2785,0.115,-9.7334,-3.832,-3.1304,1.4609,-0.6261
2790,0.0,-9.695,-3.7554,-2.9913,1.5304,-0.6261
2795,0.0766,-9.695,-3.6787,-2.7826,1.6,-0.5565
2800,0.0383,-9.5801,-3.7554,-2.5739,1.5304,-0.5565
2805,0.0766,-9.6184,-3.5638,-2.5043,1.5304,-0.3478
2810,0.1916,-9.6567,-3.8704,-2.2957,1.3913,-0.487
2815,0.1916,-9.6567,-3.7554,-2.2261,1.3913,-0.4174
2820,0.115,-9.6567,-3.7554,-2.1565,1.3913,-0.3478
2825,0.1533,-9.7334,-3.7937,-2.3652,1.3217,-0.4174
2830,0.115,-9.695,-3.832,-2.4348,1.2522,-0.5565
2835,0.0383,-9.5034,-3.6787,-2.4348,1.2522,-0.6957
2840,0.115,-9.6184,-3.6404,-2.6435,1.0435,-0.6957
2845,0.0383,-9.695,-3.832,-2.713,1.0435,-0.7652
2850,0.0,-9.7717,-3.6404,-2.713,0.9739,-0.8348
2855,0.0766,-9.7334,-3.7554,-2.5739,1.0435,-0.9043
2860,0.0766,-9.695,-3.7937,-2.3652,0.9043,-0.9043
2865,0.0383,-9.6567,-3.7937,-2.1565,0.9739,-0.9043
2870,0.1533,-9.4268,-3.9087,-1.9478,1.0435,-0.9043
2875,0.115,-9.6567,-3.7554,-1.8783,1.113,-0.7652
2880,0.115,-9.5418,-3.6787,-2.0174,1.1826,-0.6957
2885,0.1533,-9.695,-3.7554,-1.9478,1.1826,-0.6957
2890,0.2299,-9.7717,-3.7554,-2.0174,1.3913,-0.6957
2895,0.0766,-9.695,-3.7554,-2.087,1.3217,-0.5565
2900,0.115,-9.6184,-3.6404,-1.9478,1.4609,-0.5565
2905,0.2682,-9.7334,-3.7171,-1.8783,1.5304,-0.487
2910,0.0,-9.6184,-3.6787,-1.8087,1.5304,-0.487
2915,0.2299,-9.7334,-3.6021,-1.8087,1.6,-0.6957
2920,0.1916,-9.7334,-3.7171,-1.8087,1.5304,-0.6261
2925,0.2682,-9.6567,-3.6021,-1.8087,1.5304,-0.6957
2930,0.115,-9.6567,-3.6404,-1.8087,1.5304,-0.6957
2935,0.1533,-9.695,-3.6404,-1.8783,1.5304,-0.6261
2940,0.115,-9.695,-3.5638,-1.8783,1.4609,-0.7652
2945,0.115,-9.5801,-3.6787,-1.9478,1.3913,-0.6957
2950,0.1533,-9.5801,-3.7171,-2.1565,1.4609,-0.7652
2955,-0.0383,-9.5418,-3.7554,-2.2957,1.4609,-0.7652
2960,0.115,-9.6567,-3.7171,-2.3652,1.3217,-0.6957
2965,0.1916,-9.6567,-3.7937,-2.5043,1.113,-0.6261
2970,0.115,-9.5801,-3.5638,-2.6435,1.1826,-0.6957
2975,0.115,-9.7334,-3.7554,-2.7826,1.0435,-0.6957
2980,0.0383,-9.7334,-3.7171,-2.8522,1.0435,-0.6261
2985,0.115,-9.6567,-3.7554,-2.9913,1.0435,-0.5565
2990,0.0766,-9.7334,-3.6787,-3.0609,1.113,-0.6957
2995,0.1916,-9.6184,-3.7171,-2.9217,1.1826,-0.6261
