timestamp,accX,accY,accZ,gyroX,gyroY,gyroZ
0,-1.2646,-9.7334,-1.1113,-3.4783,-12.9391,-6.1217
5,-1.2646,-9.9633,-1.073,-4.5913,-11.687,-6.1913
10,-1.4179,-10.1549,-1.073,-5.913,-9.9478,-6.2609
15,-1.6095,-10.4231,-0.958,-6.887,-7.7217,-6.0522
20,-1.5711,-10.8063,-0.9963,-7.6522,-5.4957,-5.6348
25,-1.7244,-11.0746,-0.958,-8.1391,-3.2696,-4.8696
30,-1.6861,-11.3811,-0.958,-8.3478,-1.4609,-3.4783
35,-1.6861,-11.5727,-0.7664,-8.3478,0.0,-1.8783
40,-1.4945,-11.726,-0.8814,-8.2087,1.0435,-0.0696
45,-1.3795,-11.9176,-0.843,-7.8609,1.9478,1.8087
50,-1.1879,-11.9559,-0.958,-7.513,2.9913,3.4087
55,-0.9963,-12.1092,-1.2646,-7.4435,3.9652,5.287
60,-0.958,-12.0709,-0.8814,-7.7217,4.6609,6.887
65,-0.6131,-12.0709,-0.8047,-8.0,4.7304,8.487
70,-0.5365,-11.9559,-0.5748,-7.3739,3.8261,9.8783
75,-0.3449,-11.9559,-0.2682,-5.5652,2.5043,11.2
80,-0.3449,-11.8793,0.0383,-2.6435,1.1826,12.2435
85,-0.2682,-11.8793,0.1533,0.487,0.4174,13.0783
90,-0.4215,-11.726,0.3066,2.713,0.2087,13.9826
95,-0.4982,-11.7643,0.3832,3.5478,0.0,14.7478
100,-0.6898,-11.9176,0.3832,2.713,-0.2783,15.5826
105,-0.8814,-11.9943,0.1916,0.0696,-0.1391,16.1391
110,-1.0346,-12.1859,-0.0383,-4.1739,0.9739,16.2783
115,-1.4562,-12.7223,-0.3449,-9.8087,2.8522,16.2087
120,-1.9927,-13.2205,-0.5365,-16.487,5.2174,15.5826
125,-2.6058,-13.642,-0.6514,-23.8609,7.3739,14.7478
130,-3.5255,-14.2935,-0.8047,-31.1652,8.8348,14.0522
135,-4.2919,-14.83,-0.9197,-38.2609,9.1826,13.3565
140,-4.8667,-15.4814,-0.8814,-43.687,7.6522,12.9391
145,-5.4415,-15.8646,-0.958,-47.0957,4.5217,12.7304
150,-5.7097,-16.4011,-0.958,-48.3478,0.3478,13.0087
155,-5.4798,-16.4777,-0.9963,-47.9304,-4.1739,13.4261
160,-5.2882,-16.4011,-1.3029,-45.5652,-9.0435,13.2174
165,-5.0583,-16.0945,-1.5711,-41.0435,-13.913,12.1739
170,-4.79,-15.4814,-1.7627,-34.5739,-19.2,10.8522
175,-4.4835,-14.7533,-2.3375,-27.0609,-24.5565,9.0435
180,-4.3302,-13.9103,-2.6441,-19.0609,-29.4957,6.6783
185,-3.832,-13.1822,-2.8357,-10.9217,-33.9478,4.1043
190,-3.7171,-12.2625,-2.7207,-2.4348,-37.7043,1.3217
195,-3.5638,-11.4578,-2.4142,6.1913,-40.5565,-1.6
200,-3.3339,-10.4998,-2.1459,13.3565,-42.7826,-4.9391
205,-2.989,-9.6184,-1.9543,21.913,-44.1739,-8.8348
210,-2.7591,-8.8137,-1.9543,29.9826,-45.4957,-12.5913
215,-2.6441,-7.7024,-1.6095,36.2435,-46.3304,-15.0957
220,-2.3759,-7.1659,-1.4945,40.0,-46.1217,-17.1826
225,-2.2226,-6.5528,-1.4179,40.5565,-45.0087,-19.2
230,-1.6861,-6.1313,-1.4562,37.8435,-43.3391,-21.3565
235,-1.4945,-6.0546,-1.7244,32.2783,-41.6696,-23.513
240,-1.1879,-6.0163,-1.4179,23.9304,-40.0696,-26.1565
245,-0.8047,-6.6294,-1.4562,13.913,-38.6783,-29.2174
250,-0.4215,-7.2809,-1.3795,2.8522,-37.7739,-33.5304
255,-0.4982,-7.779,-1.3029,-8.1391,-38.2609,-38.9565
260,-0.5748,-8.1622,-0.958,-16.8348,-40.0,-43.2
265,-0.8047,-8.7754,-0.8047,-22.1913,-43.0609,-45.8435
270,-1.0346,-9.1969,-0.7281,-24.3478,-47.3739,-47.5826
275,-0.958,-9.695,-0.8814,-24.2087,-52.5913,-48.9043
280,-1.2646,-10.0016,-0.958,-22.3304,-57.8783,-50.0174
285,-1.4562,-10.2315,-1.1113,-19.4087,-62.5391,-50.9217
290,-1.5711,-10.4614,-1.4562,-15.3043,-65.9478,-51.2696
295,-1.7627,-10.4231,-1.6095,-10.5739,-67.9652,-51.1304
300,-1.7244,-10.5764,-1.8011,-5.287,-69.2174,-50.3652
305,-1.9927,-10.4231,-1.8011,0.4174,-69.8435,-49.3913
310,-2.031,-10.3848,-1.8011,6.3304,-70.0522,-48.4174
315,-1.916,-9.925,-1.8394,12.4522,-69.9826,-47.2348
320,-2.031,-9.6184,-1.6861,18.4348,-70.0522,-45.9826
325,-1.8777,-9.3118,-1.6095,23.6522,-70.5391,-44.8
330,-1.7627,-8.8903,-1.4179,27.6174,-71.3043,-43.2696
335,-1.4945,-8.6987,-1.2646,30.2609,-72.6261,-41.9478
340,-1.3795,-8.3538,-1.3412,31.5826,-74.9913,-40.7652
345,-1.2263,-8.0473,-1.1496,31.6522,-78.1913,-39.513
350,-1.0346,-8.0473,-1.1496,30.6783,-81.9478,-38.3304
355,-0.9197,-7.9706,-1.073,29.1478,-85.913,-37.6348
360,-0.6514,-7.9323,-1.3412,27.4087,-89.4609,-37.0087
365,-0.5365,-7.8173,-1.3795,24.6957,-91.8261,-36.8
370,-0.2682,-7.9706,-1.5328,21.7043,-94.2609,-36.6609
375,-0.0766,-8.0473,-1.5711,18.1565,-95.8609,-36.6609
380,-0.0383,-7.9706,-1.8777,14.5391,-96.5565,-36.7304
385,0.0,-8.2389,-1.7244,10.9913,-96.8348,-36.6609
390,0.0383,-8.3155,-1.8394,8.0,-96.8348,-36.313
395,0.0766,-8.3921,-1.7627,5.4957,-96.8348,-35.8957
400,0.0766,-8.5454,-1.916,3.6174,-96.8348,-35.3391
405,0.1916,-8.5838,-1.9543,2.2957,-96.5565,-34.6435
410,0.4598,-8.6221,-2.1459,1.6,-96.0,-33.7391
415,0.3832,-8.6604,-2.2226,1.0435,-95.3739,-32.6261
420,0.3832,-8.6221,-2.2226,0.5565,-94.6783,-31.5826
425,0.4215,-8.6987,-2.2609,0.2783,-93.7043,-30.3304
430,0.4982,-8.8137,-2.031,0.0,-92.9391,-29.2174
435,0.3066,-8.852,-2.0693,-0.4174,-92.1739,-27.8957
440,0.2682,-8.8137,-1.916,-0.6261,-91.4087,-26.7826
445,0.1533,-9.0436,-1.6478,-0.6957,-91.0609,-25.7391
450,0.115,-9.0053,-1.4562,-0.487,-90.7826,-24.5565
455,0.0,-9.0819,-1.5711,-0.2087,-91.0609,-23.3043
460,0.0,-9.1586,-1.4945,0.2087,-91.4783,-22.0522
465,-0.0383,-9.1202,-1.5711,0.3478,-92.1043,-20.9391
470,-0.2682,-9.1202,-1.6095,0.1391,-92.3826,-19.9652
475,-0.2682,-9.0436,-1.6478,-0.2783,-92.5217,-19.1304
480,-0.3832,-8.9286,-1.6478,-0.6261,-92.8,-18.6435
485,-0.4215,-8.9286,-1.8394,-0.6957,-93.1478,-18.1565
490,-0.843,-8.4688,-2.1076,-0.8348,-93.6348,-17.8087
495,-0.6514,-8.6221,-1.8777,-0.6957,-94.0522,-17.3913
500,-0.5365,-8.5838,-1.8394,-0.487,-94.6087,-17.2522
505,-0.7281,-8.2772,-1.8011,-0.0696,-95.3739,-17.113
510,-0.6898,-8.0089,-1.7627,0.2783,-96.1391,-16.9043
515,-0.8047,-7.9323,-1.6095,0.4174,-97.2522,-16.6957
520,-0.8814,-7.5491,-1.5328,0.2087,-98.2957,-16.6957
525,-0.6898,-7.3958,-1.6095,-0.487,-99.3391,-16.9043
530,-0.7281,-7.2809,-1.5711,-1.8087,-99.9652,-17.113
535,-0.5365,-7.0893,-1.8011,-3.687,-100.3826,-17.3913
540,-0.5748,-7.1276,-1.6095,-6.0522,-100.6609,-17.8783
545,-0.2682,-7.2425,-1.6478,-8.8348,-100.9391,-18.5043
550,-0.3066,-7.2425,-1.6095,-11.8261,-101.3565,-19.3391
555,-0.2682,-7.4725,-1.7627,-14.887,-102.0522,-19.7565
560,-0.0766,-7.6641,-1.5711,-17.5304,-103.5826,-20.1043
565,0.0766,-7.9706,-1.6095,-19.4783,-105.5304,-20.1043
570,0.115,-8.2389,-1.4945,-20.0348,-107.8957,-20.1043
575,0.0383,-8.4305,-1.4562,-19.1304,-110.4,-19.8957
580,0.1533,-8.5454,-1.3029,-16.7652,-112.9739,-19.4087
585,0.3066,-8.5454,-1.2263,-13.4261,-115.4783,-18.8522
590,0.4598,-8.852,-1.1879,-9.6,-117.7043,-18.087
595,0.4982,-8.7754,-1.3412,-5.913,-119.7913,-17.113
600,0.3832,-8.8137,-1.2263,-2.6435,-121.3913,-16.0
605,0.5365,-8.9286,-1.2646,-0.1391,-122.3652,-14.8174
610,0.4982,-8.9286,-1.1113,1.4609,-122.713,-13.4957
615,0.5365,-9.0053,-0.9963,2.087,-122.713,-12.1739
620,0.4982,-8.967,-0.8814,2.0174,-122.7826,-11.2
625,0.3832,-9.0053,-0.9197,1.3217,-122.9217,-9.9478
630,0.2682,-8.8903,-0.6898,0.3478,-123.3391,-8.9739
635,0.115,-9.0436,-0.6898,-0.6957,-124.3826,-8.0696
640,0.0,-9.0436,-0.6131,-1.7391,-125.7043,-7.3043
645,-0.2682,-9.1202,-0.4982,-2.7826,-127.3043,-6.4
650,-0.3066,-9.1586,-0.3832,-3.5478,-129.5304,-5.5652
655,-0.5365,-9.1969,-0.1916,-3.687,-132.2435,-4.7304
660,-0.7281,-9.0819,-0.2682,-3.8261,-135.3739,-3.7565
665,-0.8047,-8.8903,-0.5365,-3.8957,-138.2957,-2.7826
670,-0.6898,-9.0819,-0.5365,-4.2435,-140.8696,-1.8087
675,-0.843,-8.7754,-0.4982,-5.1478,-143.2348,-0.9043
680,-0.7664,-8.737,-0.6898,-6.3304,-145.2522,0.0696
685,-0.6898,-8.5454,-0.8047,-8.0,-147.1304,0.9739
690,-0.4598,-8.5071,-0.8047,-9.6696,-148.8696,1.7391
695,-0.4215,-8.3538,-0.9963,-12.0348,-149.9826,2.2261
700,-0.4982,-8.6221,-0.6514,-15.0957,-151.3043,2.5043
705,-0.3449,-8.5071,-0.8047,-18.5043,-152.3478,2.5739
710,-0.1916,-8.6604,-0.6898,-21.3565,-153.5304,2.5043
715,-0.0383,-8.852,-0.7281,-23.0957,-154.9217,2.2261
720,-0.0383,-9.1586,-0.9197,-23.7913,-156.6609,1.7391
725,0.0,-9.4651,-0.9197,-24.2783,-158.6087,0.8348
730,0.0,-9.7717,-1.073,-24.3478,-160.6261,-0.4174
735,-0.1916,-9.9633,-1.1496,-24.2783,-162.713,-1.6696
740,-0.0766,-10.2698,-1.2646,-24.0696,-164.9391,-3.1304
745,-0.2682,-10.4998,-1.5711,-24.2087,-167.4435,-4.5913
750,-0.3832,-10.7297,-1.6478,-24.7652,-169.8087,-6.3304
755,-0.5365,-10.8446,-1.9927,-25.8783,-171.7565,-8.2087
760,-0.7664,-10.768,-2.1076,-27.3391,-173.2174,-9.9478
765,-0.7664,-10.8063,-2.2992,-28.3826,-174.1913,-11.6174
770,-0.5748,-10.653,-2.4908,-28.4522,-174.4696,-13.0087
775,-0.3066,-10.4614,-2.5675,-27.1304,-173.7739,-14.4696
780,-0.2299,-10.1932,-2.6824,-24.0696,-172.3826,-16.0
785,0.0766,-10.0782,-3.0273,-19.8261,-170.5739,-17.113
790,0.3832,-10.0399,-3.1039,-15.513,-168.9739,-18.3652
795,0.7281,-10.0016,-3.2572,-12.313,-167.8609,-20.1043
800,0.8814,-10.0016,-3.2189,-10.4348,-167.1652,-21.8435
805,1.2646,-10.1549,-3.2572,-10.2261,-166.9565,-23.2348
810,1.4562,-9.9633,-3.4871,-11.5478,-167.7913,-24.2087
815,1.8777,-10.2315,-3.2572,-13.3565,-169.1826,-24.7652
820,2.1843,-10.3082,-3.0273,-14.6087,-170.8522,-24.6957
825,2.2226,-10.4998,-2.7591,-14.7478,-172.1043,-24.487
830,2.1076,-10.5381,-2.4908,-13.4261,-173.1478,-23.9304
835,1.8394,-10.6914,-2.4908,-11.6174,-173.8435,-23.7217
840,1.3412,-10.768,-2.6058,-10.5739,-174.6783,-24.0
845,0.5365,-10.6914,-2.7591,-11.4087,-175.1652,-25.0435
850,-0.3066,-10.4998,-3.1039,-14.6087,-175.7217,-26.3652
855,-0.9197,-10.1932,-3.2189,-19.5478,-176.487,-28.1043
860,-1.0346,-9.8483,-3.3339,-23.6522,-176.8348,-30.2609
865,-1.073,-9.5418,-3.2189,-27.6174,-176.487,-32.487
870,-1.1496,-9.3118,-3.2189,-28.4522,-174.6783,-34.0174
875,-1.3412,-9.0819,-3.0273,-26.087,-172.313,-34.5043
880,-1.6478,-8.8903,-2.6058,-21.0783,-170.1565,-34.2957
885,-1.9543,-8.6221,-2.5675,-14.887,-168.487,-33.6696
890,-2.2226,-8.3921,-2.6058,-8.5565,-166.8174,-32.7652
895,-2.2226,-8.2772,-2.9507,-3.4783,-165.1478,-31.3043
900,-2.2992,-7.894,-3.1039,-0.5565,-163.9652,-29.5652
905,-2.2609,-7.9323,-3.4488,-0.487,-163.8261,-27.9652
910,-2.1843,-7.779,-3.4871,-3.4783,-164.6609,-26.9217
915,-2.2609,-8.2389,-3.3339,-9.0435,-166.4,-26.2261
920,-1.8777,-7.9706,-3.7171,-15.5826,-168.4174,-26.087
925,-1.7627,-8.2772,-3.5638,-21.8435,-170.7826,-26.713
930,-1.8011,-8.8137,-3.2572,-27.0609,-173.3565,-27.4087
935,-1.9927,-9.1202,-2.989,-30.8174,-176.1391,-27.9652
940,-2.2226,-9.5034,-2.7974,-32.6957,-178.8522,-28.8696
945,-2.4142,-9.695,-2.4908,-32.6261,-181.4957,-30.2609
950,-2.3759,-9.7334,-2.3759,-31.513,-183.7913,-31.6522
955,-2.4908,-9.5801,-2.3375,-29.913,-185.9478,-32.6957
960,-2.4525,-9.5034,-2.4142,-28.3826,-187.6174,-32.9043
965,-2.4142,-9.4268,-2.5291,-27.2696,-188.8,-32.2783
970,-2.3375,-9.1969,-2.6824,-27.1304,-189.1478,-31.4435
975,-2.0693,-9.0819,-2.8357,-28.0348,-189.0783,-30.5391
980,-1.8011,-9.0819,-2.989,-29.8435,-188.6609,-29.5652
985,-1.6861,-9.0819,-3.1039,-32.2087,-188.1043,-28.9391
990,-1.4562,-9.0436,-2.9507,-34.2957,-187.7565,-28.8
995,-1.0346,-9.3885,-2.7974,-35.1304,-187.8261,-28.8696
1000,-1.0346,-9.5418,-2.6824,-34.7826,-187.7565,-29.6348
1005,-0.8047,-9.7334,-2.5291,-32.9739,-187.5478,-30.9565
1010,-0.843,-9.8866,-2.3759,-29.913,-187.2,-32.4174
1015,-0.8814,-9.925,-2.2609,-25.9478,-186.713,-34.1565
1020,-0.8047,-10.2315,-2.1843,-21.7043,-186.087,-35.5478
1025,-0.7664,-10.0782,-2.7207,-18.7826,-184.9043,-36.8696
1030,-0.4982,-9.8866,-2.989,-16.0696,-184.0,-37.913
1035,-0.3066,-9.6567,-3.2189,-14.6783,-182.5391,-38.3304
1040,-0.115,-9.5418,-3.4488,-14.6783,-180.6609,-38.2609
1045,-0.115,-9.4268,-3.4871,-15.7913,-178.4348,-37.4957
1050,0.0766,-9.4268,-3.4488,-17.7391,-176.4174,-36.5913
1055,0.1916,-9.5034,-3.3339,-19.8261,-174.6783,-35.3391
1060,0.2299,-9.4268,-3.2572,-21.7739,-172.8696,-34.2957
1065,0.4215,-9.5034,-3.1039,-23.0261,-170.9217,-33.3913
1070,0.4982,-9.695,-2.9123,-23.0957,-168.9739,-32.4174
1075,0.6898,-9.8866,-2.5291,-22.1217,-166.6783,-31.7217
1080,0.4982,-10.0399,-2.4142,-19.8957,-164.313,-31.3739
1085,0.4982,-10.1549,-2.2226,-16.9043,-161.7391,-31.0957
1090,0.5748,-10.4231,-2.031,-13.2174,-158.8174,-30.6783
1095,0.3449,-10.5381,-1.8394,-9.1826,-155.7565,-30.1913
1100,0.2682,-10.5764,-1.7627,-5.0783,-152.9043,-29.6348
1105,0.1916,-10.5764,-1.5711,-0.9739,-150.1217,-28.7304
1110,0.0383,-10.5381,-1.6478,2.8522,-147.5478,-27.687
1115,-0.0383,-10.4231,-1.6861,6.4696,-144.9739,-26.7826
1120,-0.1916,-10.1549,-1.6861,10.0174,-142.8174,-25.6
1125,-0.3066,-9.925,-1.7627,13.0087,-141.0783,-24.4174
1130,-0.4215,-10.0399,-1.9543,15.1652,-139.9652,-23.1652
1135,-0.4598,-9.925,-1.9543,16.1391,-139.1304,-22.0522
1140,-0.4598,-9.8483,-2.0693,16.0,-138.4348,-21.1478
1145,-0.3449,-9.7334,-1.9927,14.887,-137.5304,-20.5913
1150,-0.0766,-9.7717,-1.8777,13.3565,-136.1391,-20.3826
1155,-0.0766,-9.7717,-1.6478,12.0348,-133.9826,-20.4522
1160,-0.0383,-9.8866,-1.5328,11.6174,-131.4087,-20.8696
1165,0.0,-9.7334,-1.3795,11.8957,-128.8348,-21.4261
1170,-0.1916,-9.6567,-1.0346,12.9391,-126.0522,-21.913
1175,-0.0766,-9.4268,-1.1496,14.4,-123.4087,-22.5391
1180,-0.2682,-9.2735,-0.9963,15.6522,-120.9043,-22.9565
1185,-0.4215,-9.2735,-1.1496,16.6261,-118.4696,-23.3043
1190,-0.4215,-9.1202,-1.1496,16.7652,-116.1739,-23.513
1195,-0.6898,-9.0436,-1.4562,16.7652,-114.2261,-23.3043
1200,-0.9963,-8.7754,-1.5328,16.0,-112.9739,-23.0261
1205,-1.2646,-8.7754,-1.6478,14.6783,-111.7217,-22.6087
1210,-1.4945,-8.737,-1.7244,13.1478,-111.1652,-22.2609
1215,-1.4945,-8.737,-1.8777,11.3391,-110.9565,-21.3565
1220,-1.6478,-8.852,-2.031,8.9739,-110.6087,-20.3826
1225,-1.8011,-8.8137,-2.1076,6.0522,-110.1217,-19.5478
1230,-2.0693,-9.0053,-2.1843,3.1304,-109.287,-19.2
1235,-1.9927,-9.2735,-2.2609,0.487,-108.313,-19.1304
1240,-1.6478,-9.4268,-2.2226,-1.8087,-107.3391,-19.3391
1245,-1.6861,-9.6567,-2.2992,-3.3391,-106.1565,-19.8957
1250,-1.4945,-9.8483,-2.1843,-3.8957,-104.487,-20.8
1255,-1.3412,-9.8866,-2.1843,-3.6174,-102.2609,-21.7739
1260,-1.1496,-10.1932,-2.2609,-2.2261,-99.3391,-22.5391
1265,-0.9963,-10.1549,-1.9543,0.0696,-95.8609,-23.0261
1270,-0.843,-10.2315,-1.9543,2.9913,-92.2435,-23.0261
1275,-0.7664,-10.3465,-1.8777,5.7043,-88.9739,-22.887
1280,-0.4215,-10.3848,-1.7627,7.9304,-86.0522,-22.4
1285,-0.4215,-10.2698,-1.6478,9.4609,-83.6174,-21.5652
1290,-0.1533,-10.4231,-1.5711,10.4348,-81.8087,-20.3826
1295,0.0383,-10.4998,-1.4945,11.2,-80.6957,-19.2696
1300,0.0,-10.3465,-1.3795,12.0348,-80.1391,-18.1565
1305,0.3449,-10.4998,-1.3412,13.2174,-79.513,-16.9739
1310,0.4598,-10.3848,-1.1879,15.1652,-78.6783,-16.2783
1315,0.5748,-10.4614,-0.958,17.6696,-77.5652,-15.4435
1320,0.843,-10.4231,-0.8814,20.8,-75.8957,-14.887
1325,0.6898,-10.4998,-0.9197,23.9304,-73.7391,-14.4696
1330,0.8047,-10.3082,-0.7281,26.7826,-71.3739,-14.2609
1335,0.7281,-10.3465,-0.7281,29.287,-68.6609,-14.2609
1340,0.6131,-10.2315,-0.5748,31.6522,-65.9478,-14.4696
1345,0.4982,-10.1932,-0.6514,33.9478,-63.0957,-14.6087
1350,0.4598,-10.0782,-0.5748,35.6174,-59.8261,-14.9565
1355,0.3832,-10.0782,-0.6514,37.7739,-56.4174,-15.513
1360,0.3449,-9.925,-0.5365,39.9304,-53.4957,-16.1391
1365,0.2682,-9.8866,-0.3449,42.3652,-49.4609,-16.6261
1370,0.2299,-9.8483,-0.2299,44.8,-45.7739,-17.3217
1375,0.3449,-9.695,-0.1916,47.2348,-41.9478,-18.087
1380,0.2682,-9.5418,-0.115,49.4609,-38.1217,-18.9913
1385,0.3066,-9.5801,0.0,51.2696,-34.7826,-19.8957
1390,0.3449,-9.4651,0.115,52.2435,-31.7913,-20.8696
1395,0.3832,-9.5034,-0.115,52.313,-29.4957,-21.6348
1400,0.115,-9.4268,-0.2682,51.0609,-27.4783,-22.1217
1405,0.0,-9.5034,-0.6131,48.487,-26.0174,-21.913
1410,-0.115,-9.5418,-0.7664,44.3826,-25.2522,-21.1478
1415,-0.5365,-9.695,-1.4562,38.5391,-25.3913,-19.7565
1420,-0.6514,-9.8866,-1.8777,30.6087,-26.3652,-17.6
1425,-0.7664,-10.3082,-2.4908,21.0783,-28.0348,-14.8174
1430,-1.073,-10.4614,-2.874,10.8522,-29.6348,-11.4783
1435,-1.1879,-10.6914,-2.8357,1.1826,-30.4,-7.3043
1440,-1.3029,-10.9979,-2.7207,-5.3565,-30.6783,-3.3391
1445,-1.4945,-11.1895,-2.2226,-7.0261,-30.4696,0.4174
1450,-1.8011,-11.1129,-1.6861,-2.8522,-30.5391,3.5478
1455,-1.9543,-10.9213,-1.0346,6.5391,-31.3739,5.913
1460,-1.8394,-10.5764,-0.6898,18.7826,-32.9739,7.0957
1465,-1.7627,-10.3465,-0.6514,31.3739,-34.713,7.3739
1470,-1.5711,-9.81,-0.6514,41.6696,-35.8261,7.3043
1475,-1.3795,-9.4268,-0.8047,48.1391,-35.8957,6.887
1480,-1.1113,-9.0053,-0.7664,50.8522,-34.7826,6.1913
1485,-0.958,-8.8137,-0.9197,50.2957,-32.9043,4.9391
1490,-0.6898,-8.5838,-1.073,47.5826,-30.1913,3.8957
1495,-0.4598,-8.5838,-1.1496,43.5478,-27.8957,2.5043
1500,-0.3066,-8.6221,-0.9963,38.8174,-25.7391,1.1826
1505,-0.1533,-8.6987,-1.1496,34.2261,-23.7913,0.2087
1510,-0.115,-8.6987,-1.3795,30.1217,-21.913,-0.8348
1515,0.0,-8.9286,-1.1113,26.713,-20.3826,-1.5304
1520,-0.0766,-9.0819,-1.1879,24.6261,-19.0609,-2.2957
1525,-0.0766,-9.0436,-1.3029,22.8174,-18.3652,-2.9217
1530,0.0,-9.1586,-1.3029,21.5652,-17.8087,-3.2
1535,0.115,-9.3118,-1.4945,20.9391,-17.6,-3.4087
1540,0.115,-9.1202,-1.4945,20.5913,-17.0435,-3.2696
1545,0.1916,-9.3118,-1.4562,20.5217,-16.2087,-2.8522
1550,0.115,-9.0436,-1.1496,20.5913,-14.6087,-2.087
1555,0.3832,-9.2352,-1.4562,20.7304,-12.313,-1.2522
1560,0.4598,-9.2352,-1.3412,20.7304,-9.5304,-0.5565
1565,0.6131,-9.3885,-1.3795,20.5913,-6.4696,0.3478
1570,0.6514,-9.3502,-1.2263,20.1739,-3.7565,1.0435
1575,0.6898,-9.3502,-1.2263,19.6174,-2.2957,1.6696
1580,0.6898,-9.4651,-1.0346,18.5043,-2.2957,2.5043
1585,0.5365,-9.5801,-1.1113,16.9043,-3.4783,3.4087
1590,0.4215,-9.6567,-1.0346,14.7478,-5.5652,4.0348
1595,0.3832,-10.0016,-0.9963,12.5217,-7.8609,4.7304
1600,0.1916,-10.0782,-1.1879,10.5739,-9.8783,4.9391
1605,0.0383,-10.2698,-0.8814,9.0435,-11.7565,5.2174
1610,-0.0383,-10.3465,-1.1113,8.3478,-13.0783,5.0783
1615,-0.0383,-10.5764,-0.9197,8.5565,-14.1217,4.7304
1620,-0.1533,-10.5381,-0.9197,9.1826,-14.887,4.1739
1625,-0.2299,-10.653,-0.843,10.2957,-15.0261,3.6174
1630,-0.3832,-10.653,-0.8047,11.6174,-15.0957,2.6435
1635,-0.115,-10.8063,-0.6898,12.5217,-15.1652,1.7391
1640,-0.0383,-10.6147,-0.7664,13.0087,-15.3043,0.7652
1645,-0.0766,-10.6147,-0.7664,13.0087,-15.3739,-0.1391
1650,0.0,-10.5381,-0.7664,12.5217,-15.2348,-1.3913
1655,0.115,-10.3465,-0.843,11.9652,-14.8174,-2.713
1660,0.3832,-10.3082,-1.1113,11.3391,-14.4696,-4.1739
1665,0.3832,-10.4231,-0.843,10.7826,-14.4,-5.6348
1670,0.5365,-10.4614,-0.8814,10.5739,-14.6783,-7.1652
1675,0.4982,-10.2315,-0.8047,10.087,-14.887,-8.6957
1680,0.6514,-10.2698,-0.7664,10.087,-14.6783,-10.2957
1685,0.7281,-10.1932,-0.7281,10.2261,-14.4696,-11.7565
1690,0.7664,-10.0782,-0.7664,10.3652,-14.1217,-13.3565
1695,0.9197,-10.1932,-0.7281,10.1565,-13.287,-14.3304
1700,1.0346,-10.2315,-0.6131,9.6,-12.1739,-15.3739
1705,0.9197,-10.2698,-0.4598,8.9043,-11.2,-16.4174
1710,0.958,-10.4998,-0.0766,8.2783,-10.2261,-17.113
1715,0.9197,-10.3082,0.0,8.0,-9.5304,-17.9478
1720,0.9963,-10.4231,0.115,8.2783,-9.1826,-18.5739
1725,0.8047,-10.4998,0.1916,8.7652,-9.113,-19.1304
1730,0.7664,-10.3848,0.0766,9.3217,-9.3217,-19.4783
1735,0.5748,-10.2315,0.115,9.5304,-9.9478,-19.8261
1740,0.5365,-10.0782,0.0383,9.3913,-10.713,-19.8261
1745,0.5748,-9.925,0.1533,9.4609,-11.4783,-19.7565
1750,0.4215,-9.695,0.0766,9.6,-11.8261,-19.4783
1755,0.4982,-9.6567,0.1533,10.1565,-11.9652,-18.9913
1760,0.4982,-9.5034,0.2682,11.0609,-11.6174,-18.4348
1765,0.7664,-9.5418,0.115,11.8957,-10.9217,-17.8783
1770,0.4215,-9.1969,0.3449,12.4522,-10.1565,-17.5304
1775,0.5365,-9.1969,0.5365,12.8696,-9.6,-17.0435
1780,0.4215,-9.0819,0.4215,12.9391,-9.4609,-16.5565
1785,0.4215,-9.0053,0.6514,12.8,-9.8783,-16.2087
1790,0.3066,-8.9286,0.6131,12.4522,-10.713,-16.0
1795,0.3066,-8.8903,0.4982,11.7565,-11.8957,-15.513
1800,0.2299,-8.8903,0.4982,10.713,-13.0783,-15.2348
1805,0.1916,-8.8137,0.5365,9.3913,-13.9826,-15.0957
1810,0.3066,-9.0436,0.3449,7.7913,-14.4,-14.8174
1815,0.3066,-9.0436,0.2682,5.9826,-14.3304,-14.8174
1820,0.4215,-9.1202,0.2299,4.313,-13.8435,-14.6783
1825,0.4982,-9.1969,0.3066,2.713,-13.1478,-14.4696
1830,0.4598,-9.3118,0.1533,1.4609,-12.4522,-14.2609
1835,0.5365,-9.3118,0.1916,0.2783,-11.6174,-14.0522
1840,0.6898,-9.4651,0.0383,-0.5565,-10.7826,-13.7043
1845,0.8047,-9.5418,0.1916,-1.113,-9.8783,-13.5652
1850,0.8047,-9.5418,0.1533,-1.3217,-8.9739,-13.0783
1855,0.8814,-9.695,0.1916,-1.2522,-8.2087,-12.3826
1860,0.958,-9.7717,0.115,-1.1826,-7.513,-11.5478
1865,0.843,-9.81,0.0,-1.0435,-7.3043,-10.6435
1870,0.7281,-9.925,0.0766,-0.6957,-7.4435,-9.2522
1875,0.6898,-9.8866,0.1916,-0.2087,-7.6522,-7.7217
1880,0.7281,-10.0782,0.0766,0.3478,-8.0,-5.913
1885,0.6131,-9.925,0.2299,1.3913,-8.6261,-4.1043
1890,0.5365,-9.8483,0.2682,2.7826,-9.4609,-2.5043
1895,0.4982,-9.81,0.3832,4.7304,-10.1565,-0.6261
1900,0.3449,-9.6567,0.3832,6.887,-10.9217,1.2522
1905,0.4215,-9.5801,0.5748,9.1826,-11.7565,2.9913
1910,0.4598,-9.5418,0.4598,11.3391,-12.3826,4.6609
1915,0.3066,-9.4268,0.4982,13.0783,-12.8696,6.0522
1920,0.1533,-9.3885,0.6514,14.4696,-13.0087,7.4435
1925,0.115,-9.3502,0.6514,15.5826,-13.0087,8.6261
1930,-0.1916,-9.3118,0.5748,16.5565,-13.0087,9.6
1935,0.3832,-9.5418,0.958,17.3217,-13.1478,10.1565
1940,-0.0766,-9.695,0.843,17.6,-13.7043,10.3652
1945,-0.1533,-9.3502,0.8814,17.1826,-14.1217,10.3652
1950,0.2682,-9.4268,1.1496,16.1391,-14.6087,10.6435
1955,-0.8814,-9.6184,1.1496,14.9565,-14.9565,10.6435
1960,0.1533,-9.8483,1.1879,13.5652,-15.2348,10.713
1965,-0.0766,-9.7334,1.5711,12.4522,-15.3043,10.5739
1970,-0.1533,-10.1549,1.073,11.687,-15.1652,10.2261
1975,0.115,-9.8866,0.8814,10.9913,-15.0957,9.7391
1980,0.2682,-10.0782,0.8047,10.3652,-15.3739,9.113
1985,0.0,-10.0399,0.8814,9.8783,-15.9304,8.6957
1990,0.115,-10.0016,0.9197,9.2522,-16.487,8.2087
1995,0.2299,-10.0016,0.9197,8.9739,-17.1826,7.7913
2000,0.2682,-9.8866,0.9963,9.0435,-17.8783,7.513
2005,0.115,-9.5418,1.3412,9.6696,-18.5739,7.2348
2010,0.115,-9.6184,1.1496,10.5739,-19.5478,6.9565
2015,0.3449,-9.7717,1.3412,11.4087,-20.313,6.6783
2020,0.2299,-9.5418,1.1496,12.5913,-20.8,6.4
2025,0.115,-9.5418,0.3066,13.4261,-21.287,6.3304
2030,0.115,-9.6567,0.958,13.6348,-21.7739,6.4
2035,0.2299,-9.4651,0.5365,12.9391,-22.3304,6.2609
2040,0.3066,-9.5034,0.7664,10.9913,-23.0261,6.1913
2045,0.3066,-9.695,0.6131,8.2087,-24.2783,5.9826
2050,0.3832,-9.6567,0.4598,4.3826,-25.8783,5.8435
2055,0.4215,-9.5418,0.1916,0.3478,-27.4783,5.8435
2060,0.115,-10.3082,1.073,-3.687,-29.0783,5.6348
2065,0.115,-10.3082,0.4982,-7.0261,-30.5391,5.4261
2070,0.0766,-10.653,0.4598,-9.4609,-32.1391,4.9391
2075,0.0,-10.653,0.3449,-10.5739,-33.3217,4.3826
2080,0.0,-10.6914,0.1533,-10.5043,-34.2957,3.687
2085,-0.4982,-10.768,0.4982,-9.6,-34.9913,2.9217
2090,0.2682,-10.653,-0.3449,-8.487,-35.4783,1.9478
2095,0.0766,-10.3848,-0.5748,-7.8609,-35.4087,0.8348
2100,0.4982,-10.653,-1.073,-8.2783,-35.1304,-0.5565
2105,-0.0383,-10.4998,-0.958,-10.1565,-34.4348,-1.9478
2110,0.0766,-10.1932,-0.8814,-13.2174,-33.4609,-3.3391
2115,-0.4215,-9.8483,-1.3412,-16.9043,-32.487,-4.4522
2120,-0.4215,-9.81,-1.7244,-20.5217,-31.7217,-5.287
2125,-0.3449,-9.5801,-0.9197,-23.5826,-32.0,-5.7043
2130,-0.7281,-9.1969,-1.4945,-26.0174,-33.113,-5.7739
2135,-0.3066,-9.1969,-1.5328,-27.5478,-35.0609,-5.2174
2140,-0.5365,-9.0436,-1.6861,-28.1739,-37.5652,-4.2435
2145,-0.8047,-8.8137,-1.7244,-27.9652,-40.1391,-3.2
2150,-0.9197,-8.5454,-1.7244,-27.0609,-42.5043,-2.087
2155,-1.073,-8.3921,-1.6861,-25.4609,-44.6609,-1.1826
2160,-1.073,-8.2772,-1.7627,-23.2348,-46.3304,-0.2783
2165,-1.3795,-8.0856,-1.6095,-21.2174,-48.0,0.5565
2170,-1.2263,-8.2772,-1.8011,-19.7565,-49.3913,1.2522
2175,-2.1076,-7.5491,-1.4179,-18.9913,-50.0174,1.7391
2180,-1.8777,-8.3538,-1.8011,-18.9217,-49.6696,1.6696
2185,-2.5291,-8.0473,-1.2263,-19.687,-48.2087,1.0435
2190,-1.073,-8.967,-1.5711,-20.6609,-46.4696,-0.0696
2195,-2.2226,-9.3502,0.115,-21.4261,-43.9652,-1.1826
2200,-1.1113,-10.0782,-0.958,-21.5652,-41.113,-2.9913
2205,-1.073,-10.9596,-0.1533,-20.9391,-37.6348,-5.0087
2210,-0.7281,-11.1512,0.0383,-19.2,-33.6,-7.0957
2215,-0.0383,-11.7643,0.1916,-16.3478,-28.9391,-8.3478
2220,0.2682,-12.1859,0.5748,-12.5913,-24.487,-9.113
2225,0.4598,-12.3008,0.7281,-8.4174,-20.8,-9.4609
2230,0.958,-12.4158,0.958,-4.6609,-18.1565,-9.3217
2235,1.073,-12.3391,0.8814,-1.4609,-16.3478,-8.5565
2240,1.5711,-12.0709,0.3066,1.3217,-14.887,-7.7217
2245,1.8394,-11.9943,1.1113,3.8957,-13.4261,-6.5391
2250,1.6861,-11.8793,0.9963,6.7478,-12.0348,-4.8696
2255,1.5711,-11.841,0.7281,9.6696,-10.8522,-2.9217
2260,1.4945,-11.5344,1.2263,13.287,-9.6696,-0.5565
2265,1.1496,-11.0363,1.073,17.4609,-8.3478,2.3652
2270,0.843,-10.5764,0.958,21.4261,-6.887,5.287
2275,0.3449,-10.4614,0.958,24.9739,-5.0783,7.7913
2280,0.3066,-10.2315,0.4982,27.2,-3.0609,10.0174
2285,-0.1916,-9.925,0.5365,27.9652,-1.0435,11.5478
2290,-0.5365,-9.1969,0.0766,27.4087,0.487,12.5217
2295,-0.8814,-8.967,0.5365,26.087,0.9043,13.3565
2300,-1.1113,-8.9286,0.3066,24.7652,0.5565,13.913
2305,-1.4945,-8.5071,0.3066,23.6522,-0.4174,13.913
2310,-1.6478,-8.2389,0.4215,22.7478,-1.3217,13.3565
2315,-1.5711,-7.8173,-0.2299,21.7043,-2.2957,12.1043
2320,-1.916,-7.5874,0.3449,20.5217,-3.4783,10.6435
2325,-2.2992,-7.4341,0.0383,18.9217,-4.8,8.9739
2330,-2.4908,-7.5108,-0.0766,16.5565,-6.887,7.3043
2335,-2.7591,-7.6257,-0.4982,13.0783,-9.3913,5.7043
2340,-2.7207,-7.5108,-0.4982,8.4174,-11.8261,4.0348
2345,-2.874,-7.894,-0.6898,4.1043,-13.7043,2.3652
2350,-2.874,-8.2772,-0.9963,-1.3217,-14.7478,0.4174
2355,-2.6058,-8.737,-0.7281,-5.4261,-14.9565,-1.7391
2360,-2.0693,-8.4305,-0.958,-7.3739,-14.4,-4.0348
2365,-2.6441,-8.0473,-1.1496,-7.2348,-13.5652,-5.7043
2370,-2.0693,-8.5838,-0.7664,-5.2174,-12.5217,-7.8609
2375,-1.7627,-8.8903,-0.6898,-2.7826,-11.4087,-9.6696
2380,-1.5328,-8.9286,-0.7664,-0.487,-10.5739,-10.7826
2385,-1.2263,-8.9286,-0.8814,0.7652,-9.8087,-11.2696
2390,-1.1113,-8.8903,-1.1496,0.6957,-9.7391,-10.9913
2395,-0.7281,-9.1586,-1.4179,-0.6957,-9.8087,-10.4348
2400,-0.1916,-9.4651,-1.6478,-3.0609,-9.4609,-9.6696
2405,0.3066,-9.81,-1.5711,-6.6087,-7.9304,-8.6957
2410,0.7281,-9.5418,-2.1076,-11.2,-4.8,-7.1652
2415,1.0346,-9.5034,-2.3759,-16.6261,-0.6261,-5.6348
2420,1.9927,-10.2315,-2.3759,-22.1913,4.3826,-3.8957
2425,2.4908,-10.653,-2.2609,-27.4783,9.8783,-2.2261
2430,3.2572,-10.9979,-2.0693,-31.8609,15.5826,-0.7652
2435,3.7554,-11.1512,-1.8394,-34.5043,21.1478,0.5565
2440,4.6368,-11.2279,-1.4179,-34.9217,26.2261,1.8087
2445,4.9433,-11.6494,-0.8814,-32.1391,30.3304,3.0609
2450,5.2116,-11.7643,-0.5748,-26.8522,33.5304,3.9652
2455,5.2499,-11.8027,-0.0766,-19.3391,35.4783,4.9391
2460,4.9816,-11.6877,0.0,-10.2957,36.1739,5.4957
2465,4.5984,-11.726,0.6131,-1.3217,35.9652,5.4261
2470,4.3685,-11.1895,0.4982,6.8174,34.9913,5.3565
2475,3.832,-10.8063,0.6514,13.7043,33.8087,5.6348
2480,3.3722,-10.5764,0.8814,19.1304,32.9739,6.4
2485,2.6441,-10.3082,1.073,23.4435,32.8348,7.7913
2490,1.4562,-9.7717,1.1496,26.713,33.3217,9.3217
2495,1.1496,-9.7334,1.6478,28.6609,33.6696,10.2957
2500,0.4598,-9.7334,1.7244,29.0783,33.5304,10.5739
2505,0.115,-9.7334,1.9543,28.1043,32.9043,10.087
2510,-0.2682,-9.81,1.9927,25.6,32.2783,9.2522
2515,-0.8047,-9.5801,1.8394,21.913,32.0696,8.2783
2520,-1.2646,-9.9633,1.6478,18.2261,31.9304,7.1652
2525,-1.7244,-10.0782,1.5711,12.8,32.1391,5.7739
2530,-2.1843,-10.1166,1.1879,6.887,32.2783,3.7565
2535,-2.3759,-10.5764,1.3795,0.487,32.5565,2.0174
2540,-2.5675,-10.5381,0.9197,-6.1913,32.4174,-0.3478
2545,-2.8357,-10.653,0.9197,-12.313,32.1391,-2.8522
2550,-2.9123,-10.5764,0.958,-17.1826,31.513,-5.4261
2555,-2.989,-10.5381,1.0346,-20.1043,30.9565,-7.7913
2560,-2.5675,-10.5764,1.073,-20.7304,29.9826,-10.2261
2565,-2.3759,-10.4231,1.1879,-19.3391,28.1043,-12.5913
2570,-2.0693,-10.2698,1.3412,-16.8348,26.1565,-14.6783
2575,-1.6478,-10.0782,1.5328,-13.9826,24.487,-16.0696
2580,-1.1496,-9.9633,1.6095,-11.4087,23.0261,-16.8348
2585,-0.7664,-9.6184,1.5711,-9.3217,21.4957,-17.3217
2590,-0.3449,-9.5034,1.6095,-8.2087,20.0348,-17.3913
2595,0.1533,-9.4268,1.5711,-7.6522,18.3652,-17.2522
2600,0.4598,-9.2352,1.4945,-7.7913,16.9043,-16.8348
2605,0.8047,-8.9286,1.4562,-8.6261,15.2348,-16.2087
2610,1.2263,-8.9286,1.2263,-9.6696,13.6348,-15.3739
2615,1.4945,-8.967,0.9963,-10.5043,12.1043,-14.2609
2620,1.6861,-8.9286,0.8814,-11.0609,10.713,-12.8696
2625,1.8011,-8.852,0.6514,-11.5478,10.0174,-11.2
2630,1.8394,-8.5071,0.5748,-11.4087,9.6,-9.6696
2635,1.8394,-8.8903,0.4215,-10.713,9.8087,-8.3478
2640,1.7244,-8.8137,0.3832,-9.3913,9.9478,-6.8174
2645,1.5711,-8.8137,0.0766,-7.7217,9.9478,-5.287
2650,1.4562,-8.5838,-0.0766,-6.0522,9.8783,-3.8957
2655,1.2646,-8.5454,-0.1916,-4.8696,10.1565,-2.5739
2660,1.2646,-8.4688,-0.3449,-4.2435,10.713,-1.3217
2665,1.0346,-8.2772,-0.4598,-4.1043,11.3391,-0.2087
2670,0.9197,-8.1239,-0.4215,-4.1739,11.7565,0.6957
2675,0.6898,-8.0473,-0.2682,-4.1739,12.0348,1.5304
2680,0.5748,-7.8557,-0.2299,-3.6174,11.8261,2.2261
2685,0.3832,-7.8557,-0.1533,-2.5043,11.2,3.0609
2690,0.3066,-7.5874,0.115,-1.113,10.3652,3.7565
2695,0.0383,-7.4725,0.0766,1.0435,9.4609,4.4522
2700,0.0,-7.3192,0.1916,3.2696,8.3478,5.287
2705,-0.0383,-7.1659,0.2682,5.0783,6.9565,5.913
2710,-0.1533,-7.0509,0.4215,6.1217,5.6348,6.887
2715,-0.0766,-6.8593,0.3449,6.1217,4.4522,8.0696
2720,-0.0766,-6.936,0.1916,4.9391,3.5478,9.6
2725,-0.1533,-6.8977,0.1533,2.2261,2.9217,11.2696
2730,-0.115,-7.1276,0.2299,-1.8783,2.4348,13.287
2735,-0.1916,-7.2809,0.3066,-7.0261,1.9478,15.2348
2740,-0.0383,-7.6641,0.2682,-12.5217,1.1826,17.3217
2745,-0.1916,-8.1622,0.2682,-17.8087,0.0,18.9913
2750,-0.2299,-8.3538,0.4982,-22.1217,-1.4609,20.5217
2755,-0.2682,-8.5071,0.4982,-25.1826,-3.3391,21.7043
2760,-0.1533,-8.8137,0.4215,-26.713,-5.1478,22.7478
2765,-0.2299,-8.8903,0.4982,-26.9913,-6.8174,23.513
2770,-0.2682,-8.8903,0.4215,-26.4348,-8.5565,24.1391
2775,-0.2299,-8.967,0.1533,-25.0435,-9.8087,24.2087
2780,-0.115,-8.737,0.0766,-23.1652,-10.5043,23.8609
2785,-0.1533,-8.6987,-0.0383,-20.8696,-10.3652,22.8174
2790,-0.0766,-8.4688,-0.0766,-18.2957,-9.1826,21.4957
2795,0.1916,-8.0856,-0.1916,-15.5826,-7.7217,19.7565
2800,0.0,-8.0089,-0.0383,-13.287,-6.0522,18.0174
2805,0.0,-7.8173,-0.1916,-11.4783,-4.1739,16.2087
2810,0.0383,-7.7024,-0.1533,-10.9217,-2.5043,14.6087
2815,0.2682,-7.779,-0.3832,-12.1043,-0.9739,13.0087
2820,0.2682,-7.8173,-0.5748,-15.3043,0.2783,11.5478
2825,0.3066,-7.779,-0.6898,-20.3826,1.0435,10.2261
2830,0.2682,-7.7407,-0.6131,-26.713,1.1826,8.6957
2835,0.3066,-7.779,-0.7281,-33.4609,1.0435,7.2348
2840,0.2299,-7.7407,-0.7281,-40.3478,0.487,5.7739
2845,0.0766,-7.7024,-0.843,-46.8174,-0.3478,4.5913
2850,0.1533,-7.894,-0.6898,-51.9652,-1.5304,3.7565
2855,-0.4215,-7.8173,-0.5748,-54.8174,-3.3391,3.0609
2860,-0.7664,-8.0473,-0.3449,-56.6261,-5.1478,2.8522
2865,-1.0346,-8.3155,0.0,-56.2087,-7.9304,2.9217
2870,-1.3795,-8.6221,0.0,-53.7739,-11.2,3.1304
2875,-1.4179,-9.1969,0.2682,-49.1826,-14.2609,3.8957
2880,-1.5328,-9.3885,0.2682,-43.4087,-16.6957,4.8
2885,-1.4945,-9.8483,0.5748,-36.8,-18.8522,5.7043
2890,-1.4562,-10.1166,0.3449,-30.0522,-20.5913,6.887
2895,-1.2646,-10.2315,0.4215,-23.5826,-21.8435,8.0696
2900,-1.1879,-10.2698,0.3066,-17.8783,-22.8174,9.2522
2905,-0.8047,-10.2315,0.1533,-13.5652,-23.6522,10.3652
2910,-0.4982,-9.81,-0.4215,-11.0609,-24.3478,11.2696
2915,-0.2299,-9.4651,-0.7281,-10.9217,-25.2522,11.6174
2920,0.1533,-8.967,-0.958,-12.6609,-26.4348,11.5478
2925,0.3449,-8.5838,-1.2263,-15.4435,-27.8957,11.0609
2930,0.5748,-8.0856,-1.3029,-18.5739,-29.4957,10.2261
2935,0.8814,-7.894,-1.3412,-21.287,-30.4,9.4609
2940,1.0346,-7.5874,-1.3795,-23.3739,-30.2609,8.9739
2945,1.073,-7.5491,-1.3412,-24.9739,-29.287,8.6957
2950,1.073,-7.6641,-1.1879,-26.2261,-27.4087,8.487
2955,1.0346,-8.0473,-0.8814,-27.0609,-25.113,8.0696
2960,0.958,-8.0473,-0.6898,-27.1304,-22.4696,7.513
2965,0.7281,-8.3538,-0.4598,-26.0174,-20.313,7.0957
2970,0.6514,-8.737,-0.2299,-23.3043,-18.9217,6.9565
2975,0.2682,-8.9286,0.0,-19.3391,-18.5043,7.0261
2980,0.0766,-9.1969,0.3066,-14.9565,-18.8522,7.513
2985,0.0,-9.3885,0.2682,-11.1304,-19.687,8.0696
2990,-0.115,-9.3502,0.1533,-8.4174,-20.6609,8.487
2995,-0.0766,-9.5418,0.1533,-6.6783,-21.9826,8.6957
