timestamp,accX,accY,accZ,gyroX,gyroY,gyroZ
0,-10.8063,-0.5365,1.4179,-24.8348,29.0087,24.5565
5,-10.6147,-0.3832,1.3029,-27.2696,26.2957,26.7826
10,-10.4231,-0.1916,1.3029,-29.8435,24.2087,28.8
15,-10.3465,0.0,1.1113,-32.6261,22.6783,30.1217
20,-10.1166,-0.0766,1.073,-36.6609,21.6348,31.0261
25,-9.81,-0.2299,1.1496,-39.8609,20.8696,30.3304
30,-9.5418,-0.115,0.9963,-41.0435,20.8696,28.6609
35,-9.1202,-0.2682,0.8814,-40.3478,22.1217,26.7826
40,-8.852,-0.4215,0.7664,-38.6783,25.4609,24.9043
45,-8.5454,-0.5748,0.4982,-36.4522,30.2609,23.0261
50,-8.3155,-0.7664,0.5365,-34.087,36.1043,20.8696
55,-8.0856,-1.073,0.3066,-32.9739,42.2261,17.9478
60,-7.9323,-1.2646,0.0,-33.113,47.5826,14.3304
65,-7.894,-1.3795,-0.0383,-33.8783,52.4522,10.5043
70,-7.8173,-1.4179,0.0,-35.0609,56.7652,7.1652
75,-7.8173,-1.4945,0.4215,-36.4522,60.4522,4.2435
80,-8.0473,-1.3795,0.5365,-37.6348,63.8609,2.087
85,-8.2772,-1.3795,0.4982,-38.1217,66.9217,0.487
90,-8.3155,-1.3795,0.6514,-38.1217,69.7043,-0.4174
95,-8.737,-1.1496,0.3832,-37.7043,72.6957,-0.7652
100,-9.0053,-1.1496,0.7664,-36.9391,75.687,-0.5565
105,-8.967,-1.1496,0.6514,-36.313,78.4696,0.3478
110,-9.0819,-1.073,0.5748,-35.7565,81.3217,1.8087
115,-9.3118,-0.8814,0.5365,-35.6174,84.1043,2.8522
120,-9.3885,-0.7281,0.5748,-35.7565,86.6087,4.5913
125,-9.3502,-0.6898,0.3066,-35.9652,88.2087,5.9826
130,-9.3885,-0.4982,0.1533,-36.3826,88.8348,6.6087
135,-9.5418,-0.5365,0.0,-37.0783,88.0696,6.3304
140,-9.5801,-0.4982,-0.2299,-37.7739,86.3304,5.0087
145,-9.6184,-0.4982,-0.4598,-38.6783,84.0348,3.3391
150,-9.8866,-0.4598,-0.6514,-39.5826,80.4174,1.8087
155,-9.8483,-0.6514,-0.5748,-40.2783,76.2435,0.8348
160,-9.925,-0.843,-0.6131,-40.4174,71.6522,0.2783
165,-9.9633,-0.9197,-0.7281,-40.1391,66.9913,-0.2087
170,-9.9633,-1.073,-0.7281,-39.1652,62.2609,-0.8348
175,-10.2315,-1.3029,-0.5748,-37.8435,57.6,-1.6696
180,-10.5764,-1.2646,-0.5748,-36.0348,52.7304,-2.3652
185,-10.7297,-1.2646,-0.5748,-33.8783,48.0,-2.7826
190,-10.8063,-1.3795,-0.4598,-31.2348,43.5478,-2.5739
195,-10.9596,-1.2646,-0.1916,-28.7304,39.7217,-2.087
200,-10.9979,-1.2263,0.2299,-26.4348,36.5913,-1.3913
205,-11.0746,-1.3029,0.2299,-24.9739,33.6696,-0.5565
210,-11.1129,-1.2646,0.3449,-23.6522,31.1652,0.5565
215,-11.1512,-1.1113,0.7281,-22.4696,29.0783,1.6696
220,-11.0746,-1.1496,0.8047,-21.3565,27.5478,2.9217
225,-10.9979,-0.9963,1.0346,-20.313,26.713,4.5913
230,-10.8446,-1.0346,0.9197,-19.1304,26.5043,6.3304
235,-10.8446,-0.8047,0.6514,-17.8087,27.4087,7.8609
240,-10.768,-0.7281,0.4598,-16.0696,28.8,8.6261
245,-10.4998,-0.6898,0.115,-14.4,30.7478,9.1826
250,-10.3465,-0.5748,-0.3449,-12.9391,32.8348,9.6696
255,-9.925,-0.5748,-0.5365,-11.6174,34.6435,9.3913
260,-9.695,-0.6514,-0.6898,-10.9217,36.313,8.2783
265,-9.3118,-0.6131,-0.6898,-10.6435,37.2174,6.5391
270,-9.1202,-0.6514,-0.7664,-10.5739,37.6348,4.3826
275,-8.967,-0.7281,-0.6898,-10.3652,37.6348,2.2261
280,-9.1202,-0.7664,-0.4982,-10.2261,37.0087,0.2783
285,-9.1202,-0.9197,-0.5748,-9.6,35.687,-1.3913
290,-9.3885,-0.9197,-0.3832,-8.9043,34.2957,-2.4348
295,-9.6184,-1.1113,-0.1533,-8.1391,32.6261,-2.7826
300,-9.8866,-0.958,-0.1533,-7.2348,31.3739,-2.713
305,-10.0399,-0.9963,-0.1916,-6.4,30.4,-1.8087
310,-10.0399,-0.9197,0.0766,-5.9826,30.0522,-0.2087
315,-10.2698,-0.958,0.4215,-5.3565,30.4696,1.8087
320,-10.2315,-1.1496,0.6131,-4.3826,31.2348,4.0348
325,-10.3465,-1.1496,0.5365,-2.713,32.1391,6.1217
330,-10.4614,-1.1879,0.7281,-0.9739,32.1391,8.2087
335,-10.3465,-1.2263,0.8047,1.0435,30.9565,9.8783
340,-10.3082,-1.1879,0.4982,3.6174,29.0783,11.6174
345,-9.9633,-1.3029,0.7281,6.6087,26.6435,13.3565
350,-9.925,-1.4179,0.6131,10.087,24.0,14.4696
355,-9.7334,-1.4179,0.4598,13.287,21.2174,15.3739
360,-9.9633,-1.6095,0.4598,16.4174,18.087,15.3043
365,-9.8483,-1.4562,0.3832,18.9913,15.0957,15.5826
370,-9.7334,-1.4562,0.3449,20.9391,12.3826,15.5826
375,-9.6184,-1.4945,0.1916,22.4,10.1565,14.8174
380,-9.4268,-1.3412,0.3449,23.513,8.487,13.8435
385,-9.3118,-1.3412,0.3449,24.487,6.887,12.8
390,-8.852,-1.2263,0.4215,25.3913,5.6348,11.4087
395,-9.0436,-1.1879,0.4215,26.4348,4.313,9.7391
400,-9.0436,-1.1879,0.3449,27.4087,3.0609,8.4174
405,-9.2735,-1.1113,0.3066,28.0348,1.6,7.0261
410,-9.4651,-1.073,0.115,28.5913,-0.3478,5.9826
415,-9.2735,-1.2263,0.9197,29.1478,-2.5043,5.4957
420,-9.7334,-0.9197,0.0,29.9826,-4.5217,5.6348
425,-9.5418,-1.0346,-0.2299,30.8174,-6.2609,6.5391
430,-9.7334,-0.843,-0.1533,31.6522,-7.4435,7.513
435,-9.7334,-0.9197,-0.2299,32.1391,-8.1391,9.0435
440,-9.9633,-0.6131,-0.3449,32.3478,-8.487,10.5739
445,-10.1932,-0.6131,-0.2682,32.0696,-8.2783,11.9652
450,-9.7334,-0.4598,-0.2682,31.3739,-7.8609,13.0087
455,-10.3082,-0.3066,-0.2299,30.6087,-7.4435,12.5913
460,-10.653,-0.2682,-0.3832,29.7043,-6.9565,12.2435
465,-10.7297,0.0,-0.3449,28.5913,-6.3304,12.313
470,-10.5381,-0.115,-0.6898,27.3391,-5.2174,12.2435
475,-10.6147,0.1533,-0.6514,25.4609,-3.6174,11.3391
480,-10.883,0.2299,-0.843,23.2348,-1.2522,10.713
485,-10.5764,0.3449,-0.9963,20.8,1.7391,10.2261
490,-10.653,0.4598,-1.0346,17.9478,5.1478,9.8087
495,-10.4998,0.3832,-1.1496,14.9565,8.7652,9.0435
500,-10.2315,0.3066,-1.1879,12.0348,12.5217,8.0696
505,-10.2698,0.3066,-1.3412,9.3217,16.2087,7.1652
510,-10.1166,0.1916,-1.3029,6.9565,19.4087,6.5391
515,-10.1166,0.0766,-1.1113,5.0783,22.4,5.913
520,-10.0016,0.0383,-1.1496,3.687,24.7652,5.5652
525,-10.0782,-0.2299,-0.958,2.3652,26.2957,5.3565
530,-10.1166,-0.4215,-1.073,1.5304,27.2,5.0783
535,-10.1166,-0.3449,-1.1879,1.1826,27.5478,4.6609
540,-10.2698,-0.6514,-1.2263,1.1826,27.4087,4.0348
545,-10.2698,-0.6898,-1.1496,1.3217,27.2696,3.1304
550,-10.4231,-0.7281,-1.5711,1.6696,26.8522,1.9478
555,-10.4614,-0.843,-1.4945,2.2261,26.5043,0.487
560,-10.6147,-0.8814,-1.4945,3.2,26.087,-0.8348
565,-10.8063,-0.843,-1.6861,4.3826,25.5304,-1.8087
570,-10.8446,-0.6898,-2.031,5.3565,24.9739,-2.5739
575,-10.8063,-0.6514,-1.916,5.913,24.3478,-2.7826
580,-10.768,-0.5365,-1.8394,6.3304,23.513,-3.0609
585,-10.6147,-0.6131,-1.8011,6.4,22.5391,-3.3391
590,-10.6914,-0.3066,-1.6861,6.4,21.0087,-3.5478
595,-10.3848,-0.4215,-1.5711,6.0522,19.2696,-3.687
600,-10.3465,-0.0766,-1.6095,5.3565,17.4609,-3.7565
605,-10.3082,-0.115,-1.4179,4.5913,15.6522,-3.7565
610,-10.3082,-0.0766,-1.3795,3.687,14.1217,-3.687
615,-10.0016,-0.0766,-1.4945,2.4348,12.2435,-3.6174
620,-9.925,-0.115,-1.3795,0.9739,10.5043,-3.6174
625,-9.8483,-0.0766,-1.4179,-0.6957,8.6957,-3.687
630,-10.0399,-0.3066,-1.4562,-2.3652,6.887,-3.8261
635,-9.7334,-0.1533,-1.1879,-3.8957,5.287,-4.0348
640,-9.7334,-0.3832,-1.0346,-5.287,3.8957,-4.2435
645,-9.5418,-0.4215,-1.1113,-6.1913,2.5739,-4.5217
650,-9.6567,-0.4598,-1.0346,-6.887,1.2522,-4.5913
655,-9.7334,-0.4598,-1.0346,-7.3043,0.1391,-4.4522
660,-9.7334,-0.6131,-1.073,-7.513,-0.7652,-4.1739
665,-9.81,-0.5365,-0.9197,-7.513,-1.3217,-3.7565
670,-9.8483,-0.4598,-0.958,-7.513,-1.7391,-3.3391
675,-9.8483,-0.5365,-1.1113,-7.3739,-2.1565,-2.7826
680,-9.7717,-0.4598,-1.073,-7.513,-2.2261,-2.0174
685,-9.8483,-0.4982,-1.073,-7.6522,-2.4348,-1.3217
690,-9.8483,-0.3449,-1.1496,-8.0696,-2.713,-0.6957
695,-9.81,-0.3066,-1.1496,-8.487,-2.9913,-0.2087
700,-9.81,-0.3066,-1.1113,-8.9043,-2.7826,0.4174
705,-9.81,-0.2299,-0.9963,-9.3913,-2.3652,0.8348
710,-9.695,-0.3066,-0.843,-9.8783,-1.1826,1.3217
715,-9.81,-0.1533,-0.958,-10.087,0.2087,1.6
720,-9.81,-0.2299,-0.9197,-10.5043,1.6,1.8783
725,-9.7717,-0.3449,-0.843,-10.9913,2.8522,1.9478
730,-9.81,-0.3449,-0.9197,-11.1304,3.8261,2.087
735,-9.7334,-0.3066,-0.9963,-11.0609,4.3826,2.1565
740,-9.7334,-0.5365,-1.073,-10.6435,4.5217,2.087
745,-9.7717,-0.6514,-1.073,-10.087,4.2435,1.9478
750,-9.8483,-0.6131,-1.2263,-9.6696,3.687,1.7391
755,-9.8866,-0.5365,-1.1113,-9.0435,2.9913,1.2522
760,-9.81,-0.6131,-0.9197,-8.487,2.0174,1.0435
765,-9.8483,-0.6898,-0.9963,-8.1391,1.113,0.8348
770,-9.8483,-0.843,-1.0346,-7.7913,0.487,0.3478
775,-9.8483,-0.843,-1.073,-7.5826,-0.0696,0.0
780,-9.8483,-0.7664,-0.8814,-7.513,-0.3478,-0.3478
785,-10.0399,-0.7281,-0.843,-7.4435,-0.4174,-0.6261
790,-9.925,-0.7664,-1.073,-7.3739,-0.2783,-0.9043
795,-10.1932,-0.6898,-0.7281,-7.0261,0.2783,-1.113
800,-10.1549,-0.6131,-0.7664,-6.2609,1.3913,-1.2522
805,-10.1549,-0.6898,-0.7664,-5.3565,2.7826,-1.2522
810,-10.4231,-0.5748,-0.8814,-4.4522,4.1739,-1.1826
815,-10.3848,-0.4598,-0.843,-3.9652,5.4957,-1.2522
820,-10.3082,-0.4598,-0.8814,-3.4783,6.4,-0.9043
825,-10.3465,-0.2682,-0.8814,-3.3391,6.8174,-0.7652
830,-10.0016,-0.3449,-0.8814,-3.3391,7.0261,-0.6957
835,-10.0782,-0.1916,-1.1496,-3.4087,7.0261,-0.5565
840,-10.0016,-0.1533,-0.9963,-3.7565,6.7478,-0.3478
845,-9.695,-0.2682,-0.8047,-4.5217,6.3304,-0.2783
850,-9.81,-0.0766,-1.073,-5.5652,5.4261,-0.3478
855,-9.7334,-0.0766,-1.073,-6.6087,4.3826,-0.4174
860,-9.7334,-0.1916,-1.1113,-7.7913,3.3391,-0.6261
865,-9.6567,-0.3066,-0.9963,-8.9739,2.1565,-0.9739
870,-9.695,-0.4215,-1.0346,-10.2261,0.9739,-1.2522
875,-9.695,-0.3832,-1.073,-11.0609,-0.0696,-1.5304
880,-9.695,-0.4598,-0.8814,-11.4783,-0.9043,-1.8087
885,-9.7334,-0.6514,-0.7664,-11.4087,-1.5304,-2.087
890,-9.6567,-0.7281,-0.7281,-10.9913,-1.4609,-2.2957
895,-9.7717,-0.6898,-0.6898,-10.3652,-1.113,-2.5043
900,-9.81,-0.6898,-0.5748,-9.4609,-0.2087,-2.6435
905,-9.7717,-0.6514,-0.4982,-8.2783,0.7652,-2.713
910,-9.8866,-0.6131,-0.4598,-6.7478,1.8087,-2.5739
915,-10.0399,-0.5365,-0.6131,-4.9391,2.713,-2.3652
920,-10.0016,-0.3066,-0.4215,-2.9913,3.4087,-1.8783
925,-10.0016,-0.3832,-0.6514,-1.113,3.8261,-1.4609
930,-9.925,-0.2682,-0.6898,0.3478,4.2435,-1.0435
935,-10.0016,-0.2299,-0.7664,1.3913,4.7304,-0.6261
940,-9.925,-0.0766,-0.7281,1.7391,5.4261,-0.1391
945,-9.81,-0.1533,-0.7664,1.6696,6.5391,0.2783
950,-9.8483,-0.1533,-0.7664,1.113,7.6522,0.7652
955,-9.8866,-0.5748,-0.6514,0.2783,8.5565,1.1826
960,-9.925,-0.115,-0.7664,-0.6957,8.9739,1.5304
965,-9.925,-0.2682,-0.958,-1.5304,8.8348,1.8087
970,-9.8866,-0.4215,-1.0346,-2.0174,8.3478,1.8783
975,-9.81,-0.5748,-1.1113,-2.087,7.4435,1.8783
980,-9.8483,-0.6514,-0.958,-1.9478,6.3304,1.7391
985,-9.7717,-0.843,-1.1113,-1.6,4.9391,1.4609
990,-9.81,-0.7664,-1.1879,-1.2522,3.4087,1.0435
995,-9.7334,-0.8047,-1.2263,-0.6957,2.0174,0.6261
1000,-9.7717,-0.843,-1.0346,-0.2087,0.7652,0.3478
1005,-9.7334,-0.8814,-0.9197,0.487,-0.2783,0.1391
1010,-9.7717,-0.8047,-1.0346,1.1826,-1.113,0.0696
1015,-9.8483,-0.7664,-1.0346,2.0174,-1.7391,0.1391
1020,-9.925,-0.7281,-0.9197,3.2696,-2.087,0.2087
1025,-9.8483,-0.5748,-0.9197,4.5913,-2.1565,0.487
1030,-10.0399,-0.3832,-0.8047,5.913,-1.8783,0.5565
1035,-10.1166,-0.4215,-0.8047,7.0957,-1.5304,0.5565
1040,-10.0782,-0.1916,-0.8814,7.7217,-0.9739,0.487
1045,-10.0399,-0.1533,-1.073,7.7217,-0.3478,0.5565
1050,-10.0782,-0.0766,-1.1113,7.0957,0.3478,0.5565
1055,-9.925,0.0,-1.1113,5.913,0.9739,0.5565
1060,-10.0399,0.1916,-0.8814,4.2435,1.4609,0.5565
1065,-9.9633,0.0,-0.958,2.4348,2.1565,0.487
1070,-10.0016,-0.0383,-1.0346,0.6261,2.9913,0.2783
1075,-9.8866,-0.115,-0.9963,-1.113,3.7565,0.0696
1080,-9.8483,-0.2299,-0.7664,-2.7826,4.5217,-0.0696
1085,-9.8483,-0.2682,-0.9197,-4.1043,5.0087,-0.2087
1090,-9.7717,-0.3832,-0.7664,-5.0783,5.3565,-0.3478
1095,-9.8483,-0.3066,-0.8047,-5.8435,5.7043,-0.2783
1100,-9.81,-0.4982,-0.843,-6.4,5.7739,-0.2087
1105,-9.7717,-0.6131,-0.6898,-6.8174,5.5652,-0.0696
1110,-9.8483,-0.5365,-0.7664,-7.2348,5.2174,0.1391
1115,-9.925,-0.5365,-0.7281,-7.5826,4.8,0.2087
1120,-9.925,-0.4982,-0.7664,-7.8609,4.313,0.2783
1125,-9.925,-0.6514,-0.6898,-7.9304,3.6174,0.4174
1130,-9.8483,-0.5748,-0.7664,-7.7217,2.7826,0.4174
1135,-9.8866,-0.4598,-0.7281,-7.1652,2.1565,0.487
1140,-9.925,-0.5748,-0.7664,-6.5391,1.6,0.6261
1145,-9.8866,-0.4215,-0.843,-5.7739,1.1826,0.5565
1150,-9.8866,-0.4982,-0.8814,-5.0783,1.1826,0.4174
1155,-9.8483,-0.4598,-0.958,-4.5913,1.2522,0.2783
1160,-9.8483,-0.4598,-0.9197,-4.313,1.3913,0.2783
1165,-9.695,-0.5365,-0.8814,-4.313,1.4609,0.1391
1170,-9.8483,-0.4215,-0.8047,-4.3826,1.5304,0.1391
1175,-9.8483,-0.3832,-1.0346,-4.5217,1.6696,0.1391
1180,-9.8483,-0.4982,-0.8047,-4.7304,1.5304,0.0
1185,-9.7717,-0.4982,-0.958,-4.8696,1.2522,0.1391
1190,-9.8483,-0.5748,-0.8814,-4.8696,1.113,0.2087
1195,-9.7334,-0.5365,-0.7664,-4.9391,0.9739,0.1391
1200,-9.8483,-0.5365,-0.7664,-4.8696,0.9043,0.2087
1205,-9.8483,-0.4982,-0.843,-4.8,0.9043,0.1391
1210,-9.925,-0.4598,-0.7281,-4.8,0.9043,0.0696
1215,-9.8483,-0.4215,-0.8047,-4.7304,1.1826,0.0696
1220,-9.8866,-0.5365,-0.7664,-4.5913,1.5304,0.0696
1225,-9.925,-0.4598,-0.6898,-4.4522,2.087,0.1391
1230,-10.0399,-0.4982,-0.7664,-4.313,2.5043,0.0696
1235,-9.9633,-0.4982,-0.843,-4.1043,2.8522,-0.0696
1240,-9.925,-0.5365,-0.843,-3.8957,3.2696,-0.1391
1245,-9.925,-0.6131,-0.958,-3.8261,3.6174,-0.2783
1250,-9.8483,-0.4598,-0.843,-3.687,3.9652,-0.2783
1255,-9.81,-0.3832,-0.843,-3.6174,3.9652,-0.4174
1260,-9.8866,-0.4215,-0.843,-3.4783,3.9652,-0.487
1265,-9.8483,-0.4598,-0.8814,-3.5478,3.8261,-0.487
1270,-9.7717,-0.4982,-0.8047,-3.4783,3.4087,-0.5565
1275,-9.7717,-0.4215,-0.8814,-3.3391,2.8522,-0.6957
1280,-9.7717,-0.4598,-0.8814,-3.2696,2.2957,-0.8348
1285,-9.7334,-0.4598,-0.8047,-3.2696,1.4609,-0.7652
1290,-9.7334,-0.3449,-0.7664,-3.4087,0.6261,-0.6261
1295,-9.81,-0.4215,-0.6514,-3.6174,-0.2087,-0.487
1300,-9.81,-0.3832,-0.7281,-3.4783,-0.7652,-0.4174
1305,-9.81,-0.4982,-0.7281,-3.3391,-1.1826,-0.3478
1310,-9.695,-0.5748,-0.7664,-3.1304,-1.3913,-0.2783
1315,-9.8483,-0.6514,-0.6898,-2.7826,-1.4609,-0.1391
1320,-9.8483,-0.6131,-0.6898,-2.2261,-1.3217,-0.1391
1325,-9.9633,-0.5748,-0.7664,-1.6696,-0.9739,-0.2087
1330,-9.925,-0.4982,-0.7664,-1.0435,-0.3478,-0.1391
1335,-9.9633,-0.3832,-0.8814,-0.5565,0.2087,0.0
1340,-9.925,-0.4215,-0.8814,-0.1391,0.6957,-0.1391
1345,-9.9633,-0.3449,-0.843,0.1391,1.1826,-0.0696
1350,-9.925,-0.4215,-0.8047,0.1391,1.6696,-0.0696
1355,-9.9633,-0.4215,-0.958,-0.1391,2.087,-0.1391
1360,-9.8866,-0.3832,-0.843,-0.6261,2.5043,-0.0696
1365,-9.8483,-0.3832,-0.7664,-1.3913,2.9913,0.0
1370,-9.925,-0.3066,-0.7664,-2.2261,3.4087,-0.1391
1375,-9.8866,-0.2682,-0.7664,-2.9913,3.9652,-0.0696
1380,-10.1549,-0.3832,-0.8047,-3.687,4.4522,-0.0696
1385,-9.925,-0.4598,-0.6514,-4.2435,4.8,-0.0696
1390,-9.8866,-0.3449,-0.6131,-4.5913,5.287,-0.1391
1395,-9.7717,-0.4598,-0.7281,-4.5913,5.7739,-0.2087
1400,-9.925,-0.5365,-0.6898,-4.3826,6.1913,-0.0696
1405,-9.81,-0.4982,-0.8047,-4.1739,6.4696,-0.2087
1410,-9.81,-0.3832,-0.7664,-3.8261,6.7478,-0.2087
1415,-9.8483,-0.5365,-0.6898,-3.4783,6.8174,-0.1391
1420,-9.8483,-0.5748,-0.7664,-2.9217,6.6783,-0.0696
1425,-9.9633,-0.5365,-0.6514,-2.3652,6.4696,0.0
1430,-9.925,-0.3832,-0.7664,-1.7391,6.3304,-0.0696
1435,-9.8483,-0.4598,-0.7664,-1.3217,6.2609,-0.0696
1440,-9.8866,-0.3066,-0.7281,-1.0435,6.1217,0.0
1445,-9.9633,-0.3066,-0.8814,-0.9043,5.913,-0.1391
1450,-9.8483,-0.3832,-0.8814,-0.8348,5.7739,-0.2087
1455,-9.9633,-0.2682,-0.843,-0.9043,5.7043,-0.2783
1460,-9.925,-0.2299,-0.7281,-0.9739,5.7043,-0.2783
1465,-9.8866,-0.2682,-0.7664,-1.1826,5.7043,-0.2783
1470,-9.8866,-0.3449,-0.7664,-1.4609,5.913,-0.3478
1475,-9.9633,-0.3832,-0.8047,-1.7391,6.3304,-0.3478
1480,-10.0399,-0.2682,-0.7664,-1.8783,6.6783,-0.3478
1485,-9.925,-0.3449,-0.6898,-2.087,6.887,-0.3478
1490,-9.8866,-0.4598,-0.7281,-2.3652,7.0957,-0.2087
1495,-10.0782,-0.3449,-0.7281,-2.5739,7.3043,-0.0696
1500,-9.925,-0.3066,-0.8047,-2.6435,7.513,0.0696
1505,-9.8866,-0.3832,-0.6514,-2.8522,7.7217,0.2087
1510,-10.0016,-0.3066,-0.7281,-3.2,7.6522,0.2783
1515,-9.8483,-0.5365,-0.6131,-3.2,7.5826,0.3478
1520,-9.8483,-0.4598,-0.8047,-3.2696,7.4435,0.3478
1525,-9.925,-0.4215,-0.843,-3.1304,7.0957,0.3478
1530,-9.8483,-0.4982,-0.9963,-3.0609,6.8174,0.3478
1535,-9.925,-0.4215,-0.7664,-2.713,6.4696,0.3478
1540,-9.8866,-0.4598,-0.843,-2.3652,6.0522,0.2783
1545,-9.81,-0.4215,-0.8047,-2.0174,5.6348,0.1391
1550,-9.7717,-0.5748,-0.843,-1.7391,5.287,0.0696
1555,-9.8483,-0.3832,-0.8047,-1.4609,4.9391,0.0
1560,-9.81,-0.4215,-0.8047,-1.3913,4.4522,0.0
1565,-9.81,-0.3449,-0.8047,-1.2522,3.9652,-0.0696
1570,-9.7334,-0.3832,-0.8814,-1.3217,3.5478,-0.1391
1575,-9.8866,-0.4215,-0.843,-1.3913,3.1304,-0.0696
1580,-9.81,-0.3449,-0.7664,-1.3217,2.6435,-0.1391
1585,-9.8483,-0.3832,-0.8047,-1.3217,2.2261,-0.0696
1590,-9.81,-0.3449,-0.7664,-1.3217,2.087,0.0
1595,-10.0399,-0.3066,-0.8814,-1.4609,2.087,0.0
1600,-9.8483,-0.3832,-0.7664,-1.6696,2.2957,0.0
1605,-9.8866,-0.3066,-0.843,-1.8783,2.5043,-0.0696
1610,-9.925,-0.3066,-0.7664,-2.0174,2.6435,0.0696
1615,-9.925,-0.4598,-0.7281,-2.087,2.9217,0.0
1620,-9.9633,-0.4982,-0.7664,-2.0174,3.2,0.1391
1625,-9.81,-0.3449,-0.8047,-1.8087,3.4087,-0.0696
1630,-9.9633,-0.4215,-0.8047,-1.6,3.687,0.0696
1635,-9.8866,-0.3832,-0.7664,-1.3217,3.7565,0.0
1640,-9.8866,-0.4598,-0.7664,-0.9739,3.687,0.0
1645,-9.925,-0.4215,-0.7664,-0.7652,3.8261,0.0
1650,-9.8866,-0.4215,-0.8814,-0.5565,3.687,-0.0696
1655,-9.8483,-0.5365,-0.8814,-0.4174,3.687,-0.0696
1660,-9.8866,-0.4982,-0.843,-0.2783,3.7565,-0.1391
1665,-9.8483,-0.4598,-0.8814,-0.2783,3.8261,-0.2087
1670,-9.8483,-0.4215,-0.9197,-0.3478,4.0348,-0.2783
1675,-9.8866,-0.4598,-0.7664,-0.3478,4.313,-0.2087
1680,-9.9633,-0.3066,-0.7281,-0.2783,4.6609,-0.2087
1685,-9.925,-0.3832,-0.7664,-0.1391,4.8696,-0.2087
1690,-9.8866,-0.4215,-0.8047,0.0,5.0783,-0.1391
1695,-9.8866,-0.3832,-0.7664,0.2087,5.287,-0.2783
1700,-10.0782,-0.4598,-0.8047,0.3478,5.2174,-0.2783
1705,-9.81,-0.3449,-0.8047,0.487,5.287,-0.2783
1710,-9.81,-0.4215,-0.843,0.6957,5.0087,-0.2783
1715,-9.8483,-0.4982,-0.843,0.7652,4.8696,-0.2087
1720,-9.8866,-0.3832,-0.7281,0.9043,4.5913,-0.1391
1725,-9.81,-0.4982,-0.7664,0.9739,4.313,-0.1391
1730,-9.8483,-0.4215,-0.7664,0.9739,3.7565,-0.1391
1735,-9.8866,-0.3449,-0.8047,0.9739,3.2696,-0.1391
1740,-9.8866,-0.4215,-0.7664,0.9043,2.9913,-0.1391
1745,-9.8866,-0.4982,-0.843,0.7652,2.7826,-0.1391
1750,-9.8866,-0.4215,-0.7664,0.6261,2.3652,-0.1391
1755,-9.925,-0.4215,-0.7664,0.5565,2.4348,-0.2087
1760,-9.9633,-0.4215,-0.7664,0.5565,2.2957,-0.1391
1765,-9.7334,-0.3832,-0.843,0.487,2.2957,-0.2087
1770,-9.8866,-0.3832,-0.958,0.487,2.5043,-0.1391
1775,-9.8866,-0.4982,-0.7281,0.5565,2.713,-0.2087
1780,-9.925,-0.5365,-0.8814,0.5565,2.7826,-0.2087
1785,-9.8483,-0.4598,-0.843,0.487,2.9217,0.0
1790,-9.8866,-0.4215,-0.8047,0.3478,3.2,-0.0696
1795,-9.81,-0.4215,-0.7281,0.2087,3.4087,-0.0696
1800,-9.81,-0.4215,-0.8047,0.1391,3.4087,-0.0696
1805,-9.8866,-0.4215,-0.843,0.0696,3.4087,0.0
1810,-10.0399,-0.4982,-0.9197,0.0,3.2696,0.0696
1815,-9.8866,-0.4215,-0.6131,-0.0696,3.0609,0.0696
1820,-9.81,-0.2682,-0.6131,-0.0696,2.713,0.0696
1825,-9.81,-0.3449,-0.6898,-0.3478,2.3652,0.0
1830,-9.7717,-0.3066,-0.5748,-0.9043,1.9478,0.0
1835,-9.8483,-0.3449,-0.5365,-1.4609,1.4609,-0.0696
1840,-9.8483,-0.3449,-0.4598,-2.1565,0.9043,-0.2087
1845,-9.8483,-0.3832,-0.4215,-2.5739,0.487,-0.2087
1850,-10.0399,-0.4215,-0.5748,-2.7826,0.3478,-0.4174
1855,-9.9633,-0.3449,-0.4982,-2.7826,0.4174,-0.7652
1860,-10.0399,-0.3832,-0.4982,-2.6435,0.9043,-0.9739
1865,-10.0399,-0.4215,-0.5365,-2.1565,1.6696,-1.3913
1870,-10.1166,-0.4598,-0.6514,-1.6,2.5043,-1.9478
1875,-10.0399,-0.5748,-0.7664,-0.6957,3.4087,-2.713
1880,-10.0399,-0.5748,-0.6898,0.0696,4.2435,-3.2
1885,-10.1166,-0.6898,-0.8814,0.7652,5.1478,-3.5478
1890,-10.0782,-0.4598,-0.9197,1.3913,5.913,-3.6174
1895,-10.1166,-0.4982,-1.0346,1.7391,6.3304,-3.4783
1900,-10.1166,-0.3832,-1.2263,2.0174,6.4696,-3.2
1905,-10.0016,-0.4215,-0.9963,1.8783,6.6087,-2.713
1910,-9.925,-0.3832,-1.1496,1.8087,6.2609,-2.1565
1915,-9.8483,-0.4982,-0.8047,1.6,5.8435,-1.7391
1920,-9.81,-0.3832,-1.1879,1.2522,5.4261,-1.3913
1925,-9.7717,-0.3449,-0.843,0.7652,5.0087,-1.1826
1930,-9.8483,-0.3449,-0.843,0.4174,4.7304,-0.8348
1935,-9.8483,-0.3832,-0.7664,0.0696,4.4522,-0.5565
1940,-9.81,-0.1916,-0.7664,-0.1391,4.1739,-0.5565
1945,-9.81,-0.4215,-0.7664,-0.3478,4.0348,-0.4174
1950,-9.8483,-0.3832,-0.6898,-0.2783,3.9652,-0.3478
1955,-9.81,-0.3449,-0.6514,-0.2087,3.9652,-0.3478
1960,-9.81,-0.4982,-0.6898,0.0696,3.9652,-0.4174
1965,-9.7717,-0.5365,-0.6131,0.3478,4.1043,-0.487
1970,-9.7717,-0.4598,-0.6131,0.487,4.313,-0.5565
1975,-9.7717,-0.5748,-0.5748,0.4174,4.4522,-0.6261
1980,-9.81,-0.4215,-0.5748,0.487,4.7304,-0.6261
1985,-9.7717,-0.4982,-0.5365,0.4174,5.0087,-0.6957
1990,-9.81,-0.4598,-0.6131,0.4174,5.0783,-0.6957
1995,-9.925,-0.3449,-0.5748,0.5565,5.0783,-0.5565
2000,-9.8866,-0.5365,-0.6898,0.6261,5.2174,-0.5565
2005,-9.8483,-0.5748,-0.7281,1.113,5.3565,-0.3478
2010,-9.9633,-0.4982,-0.7664,1.6696,5.3565,-0.2087
2015,-9.8866,-0.3832,-0.7281,2.2261,5.3565,-0.0696
2020,-10.0016,-0.3832,-0.4598,2.7826,5.287,0.1391
2025,-9.8866,-0.5365,-0.7281,3.0609,5.0783,0.2087
2030,-9.8866,-0.3449,-0.9197,3.1304,4.8696,0.2087
2035,-9.8866,-0.4215,-0.8047,2.8522,4.6609,0.3478
2040,-9.925,-0.4215,-0.843,2.2261,4.3826,0.487
2045,-9.8483,-0.5365,-0.7664,1.6,3.9652,0.4174
2050,-9.8483,-0.4598,-0.7664,1.3217,3.687,0.3478
2055,-9.8866,-0.4598,-0.8814,1.113,3.3391,0.3478
2060,-9.8483,-0.4598,-0.7664,1.2522,2.9913,0.2087
2065,-9.7717,-0.3832,-0.7281,1.5304,2.9913,0.2087
2070,-9.8866,-0.3832,-0.7664,1.6696,2.9913,0.0
2075,-9.8866,-0.4215,-0.6514,1.8087,2.8522,-0.0696
2080,-9.925,-0.4982,-0.7664,1.8087,2.8522,-0.0696
2085,-9.925,-0.3449,-0.7281,1.8087,2.713,-0.1391
2090,-10.0782,-0.4598,-0.7281,1.8087,2.8522,-0.2087
2095,-9.925,-0.4982,-0.7281,2.087,2.9913,-0.2783
2100,-9.8866,-0.6131,-0.7281,2.3652,3.0609,-0.4174
2105,-9.925,-0.4982,-0.7664,2.5043,3.3391,-0.4174
2110,-9.9633,-0.5365,-0.7281,2.7826,3.5478,-0.4174
2115,-9.9633,-0.5748,-0.7281,3.0609,3.7565,-0.4174
2120,-9.8866,-0.6131,-0.7281,3.1304,4.1043,-0.4174
2125,-9.81,-0.5748,-0.7664,2.9913,4.3826,-0.4174
2130,-9.8866,-0.6514,-0.4598,2.8522,4.6609,-0.3478
2135,-9.8483,-0.5748,-0.7281,2.713,4.8,-0.2783
2140,-9.8483,-0.5365,-0.8047,2.8522,4.9391,-0.1391
2145,-9.81,-0.5748,-0.843,3.0609,5.0783,0.0696
2150,-9.81,-0.6131,-0.7281,3.3391,5.0783,0.1391
2155,-9.81,-0.4598,-0.7664,3.6174,5.0783,0.3478
2160,-9.81,-0.5365,-0.7664,3.6174,5.0783,0.3478
2165,-9.81,-0.4982,-0.8047,3.7565,4.9391,0.5565
2170,-9.8483,-0.4598,-0.7664,3.687,4.8696,0.5565
2175,-9.8483,-0.4982,-0.843,3.4783,4.5217,0.5565
2180,-9.8866,-0.3832,-0.7281,3.1304,4.2435,0.5565
2185,-9.7717,-0.3832,-0.7281,2.6435,3.8261,0.487
2190,-9.8483,-0.4982,-0.7281,2.2957,3.4783,0.5565
2195,-9.81,-0.3832,-0.6898,1.9478,3.1304,0.6261
2200,-9.925,-0.4215,-0.6898,1.8087,2.9217,0.5565
2205,-9.8866,-0.5748,-0.7281,1.9478,2.8522,0.5565
2210,-9.81,-0.6131,-0.6898,1.9478,2.713,0.487
2215,-9.81,-0.6131,-0.7281,2.0174,2.713,0.4174
2220,-9.81,-0.4982,-0.7281,2.3652,2.6435,0.487
2225,-9.9633,-0.4982,-0.6514,2.713,2.713,0.4174
2230,-9.925,-0.5748,-0.4215,2.9217,2.8522,0.3478
2235,-9.9633,-0.4215,-0.6514,3.1304,3.0609,0.487
2240,-9.8483,-0.4598,-0.6898,3.2696,3.2,0.4174
2245,-9.8866,-0.4215,-0.6514,3.1304,3.3391,0.4174
2250,-9.925,-0.4598,-0.7281,2.8522,3.4087,0.4174
2255,-10.0016,-0.3449,-0.7281,2.5739,3.4783,0.4174
2260,-9.925,-0.3832,-0.7281,2.3652,3.4087,0.487
2265,-9.81,-0.3832,-0.7281,2.087,3.4783,0.2783
2270,-9.925,-0.3449,-0.7664,2.0174,3.5478,0.2087
2275,-9.9633,-0.3449,-0.6131,2.0174,3.4783,0.1391
2280,-9.9633,-0.3832,-0.9197,2.0174,3.5478,0.0
2285,-9.925,-0.3449,-0.8814,2.087,3.5478,-0.1391
2290,-10.0016,-0.3066,-0.8047,2.2261,3.4087,-0.2087
2295,-9.925,-0.4598,-0.7664,2.2957,3.4087,-0.3478
2300,-10.0016,-0.4982,-0.7281,2.2957,3.4087,-0.3478
2305,-9.9633,-0.4982,-0.6131,2.3652,3.4087,-0.4174
2310,-9.9633,-0.3832,-0.7664,2.3652,3.2,-0.487
2315,-9.8866,-0.3449,-0.7664,2.3652,3.1304,-0.5565
2320,-9.8483,-0.4598,-0.7664,2.3652,3.1304,-0.6261
2325,-9.8866,-0.4598,-0.6131,2.2957,3.1304,-0.5565
2330,-9.8483,-0.3449,-0.7281,2.2261,3.0609,-0.6261
2335,-10.0016,-0.3449,-0.6514,2.0174,2.9913,-0.5565
2340,-9.8866,-0.1533,-0.3066,1.8783,2.8522,-0.4174
2345,-9.925,-0.3066,-0.5748,1.6696,2.8522,-0.2783
2350,-9.81,-0.3832,-0.6514,1.5304,2.7826,-0.3478
2355,-9.81,-0.3832,-0.6514,1.2522,2.7826,-0.1391
2360,-9.9633,-0.2682,-0.5748,1.113,2.8522,-0.0696
2365,-9.8866,-0.3832,-0.5365,0.9739,2.7826,0.0
2370,-9.8483,-0.3832,-0.5748,0.9043,2.9913,-0.0696
2375,-9.8483,-0.3832,-0.6131,0.7652,2.9913,-0.0696
2380,-9.8483,-0.3449,-0.6131,0.8348,2.9217,-0.1391
2385,-9.8866,-0.5748,-0.6898,1.1826,2.8522,-0.2087
2390,-9.8483,-0.4598,-0.6514,1.3913,2.713,-0.4174
2395,-9.8866,-0.4982,-0.6131,1.6,2.5739,-0.4174
2400,-9.8483,-0.4215,-0.6898,1.6696,2.4348,-0.6957
2405,-9.925,-0.4215,-0.7281,1.6696,2.2957,-0.8348
2410,-9.925,-0.3832,-0.7281,1.6696,2.087,-0.7652
2415,-9.8866,-0.4982,-0.6514,1.6696,1.9478,-0.8348
2420,-10.0016,-0.5365,-0.6131,1.5304,1.9478,-0.7652
2425,-9.9633,-0.4982,-0.6514,1.3913,1.8087,-0.8348
2430,-9.8483,-0.4982,-0.6514,1.1826,1.8087,-0.7652
2435,-9.8483,-0.4598,-0.7281,0.9739,1.7391,-0.6261
2440,-9.81,-0.4982,-0.6131,0.6261,1.6,-0.487
2445,-9.925,-0.4598,-0.7664,0.3478,1.6,-0.4174
2450,-9.925,-0.5365,-0.3832,0.1391,1.6696,-0.2087
2455,-9.7717,-0.5748,-0.5748,0.0,1.7391,0.1391
2460,-9.81,-0.5365,-0.4982,-0.0696,1.7391,0.2087
2465,-9.8483,-0.4982,-0.6514,-0.0696,1.9478,0.2087
2470,-9.81,-0.4982,-0.6898,0.0696,1.8783,0.2783
2475,-9.695,-0.5365,-0.4598,0.2783,2.0174,0.1391
2480,-9.925,-0.4215,-0.4982,0.487,2.2261,0.1391
2485,-9.8483,-0.4982,-0.4215,0.8348,2.2957,0.1391
2490,-9.8866,-0.4598,-0.5365,1.1826,2.5739,0.2087
2495,-9.8866,-0.4982,-0.5748,1.4609,2.8522,0.0696
2500,-9.8483,-0.4598,-0.6514,1.7391,3.2,0.1391
2505,-9.925,-0.4598,-0.5748,1.8783,3.4783,0.1391
2510,-9.81,-0.4982,-0.6131,1.9478,3.7565,0.0
2515,-9.8866,-0.4215,-0.6514,1.9478,3.8957,0.0
2520,-9.8483,-0.3832,-0.6514,1.7391,4.1739,0.0696
2525,-9.8483,-0.3832,-0.4982,1.5304,4.313,0.0696
2530,-9.8483,-0.3832,-0.6514,1.1826,4.5913,-0.0696
2535,-9.81,-0.5365,-0.5748,0.8348,4.8,-0.1391
2540,-9.8866,-0.4598,-0.6131,0.487,5.0783,-0.0696
2545,-9.9633,-0.4215,-0.6131,0.3478,5.287,-0.2783
2550,-9.8483,-0.4215,-0.5365,0.1391,5.2174,-0.3478
2555,-9.81,-0.4598,-0.6514,0.1391,5.3565,-0.4174
2560,-9.9633,-0.3832,-0.7281,0.1391,5.3565,-0.5565
2565,-9.9633,-0.4598,-0.6131,0.0696,5.287,-0.487
2570,-9.8483,-0.3449,-0.5365,0.1391,5.2174,-0.5565
2575,-10.0016,-0.4215,-0.7281,0.1391,5.0087,-0.5565
2580,-9.8866,-0.4598,-0.7281,0.0,4.8,-0.6261
2585,-9.8483,-0.4598,-0.6898,-0.1391,4.5217,-0.6261
2590,-9.925,-0.4982,-0.6514,-0.3478,4.2435,-0.6261
2595,-9.9633,-0.4982,-0.7664,-0.4174,4.0348,-0.5565
2600,-9.9633,-0.4598,-0.6898,-0.4174,3.5478,-0.6261
2605,-9.8866,-0.4215,-0.6898,-0.5565,3.3391,-0.5565
2610,-9.8483,-0.4598,-0.7664,-0.5565,3.0609,-0.487
2615,-9.8866,-0.3832,-0.7281,-0.5565,2.8522,-0.4174
2620,-9.81,-0.4598,-0.6898,-0.6261,2.6435,-0.3478
2625,-9.8483,-0.3832,-0.6131,-0.7652,2.6435,-0.2783
2630,-9.8483,-0.3449,-0.5365,-1.0435,2.713,-0.3478
2635,-9.8866,-0.2299,-0.4982,-1.1826,2.9217,-0.3478
2640,-9.9633,-0.2682,-0.4598,-1.2522,3.1304,-0.4174
2645,-9.8866,-0.3066,-0.3449,-1.4609,3.5478,-0.3478
2650,-9.8866,-0.4982,-0.3832,-1.6696,3.8957,-0.4174
2655,-9.8483,-0.4982,-0.6514,-1.8783,4.1739,-0.4174
2660,-9.695,-0.3066,-0.4215,-1.9478,4.5913,-0.3478
2665,-9.925,-0.4982,-0.5748,-1.8783,4.8696,-0.2783
2670,-9.9633,-0.4215,-0.5748,-1.8087,5.0783,-0.2783
2675,-9.8866,-0.4982,-0.5748,-1.5304,5.0783,-0.2783
2680,-9.8866,-0.4982,-0.5748,-1.3913,5.1478,-0.3478
2685,-9.9633,-0.4598,-0.6514,-1.2522,5.0783,-0.2783
2690,-9.8483,-0.4215,-0.6131,-1.0435,4.8696,-0.3478
2695,-9.925,-0.4598,-0.6131,-1.0435,4.6609,-0.2783
2700,-9.925,-0.4215,-0.6131,-0.9739,4.4522,-0.2783
2705,-9.9633,-0.4215,-0.6514,-0.9739,4.1739,-0.2783
2710,-9.8866,-0.4215,-0.6898,-0.9739,3.7565,-0.2783
2715,-9.81,-0.4982,-0.6514,-1.113,3.5478,-0.4174
2720,-9.8866,-0.4598,-0.5748,-1.1826,3.2,-0.487
2725,-9.925,-0.4215,-0.5365,-1.3217,3.1304,-0.487
2730,-9.8866,-0.4215,-0.6131,-1.4609,2.9913,-0.4174
2735,-9.8483,-0.5748,-0.5748,-1.4609,3.0609,-0.3478
2740,-9.81,-0.6131,-0.4982,-1.3913,3.2,-0.3478
2745,-10.0016,-0.4982,-0.5365,-1.113,3.3391,-0.2783
2750,-9.8483,-0.5748,-0.4215,-0.7652,3.5478,-0.1391
2755,-9.8483,-0.4215,-0.4598,-0.3478,3.8261,-0.1391
2760,-9.81,-0.6131,-0.4598,0.2087,4.1739,-0.0696
2765,-10.0016,-0.4598,-0.4215,0.6957,4.6609,-0.2087
2770,-10.0782,-0.7664,-0.4982,1.1826,4.8696,-0.2783
2775,-9.925,-0.4598,-0.5365,1.6,5.287,-0.4174
2780,-9.8866,-0.4982,-0.5748,1.9478,5.7043,-0.4174
2785,-9.9633,-0.2682,-0.7281,2.087,5.913,-0.5565
2790,-9.925,-0.4215,-0.4982,2.0174,6.1913,-0.5565
2795,-9.8483,-0.3449,-0.6514,1.6696,6.3304,-0.5565
2800,-9.925,-0.3066,-0.7664,1.113,6.2609,-0.6261
2805,-9.925,-0.4598,-0.4982,0.487,6.2609,-0.6957
2810,-9.8483,-0.3066,-0.843,-0.0696,5.9826,-0.6957
2815,-9.925,-0.3449,-0.6898,-0.6261,5.6348,-0.7652
2820,-9.925,-0.3449,-0.6898,-1.113,5.2174,-0.8348
2825,-9.81,-0.4982,-0.6514,-1.3913,5.0087,-0.7652
2830,-9.7717,-0.4598,-0.6131,-1.5304,4.7304,-0.6957
2835,-9.81,-0.4598,-0.6131,-1.4609,4.5217,-0.6261
2840,-9.8483,-0.5365,-0.5748,-1.2522,4.3826,-0.487
2845,-9.8483,-0.4598,-0.5748,-0.9043,4.4522,-0.4174
2850,-9.81,-0.5748,-0.4598,-0.5565,4.3826,-0.3478
2855,-9.8866,-0.4982,-0.4982,-0.1391,4.313,-0.3478
2860,-9.8866,-0.4598,-0.6514,0.0,4.2435,-0.4174
2865,-9.81,-0.5748,-0.4598,0.1391,4.1739,-0.3478
2870,-9.8866,-0.5365,-0.4982,0.0,4.1043,-0.4174
2875,-10.0016,-0.4598,-0.8814,-0.1391,3.9652,-0.487
2880,-9.8866,-0.4598,-0.5748,-0.2783,3.7565,-0.487
2885,-9.8483,-0.4982,-0.5748,-0.2783,3.687,-0.6261
2890,-9.8866,-0.4598,-0.5365,-0.4174,3.5478,-0.7652
2895,-9.7717,-0.4982,-0.6898,-0.3478,3.2696,-0.9739
2900,-9.8483,-0.4982,-0.6514,-0.2783,2.9913,-1.0435
2905,-9.8483,-0.4215,-0.6514,-0.2087,2.8522,-1.1826
2910,-9.8483,-0.5365,-0.4598,-0.1391,2.5043,-1.3217
2915,-10.0399,-0.5365,-0.6131,-0.0696,2.2261,-1.2522
2920,-10.0016,-0.3832,-0.6514,0.0,1.9478,-1.3913
2925,-10.0399,-0.4982,-0.5748,0.2087,1.6,-1.3217
2930,-9.925,-0.3449,-0.6514,0.3478,1.113,-1.3913
2935,-10.0399,-0.4598,-0.7281,0.5565,0.5565,-1.5304
2940,-9.8866,-0.6131,-0.6898,0.6261,0.0,-1.7391
2945,-9.925,-0.5748,-0.7664,0.6957,-0.487,-1.9478
2950,-10.1549,-0.5748,-0.6898,0.8348,-0.9739,-2.2261
2955,-10.1166,-0.4982,-0.7281,0.8348,-1.6,-2.5043
2960,-10.1549,-0.4598,-0.7281,0.8348,-2.2957,-2.7826
2965,-10.0399,-0.5748,-0.7664,0.9043,-2.9913,-3.2
2970,-10.0016,-0.6514,-0.6898,0.9043,-3.6174,-3.4783
2975,-10.0399,-0.6898,-0.6514,1.0435,-4.1043,-3.7565
2980,-9.7717,-0.6131,-0.6898,0.9043,-4.6609,-4.1043
2985,-9.9633,-0.6514,-0.6898,0.6957,-5.287,-4.3826
2990,-10.1549,-0.5748,-0.7281,0.6261,-5.7739,-4.6609
2995,-10.1166,-0.5365,-0.6514,0.5565,-6.4696,-5.0087
