timestamp,accX,accY,accZ,gyroX,gyroY,gyroZ
0,1.2263,-7.8173,10.3465,84.7304,15.1652,-8.5565
5,1.1879,-8.1622,11.8027,81.9478,15.3043,-7.7913
10,1.0346,-8.5071,12.9139,82.1565,15.6522,-6.8174
15,1.073,-8.737,12.9523,85.1478,16.2087,-5.6348
20,0.6898,-7.9706,13.7953,87.7913,16.2783,-5.7043
25,1.3795,-8.5454,14.7916,90.2957,16.0696,-5.7739
30,2.4142,-9.5801,14.6767,91.9652,16.4174,-6.6783
35,2.874,-9.8866,15.0982,90.713,20.313,-11.8957
40,2.3759,-9.8483,13.5271,84.7304,27.0609,-17.3217
45,2.8357,-9.3118,13.9869,72.9043,36.3826,-23.8609
50,2.9507,-9.3502,12.4541,62.4,44.1043,-30.3304
55,2.6441,-8.852,12.4158,55.8609,49.6696,-37.7739
60,2.7974,-8.5454,12.9523,55.5826,52.1739,-43.0609
65,2.0693,-8.1622,10.6914,62.6783,52.313,-47.4435
70,1.9927,-7.3958,9.9633,69.0783,53.3565,-48.2087
75,2.3375,-6.8977,8.9286,76.5913,53.7739,-47.7217
80,1.916,-6.0163,8.0473,81.4609,53.3565,-47.1652
85,1.8777,-5.02,7.3192,83.4783,51.1304,-47.1652
90,1.2263,-3.8704,6.2845,82.5043,47.3739,-46.6783
95,1.6861,-2.9123,5.7864,76.2435,40.7652,-45.1478
100,1.4945,-2.2226,5.02,67.6174,34.087,-43.0609
105,1.3029,-1.4945,4.8667,55.7217,26.3652,-40.0
110,1.4179,-1.3412,4.6751,42.1565,17.6696,-36.6609
115,1.1879,-1.4562,4.6751,27.7565,9.3913,-33.8087
120,1.2263,-1.9543,4.79,15.0261,1.8783,-30.4696
125,1.2646,-2.5675,5.0583,5.8435,-3.9652,-27.6174
130,1.3795,-3.3339,5.2882,1.0435,-7.1652,-25.1826
135,0.7664,-3.7937,5.4415,0.2087,-7.8609,-23.513
140,0.8814,-4.062,5.748,2.0174,-6.6087,-21.913
145,0.4982,-4.1769,5.9013,5.287,-4.0348,-21.5652
150,0.5748,-4.3302,5.9013,10.087,-0.1391,-21.6348
155,0.2682,-3.9087,6.4761,14.3304,3.5478,-22.4
160,0.3832,-3.7554,6.821,17.5304,7.9304,-22.8174
165,0.1533,-3.0656,7.2425,20.3826,11.8957,-24.0696
170,-0.0383,-2.5291,7.5108,23.0261,16.2783,-24.5565
175,0.0,-2.031,7.9706,25.6,20.4522,-24.5565
180,0.115,-1.6861,8.2772,28.8696,24.2087,-24.0
185,0.0383,-1.2263,8.5071,32.1391,27.2,-23.7913
190,0.0,-0.958,8.8137,35.2,29.4957,-23.7217
195,0.0,-0.5748,9.1969,38.6087,30.8174,-23.7217
200,-0.0383,-0.3449,9.2735,42.9217,31.5826,-22.6783
205,0.2299,-0.3832,9.1202,47.0261,32.0696,-21.3565
210,0.2682,-0.2682,9.0053,50.7826,32.3478,-20.4522
215,0.2682,-0.0383,9.0053,52.6609,32.4174,-19.8261
220,0.2682,0.0383,9.0436,53.913,32.1391,-19.3391
225,0.3832,-0.0383,9.0436,55.2348,31.3739,-18.713
230,0.6514,-0.4215,9.0053,56.4174,30.4696,-18.713
235,0.7664,-0.5365,9.0053,56.9739,29.6348,-19.4087
240,0.843,-0.843,8.8903,56.6957,29.0783,-20.4522
245,1.1113,-1.1879,8.7754,54.8174,28.8696,-21.4957
250,1.3412,-1.6478,8.6221,51.1304,29.287,-22.6783
255,1.1879,-1.6478,8.6987,45.913,29.8435,-23.7913
260,1.5328,-1.9927,8.5454,39.0957,30.3304,-24.8348
265,1.3412,-2.2992,8.5838,30.0522,30.6783,-25.1826
270,1.1496,-2.4908,8.5838,22.7478,30.1217,-24.9739
275,1.1113,-2.7207,8.5071,16.1391,29.0087,-23.9304
280,1.073,-2.9123,8.5838,10.3652,27.4087,-22.6783
285,0.8814,-2.9507,8.4688,5.5652,25.4609,-21.4261
290,0.6131,-2.9507,8.4305,2.087,23.513,-19.6174
295,0.6131,-3.0273,8.2772,-0.2783,21.8435,-17.113
300,0.4982,-3.0273,8.2005,-2.0174,19.8261,-14.4696
305,0.4598,-3.0656,7.9323,-3.6174,17.6,-11.687
310,0.4598,-2.8357,7.9323,-5.287,15.3739,-9.1826
315,0.2299,-2.6824,7.7024,-7.1652,13.2174,-6.9565
320,0.0766,-2.3759,7.5491,-8.9043,11.2696,-5.0087
325,0.0766,-2.2609,7.5108,-10.0174,10.4348,-2.5739
330,0.0383,-2.1076,7.5108,-10.5739,10.0174,-0.6957
335,0.0383,-1.916,7.6257,-10.9217,9.4609,0.9739
340,0.0766,-1.8011,7.6641,-11.2696,8.9043,1.6
345,0.0766,-1.6861,7.7407,-11.5478,8.2087,1.8783
350,0.115,-1.7627,7.6641,-11.4783,7.7217,1.8087
355,0.0,-1.5711,7.8557,-11.3391,7.0957,1.4609
360,-0.0383,-1.4562,8.0089,-10.1565,6.887,1.4609
365,-0.0383,-1.6861,8.2389,-8.487,6.6783,1.9478
370,0.0,-1.5328,8.2389,-6.887,6.6783,2.2957
375,0.0,-1.6095,8.3538,-5.1478,6.7478,2.7826
380,0.0383,-1.8394,8.1239,-3.1304,6.8174,2.8522
385,0.0,-1.8011,8.0089,-1.7391,6.9565,3.0609
390,0.0383,-1.7244,8.0089,-0.8348,7.1652,3.2696
395,0.0,-1.9927,8.0473,-0.1391,7.5826,4.1043
400,0.1916,-2.0693,7.894,0.1391,7.9304,4.6609
405,0.1533,-2.2226,8.0473,0.0,8.2783,5.4261
410,0.2682,-2.3759,8.2005,-0.2783,8.6261,5.8435
415,0.3449,-2.5291,8.1239,-0.8348,8.9043,6.4696
420,0.2682,-2.5675,8.2772,-1.3913,9.0435,6.887
425,0.3832,-2.6441,8.2389,-1.9478,9.1826,7.3043
430,0.2682,-2.7591,8.5454,-2.4348,9.113,7.2348
435,0.3832,-2.9507,8.5838,-2.2957,8.9739,7.6522
440,0.3449,-3.1039,8.737,-1.6,8.7652,7.7913
445,0.3832,-3.2189,8.967,-0.0696,8.6261,8.0696
450,0.2299,-3.3339,8.967,2.2261,8.487,7.7217
455,0.5365,-3.2189,9.0436,4.9391,8.6957,7.6522
460,0.4982,-3.1806,8.967,7.7217,8.9043,7.0261
465,0.3449,-3.1423,8.8137,10.3652,9.6,6.887
470,0.4982,-3.0273,8.852,12.8,10.3652,6.4
475,0.6514,-2.9123,8.967,15.0261,11.4087,6.4
480,0.4598,-2.6824,8.737,16.9043,12.313,5.9826
485,0.3449,-2.7207,8.6987,18.5739,13.1478,6.1217
490,0.1916,-2.4908,8.4305,19.9652,13.6348,5.8435
495,0.1533,-2.4908,8.5454,20.6609,13.4957,5.913
500,0.1533,-2.4142,8.5454,21.0087,13.1478,5.6348
505,0.115,-2.4142,8.3155,21.0087,12.5217,5.913
510,0.0383,-2.3759,8.1622,20.7304,11.4783,5.9826
515,0.0,-2.2609,7.9706,19.8261,10.5739,6.4696
520,0.0383,-2.4525,7.779,18.2261,9.4609,6.8174
525,0.0,-2.2609,7.8173,16.2087,8.2087,7.2348
530,0.0383,-2.3759,7.8557,13.8435,7.0957,7.5826
535,0.0,-2.4908,7.9323,11.3391,6.1913,8.2087
540,0.0,-2.4525,7.894,8.9739,5.287,8.4174
545,0.0766,-2.5675,7.9706,6.6783,4.6609,8.9043
550,0.0383,-2.6441,7.9706,4.5217,4.2435,8.9739
555,0.0383,-2.6058,8.0856,3.0609,3.9652,9.4609
560,0.0383,-2.6058,8.2389,2.2261,3.8957,9.5304
565,0.0383,-2.6824,8.2389,1.8087,4.0348,9.7391
570,0.0383,-2.7207,8.2772,1.5304,4.2435,9.5304
575,0.0383,-2.5291,8.5071,1.5304,4.5217,9.5304
580,0.0,-2.6441,8.5071,1.3913,4.9391,9.1826
585,0.0,-2.4142,8.3921,1.1826,5.0783,8.8348
590,0.1533,-2.4142,8.4305,0.7652,5.0783,8.1391
595,0.115,-2.3759,8.5838,0.3478,5.1478,7.6522
600,0.115,-2.3375,8.5071,0.0,4.9391,6.6783
605,0.115,-2.2992,8.5454,-0.9043,4.8696,6.2609
610,0.115,-2.2226,8.4688,-1.6,4.8696,5.4957
615,0.115,-2.4142,8.4688,-2.5739,4.8696,4.8
620,0.1533,-2.4142,8.3538,-3.4783,5.0783,3.8261
625,0.1533,-2.5291,8.5071,-4.5217,5.3565,3.2
630,0.1916,-2.5675,8.4688,-5.3565,5.6348,2.2957
635,0.1533,-2.6058,8.3538,-6.1217,5.6348,1.6696
640,0.115,-2.6058,8.3921,-6.5391,5.7739,0.9739
645,0.115,-2.6824,8.4305,-6.6087,5.9826,0.5565
650,0.115,-2.7207,8.5071,-6.2609,6.0522,0.1391
655,0.115,-2.6824,8.5454,-5.4957,6.0522,0.0
660,0.1916,-2.7591,8.5838,-3.8261,6.0522,-0.0696
665,0.0766,-2.7591,8.852,-2.1565,6.1913,0.2783
670,0.0766,-2.7591,8.5838,-0.0696,6.0522,0.4174
675,0.0766,-2.7207,8.5454,1.8087,5.9826,0.9043
680,0.0766,-2.8357,8.4688,3.4087,5.913,1.3217
685,0.0383,-2.6441,8.4305,4.6609,5.8435,1.9478
690,0.0766,-2.5675,8.3155,5.2174,5.7043,2.3652
695,0.1533,-2.4908,8.2389,5.1478,5.5652,2.713
700,0.0383,-2.4142,8.3538,4.5217,5.287,2.9913
705,0.0766,-2.4142,8.1622,3.5478,5.0783,3.2696
710,0.0,-2.4142,8.2005,2.2957,4.8,3.3391
715,0.0383,-2.4142,8.1622,0.7652,4.313,3.3391
720,0.0383,-2.4525,8.1622,-0.1391,3.9652,3.3391
725,0.0383,-2.3375,8.3538,-0.9739,3.687,3.2696
730,0.0383,-2.3759,8.3155,-1.4609,3.6174,2.9913
735,0.1916,-2.4525,8.3921,-1.6696,3.5478,2.7826
740,0.3066,-2.5291,8.4688,-1.7391,3.5478,2.4348
745,0.2299,-2.5291,8.5838,-1.6696,3.5478,2.087
750,0.2682,-2.4525,8.6604,-1.6,3.5478,1.6696
755,0.3449,-2.4525,8.5838,-1.5304,3.3391,1.2522
760,0.3066,-2.4525,8.5838,-1.5304,2.9913,0.8348
765,0.2682,-2.4525,8.7754,-1.4609,2.6435,0.4174
770,0.3832,-2.4908,8.6221,-1.6,2.2261,0.1391
775,0.3449,-2.5291,8.5838,-1.8783,1.8783,-0.3478
780,0.3449,-2.4525,8.5071,-2.2957,1.7391,-0.6261
785,0.4598,-2.6441,8.5071,-2.7826,1.4609,-1.1826
790,0.4215,-2.5675,8.5838,-3.2,1.3217,-1.6
795,0.4215,-2.6441,8.5838,-3.5478,1.1826,-2.1565
800,0.3832,-2.7591,8.6604,-3.6174,1.2522,-2.713
805,0.5748,-2.874,8.5071,-3.6174,1.1826,-3.1304
810,0.4215,-2.7974,8.5838,-3.5478,1.1826,-3.5478
815,0.3832,-2.8357,8.4305,-3.1304,1.1826,-3.8957
820,0.4598,-2.874,8.5838,-2.6435,1.3217,-4.1739
825,0.3832,-2.874,8.2389,-2.087,1.5304,-4.5913
830,0.5365,-2.7591,8.3921,-1.5304,1.5304,-4.5217
835,0.4215,-2.8357,8.3538,-1.1826,1.6,-4.7304
840,0.4215,-2.6824,8.2005,-0.8348,1.6696,-4.6609
845,0.3832,-2.5675,8.2389,-0.6957,1.8087,-4.5913
850,0.2299,-2.5291,8.0089,-0.6261,1.8783,-4.313
855,0.2299,-2.4142,8.1239,-0.7652,2.0174,-4.1739
860,0.2682,-2.4525,8.0473,-1.0435,2.1565,-3.8957
865,0.3066,-2.4908,8.2005,-1.4609,2.2957,-3.6174
870,0.2299,-2.2992,8.3538,-2.0174,2.5043,-3.2696
875,0.2682,-2.3759,8.1239,-2.6435,2.5739,-2.9217
880,0.2299,-2.3759,8.0856,-3.2,2.5739,-2.5739
885,0.1533,-2.3375,8.2772,-3.687,2.6435,-2.4348
890,0.1916,-2.3375,8.2772,-3.9652,2.4348,-2.2261
895,0.3449,-2.3759,8.3921,-4.2435,2.4348,-2.1565
900,0.3066,-2.2609,8.3538,-4.313,2.2957,-2.0174
905,0.2682,-2.2609,8.4688,-4.4522,2.1565,-2.0174
910,0.1916,-2.3375,8.3921,-4.5217,2.087,-1.8087
915,0.3449,-2.2609,8.3155,-4.6609,2.087,-1.8783
920,0.3066,-2.3375,8.3538,-4.7304,2.087,-1.6696
925,0.2299,-2.3759,8.4305,-4.8696,2.0174,-1.6
930,0.1533,-2.2226,8.5454,-4.8,2.0174,-1.6
935,0.2682,-2.3375,8.3921,-4.8696,1.8783,-1.5304
940,0.2299,-2.2609,8.5454,-4.8,1.8087,-1.1826
945,0.115,-2.2992,8.5454,-4.8,1.7391,-1.1826
950,0.2299,-2.3759,8.3921,-5.0087,1.7391,-0.9043
955,0.2682,-2.3759,8.4688,-5.3565,1.8087,-0.9739
960,0.2682,-2.3759,8.4305,-5.7739,1.8087,-0.8348
965,0.2299,-2.4525,8.5454,-6.3304,1.6696,-1.0435
970,0.2682,-2.4525,8.5838,-7.1652,1.7391,-0.9043
975,0.2299,-2.4908,8.3921,-7.7913,1.6696,-1.1826
980,0.3066,-2.6441,8.4305,-8.4174,1.6696,-1.113
985,0.3832,-2.6441,8.4688,-8.9739,1.8087,-1.2522
990,0.3449,-2.5675,8.3538,-9.3913,1.8783,-1.3913
995,0.3066,-2.6058,8.5071,-9.6,1.8087,-1.7391
1000,0.3832,-2.7207,8.5071,-9.5304,1.8087,-1.8087
1005,0.3066,-2.7974,8.5454,-9.3217,1.8087,-2.2957
1010,0.3066,-2.7207,8.5454,-9.0435,1.8783,-2.2957
1015,0.2682,-2.7974,8.5838,-8.6261,1.9478,-2.6435
1020,0.2682,-2.7974,8.5071,-7.8609,1.9478,-2.713
1025,0.1916,-2.9123,8.4305,-7.2348,1.8783,-3.0609
1030,0.3066,-2.874,8.6221,-6.5391,1.8783,-2.9913
1035,0.1533,-2.8357,8.4688,-6.1913,1.8783,-3.0609
1040,0.0766,-2.874,8.5071,-5.7739,1.7391,-2.713
1045,0.1533,-2.9123,8.4305,-5.7739,1.6,-2.7826
1050,0.1916,-2.8357,8.2772,-5.8435,1.4609,-2.2957
1055,0.2682,-2.8357,8.3538,-6.1913,1.5304,-2.1565
1060,0.2299,-2.874,8.2005,-6.4696,1.5304,-1.7391
1065,0.3449,-2.9123,8.2389,-6.7478,1.6,-1.5304
1070,0.2299,-2.874,8.2005,-6.8174,1.6,-1.0435
1075,0.3832,-2.9507,8.3538,-6.8174,1.6,-0.9739
1080,0.2682,-2.989,8.1622,-6.6783,1.4609,-0.487
1085,0.2682,-2.989,8.2389,-6.5391,1.5304,-0.487
1090,0.3832,-2.989,8.1622,-6.3304,1.3913,-0.1391
1095,0.3066,-2.989,8.0856,-6.2609,1.3217,-0.2783
1100,0.3066,-2.989,8.0856,-6.2609,1.3217,-0.0696
1105,0.4215,-2.989,8.2772,-6.3304,1.2522,-0.2783
1110,0.4215,-2.874,8.1239,-6.3304,1.3217,-0.3478
1115,0.3449,-2.9123,8.2389,-6.4,1.3217,-0.487
1120,0.3449,-2.7974,8.3921,-6.4696,1.3217,-0.5565
1125,0.4215,-2.7974,8.2389,-6.4,1.3913,-0.8348
1130,0.5748,-2.8357,8.2772,-6.4,1.4609,-0.9739
1135,0.4215,-2.874,8.2005,-6.4696,1.4609,-1.1826
1140,0.4982,-2.874,8.2005,-6.5391,1.6,-1.2522
1145,0.4215,-2.874,8.3538,-6.6783,1.7391,-1.3913
1150,0.4982,-2.8357,8.3538,-6.7478,1.8087,-1.3217
1155,0.5748,-2.874,8.1239,-6.8174,1.8783,-1.3913
1160,0.5748,-2.9507,8.3921,-6.887,1.9478,-1.1826
1165,0.5365,-2.8357,8.4305,-6.887,2.1565,-1.2522
1170,0.4982,-2.9123,8.3921,-6.5391,2.2261,-0.9739
1175,0.5748,-2.8357,8.4688,-6.2609,2.2957,-0.9739
1180,0.5748,-2.7974,8.4688,-5.8435,2.2261,-0.6261
1185,0.5365,-2.874,8.4305,-5.287,2.2261,-0.6261
1190,0.4598,-2.7591,8.3921,-4.7304,2.1565,-0.3478
1195,0.4982,-2.6824,8.5838,-4.3826,2.2261,-0.3478
1200,0.5365,-2.874,8.4688,-4.0348,2.2261,-0.2087
1205,0.5365,-2.7207,8.4688,-3.7565,2.2957,-0.2783
1210,0.6131,-2.7591,8.4305,-3.6174,2.3652,-0.0696
1215,0.4982,-2.7207,8.5071,-3.6174,2.3652,-0.2087
1220,0.4982,-2.6824,8.2772,-3.7565,2.2261,-0.0696
1225,0.4215,-2.874,8.3538,-3.9652,2.2957,0.0
1230,0.4215,-2.7591,8.4305,-4.1739,2.2261,0.0696
1235,0.843,-2.7591,8.4688,-4.4522,2.2261,-0.1391
1240,0.6131,-2.9123,8.5838,-4.5217,2.087,-0.0696
1245,0.4982,-2.9507,8.2005,-4.8,2.1565,-0.2087
1250,0.4982,-2.8357,8.3921,-4.9391,2.2261,-0.2087
1255,0.5365,-2.9507,8.2772,-5.2174,2.2261,-0.4174
1260,0.4982,-3.0273,8.2389,-5.4261,2.087,-0.4174
1265,0.4982,-3.0656,8.5071,-5.7043,2.087,-0.5565
1270,0.4215,-2.9507,8.3155,-5.7043,2.0174,-0.4174
1275,0.5365,-3.0656,8.3155,-5.8435,2.087,-0.3478
1280,0.4215,-2.874,8.3538,-5.9826,2.1565,-0.2783
1285,0.4982,-3.0273,8.4305,-5.913,2.2957,-0.3478
1290,0.4982,-3.0656,8.2772,-5.8435,2.3652,-0.2783
1295,0.4598,-2.9507,8.3155,-5.7739,2.3652,-0.3478
1300,0.4215,-3.0273,8.3921,-5.7043,2.3652,-0.2087
1305,0.4598,-3.0656,8.4305,-5.7043,2.2957,-0.2087
1310,0.4982,-3.1423,8.1622,-5.7043,2.4348,-0.0696
1315,0.4598,-3.1423,8.3155,-5.7043,2.4348,0.0696
1320,0.4982,-3.1039,8.3921,-5.8435,2.5043,0.1391
1325,0.4598,-3.0656,8.2389,-5.913,2.5739,0.2087
1330,0.4215,-3.0656,8.2772,-6.0522,2.713,0.5565
1335,0.4982,-3.1423,8.1239,-6.1913,2.7826,0.6957
1340,0.5748,-3.1423,8.3155,-6.4696,2.8522,0.9043
1345,0.3832,-3.0656,8.1239,-6.6783,2.713,1.113
1350,0.4982,-3.1806,8.2005,-6.5391,2.7826,1.1826
1355,0.3832,-3.1423,8.2772,-6.3304,2.7826,1.3217
1360,0.4982,-3.1039,8.2772,-5.913,2.6435,1.4609
1365,0.4982,-3.1806,8.2005,-5.4957,2.5739,1.6
1370,0.5365,-3.1423,8.4305,-5.0783,2.5043,1.6696
1375,0.4982,-3.0656,8.3538,-4.5217,2.5043,1.7391
1380,0.4598,-3.0656,8.2389,-4.1739,2.4348,1.7391
1385,0.4598,-3.0656,8.3538,-3.7565,2.3652,1.6
1390,0.6131,-3.1423,8.3538,-3.4087,2.3652,1.6696
1395,0.5365,-3.0656,8.3155,-3.2,2.4348,1.7391
1400,0.4598,-3.1039,8.3538,-2.7826,2.5043,1.6
1405,0.4215,-3.1423,8.4305,-2.4348,2.4348,1.6
1410,0.4598,-3.1039,8.1622,-2.1565,2.5043,1.5304
1415,0.5365,-3.1423,8.2772,-1.8783,2.6435,1.6
1420,0.4982,-3.1423,8.2772,-1.5304,2.7826,1.3217
1425,0.5365,-3.1806,8.2389,-1.3913,2.9217,1.3217
1430,0.5748,-3.1806,8.2005,-1.3913,3.1304,1.0435
1435,0.5365,-3.0656,8.3155,-1.3913,3.2,1.0435
1440,0.4982,-2.989,8.2389,-1.2522,3.2696,1.0435
1445,0.5365,-3.1039,8.3538,-1.2522,3.2,1.0435
1450,0.5748,-3.0273,8.3538,-1.1826,3.0609,0.9739
1455,0.4982,-3.2955,8.2772,-1.1826,2.9913,0.9739
1460,0.5748,-3.0656,8.3155,-1.0435,2.7826,0.7652
1465,0.6131,-3.1423,8.3155,-0.7652,2.5739,0.7652
1470,0.5365,-3.1806,8.2772,-0.6261,2.4348,0.5565
1475,0.5748,-3.1039,8.4305,-0.4174,2.3652,0.487
1480,0.3832,-3.1039,8.3921,-0.1391,2.1565,0.2783
1485,0.3832,-3.1039,8.4305,0.2783,2.087,0.3478
1490,0.4598,-3.1423,8.3921,0.6957,1.9478,0.1391
1495,0.4598,-2.989,8.3155,1.1826,1.8087,0.2087
1500,0.4215,-3.0273,8.4305,1.3913,1.8783,0.0
1505,0.4598,-3.0273,8.2772,1.5304,1.8783,0.0696
1510,0.5365,-3.1039,8.3538,1.5304,2.0174,-0.2783
1515,0.5748,-3.1423,8.2772,1.3217,2.1565,-0.2087
1520,0.5365,-2.989,8.2389,1.0435,2.2261,-0.4174
1525,0.4598,-3.0273,8.3155,0.6261,2.3652,-0.487
1530,0.5365,-3.1039,8.3921,0.2087,2.5043,-0.5565
1535,0.6514,-3.2955,8.2389,-0.2087,2.5739,-0.487
1540,0.4982,-3.1039,8.1239,-0.487,2.5739,-0.7652
1545,0.5748,-3.1806,8.2389,-0.7652,2.713,-0.8348
1550,0.5748,-3.2955,8.2005,-0.8348,2.713,-1.0435
1555,0.6131,-3.2189,8.2772,-0.9043,2.7826,-1.0435
1560,0.6514,-3.4488,8.2389,-0.6957,2.9217,-1.3913
1565,0.6898,-2.7974,8.2772,-0.4174,2.9217,-1.1826
1570,0.6131,-3.1806,8.2772,-0.2087,2.9913,-1.3217
1575,0.6514,-3.1806,8.2389,-0.0696,2.9913,-1.1826
1580,0.6514,-3.0656,8.2005,0.3478,3.2,-1.2522
1585,0.5748,-2.9123,8.0089,0.6957,3.2,-1.0435
1590,0.6131,-3.0656,8.2389,0.9043,3.4087,-1.113
1595,0.6131,-3.0656,8.2389,1.113,3.4087,-0.6957
1600,0.6131,-2.874,8.2389,1.1826,3.4087,-0.6261
1605,0.4598,-2.874,8.2005,1.3217,3.4783,-0.3478
1610,0.4215,-2.7591,8.1239,1.3913,3.4783,-0.2087
1615,0.4982,-2.8357,8.0473,1.5304,3.5478,0.1391
1620,0.5365,-2.874,8.2005,1.6696,3.4783,0.2087
1625,0.4215,-2.7591,8.3155,1.8087,3.4783,0.487
1630,0.4982,-2.8357,8.3921,1.9478,3.4783,0.5565
1635,0.4598,-2.7591,8.2005,1.9478,3.3391,0.6957
1640,0.5365,-2.7591,8.2772,2.0174,3.4087,0.6957
1645,0.5748,-2.874,8.3538,2.0174,3.5478,0.8348
1650,0.5365,-2.874,8.3155,2.2261,3.5478,0.6261
1655,0.4982,-2.7974,8.3155,2.4348,3.6174,0.7652
1660,0.4982,-2.7974,8.5071,2.713,3.7565,0.7652
1665,0.5365,-2.7207,8.3538,2.9217,3.8957,0.9739
1670,0.5365,-2.7591,8.3155,2.9217,4.0348,0.8348
1675,0.5365,-2.6441,8.3538,3.0609,4.313,1.113
1680,0.4982,-2.6824,8.3921,2.8522,4.3826,0.9739
1685,0.6898,-2.7974,8.2772,2.713,4.5217,1.2522
1690,0.4982,-2.6824,8.1622,2.5043,4.5217,1.113
1695,0.6131,-2.7974,8.4305,2.2957,4.5913,1.4609
1700,0.4598,-2.874,8.3538,2.087,4.6609,1.4609
1705,0.5365,-2.874,8.2772,1.9478,4.7304,1.7391
1710,0.4598,-2.6824,8.3538,1.8087,4.8696,1.7391
1715,0.5365,-2.8357,8.3155,1.6,4.8696,1.9478
1720,0.5365,-2.9123,8.3155,1.3913,4.8696,1.9478
1725,0.5365,-2.8357,8.3155,1.2522,5.0087,2.2957
1730,0.5365,-2.9123,8.2772,1.0435,5.0783,2.2957
1735,0.4982,-2.8357,8.3538,0.8348,5.1478,2.4348
1740,0.5748,-2.874,8.3921,0.6261,5.287,2.3652
1745,0.5365,-2.7974,8.3921,0.5565,5.3565,2.5739
1750,0.4598,-2.874,8.4305,0.6957,5.4957,2.3652
1755,0.5748,-3.0656,8.2389,0.7652,5.4957,2.4348
1760,0.5748,-3.0273,8.2389,0.7652,5.4957,2.1565
1765,0.6131,-3.1039,8.3155,0.7652,5.3565,2.2261
1770,0.4982,-2.9123,8.3155,0.6957,5.2174,1.9478
1775,0.6131,-2.989,8.2389,0.5565,5.287,1.9478
1780,0.5365,-2.989,8.2772,0.3478,5.1478,1.8783
1785,0.4982,-2.8357,8.2005,0.3478,5.2174,2.0174
1790,0.6131,-3.1039,8.2389,0.4174,5.1478,1.8783
1795,0.6898,-2.9507,8.3155,0.487,5.0087,1.9478
1800,0.5748,-3.0273,8.3155,0.8348,4.8696,1.9478
1805,0.6514,-3.1039,8.2772,1.0435,4.6609,2.0174
1810,0.5365,-3.0656,8.2772,1.4609,4.5217,1.9478
1815,0.4982,-2.989,8.3155,1.7391,4.4522,2.087
1820,0.5365,-3.0656,8.2389,1.9478,4.3826,2.087
1825,0.6514,-3.0273,8.1622,2.1565,4.2435,2.2261
1830,0.7281,-3.0273,8.3538,2.2957,4.313,2.1565
1835,0.5748,-2.874,8.3155,2.1565,4.1739,2.087
1840,0.4982,-2.8357,8.2005,2.0174,4.1043,2.0174
1845,0.5748,-2.8357,8.3921,1.9478,4.1739,2.1565
1850,0.5365,-2.7207,8.3538,1.8087,4.313,2.2261
1855,0.6131,-2.8357,8.4305,1.7391,4.2435,2.1565
1860,0.6131,-2.8357,8.3921,1.6696,4.313,2.1565
1865,0.5365,-2.7974,8.2772,1.7391,4.313,2.2261
1870,0.5365,-2.7974,8.2005,1.8087,4.1739,2.1565
1875,0.5365,-2.7591,8.2772,1.7391,4.2435,2.2957
1880,0.5365,-2.7591,8.3155,1.8783,4.1739,2.2261
1885,0.2299,-2.7974,8.3155,2.0174,4.1043,2.2957
1890,0.6898,-2.6441,8.6604,2.2261,3.8957,2.1565
1895,0.4982,-2.989,8.4688,2.3652,3.9652,2.087
1900,0.4982,-2.8357,8.5071,2.5739,3.8957,2.0174
1905,0.4982,-2.7591,8.3538,2.713,3.8957,1.8783
1910,0.5748,-2.9507,8.5071,2.6435,4.0348,1.8783
1915,0.4982,-2.7974,8.4688,2.713,3.9652,1.7391
1920,0.6131,-2.7974,8.3921,2.713,4.1739,1.7391
1925,0.5748,-2.8357,8.4688,2.713,4.2435,1.5304
1930,0.6898,-2.8357,8.4305,2.5043,4.3826,1.3217
1935,0.5365,-2.7974,8.2389,2.5043,4.5913,1.113
1940,0.6131,-2.9123,8.4305,2.4348,4.8,0.9043
1945,0.5365,-2.7974,8.4305,2.2261,5.0087,0.7652
1950,0.6514,-2.874,8.2772,2.087,5.287,0.6261
1955,0.5365,-2.7207,8.4688,2.0174,5.4261,0.4174
1960,0.6131,-2.7974,8.3538,2.0174,5.4957,0.4174
1965,0.5748,-2.7591,8.4305,1.9478,5.7043,0.2783
1970,0.5365,-2.7974,8.3155,1.8087,5.7739,0.2783
1975,0.6131,-2.7974,8.4305,1.6696,5.7739,0.1391
1980,0.4598,-2.6441,8.3538,1.4609,5.7739,0.2087
1985,0.4598,-2.7591,8.3538,1.3217,5.913,0.0696
1990,0.4598,-2.7207,8.2772,1.113,5.913,0.1391
1995,0.5365,-2.7591,8.3921,0.8348,5.9826,0.1391
2000,0.5365,-2.7207,8.4688,0.5565,5.913,0.1391
2005,0.3832,-2.7591,8.5071,0.487,5.9826,0.0696
2010,0.4598,-2.7974,8.5071,0.3478,6.0522,0.2783
2015,0.3832,-2.7591,8.3538,0.2783,5.9826,-0.0696
2020,0.3832,-2.8357,8.2005,0.3478,5.9826,0.0696
2025,0.3449,-2.8357,8.4305,0.4174,6.0522,-0.1391
2030,0.4598,-2.8357,8.3538,0.487,5.9826,0.0
2035,0.5365,-2.874,8.3538,0.487,5.9826,-0.0696
2040,0.3832,-2.9123,8.4305,0.4174,5.9826,-0.1391
2045,0.4598,-2.8357,8.4305,0.487,6.1217,-0.4174
2050,0.4215,-2.7591,8.3538,0.3478,6.1217,-0.4174
2055,0.4598,-2.7974,8.3921,0.3478,6.0522,-0.6957
2060,0.4982,-2.7207,8.2772,0.2783,6.1217,-0.6957
2065,0.3832,-2.7974,8.3155,0.3478,6.1217,-0.9043
2070,0.3832,-2.8357,8.2772,0.487,6.0522,-0.7652
2075,0.4598,-2.8357,8.5454,0.6261,6.0522,-0.9043
2080,0.3832,-2.7207,8.4305,0.5565,5.9826,-0.9043
2085,0.3449,-2.7591,8.5071,0.6261,5.9826,-0.9739
2090,0.3449,-2.7207,8.4305,0.7652,5.8435,-0.7652
2095,0.2682,-2.7974,8.4688,0.8348,5.913,-0.8348
2100,0.3832,-2.7207,8.4688,0.9739,5.9826,-0.7652
2105,0.3832,-2.6058,8.5454,1.0435,5.9826,-0.7652
2110,0.3832,-2.874,8.4305,1.1826,5.913,-0.5565
2115,0.3066,-2.7207,8.5454,1.2522,5.7739,-0.5565
2120,0.3066,-2.6824,8.5454,1.4609,5.7043,-0.4174
2125,0.3066,-2.7207,8.4305,1.5304,5.5652,-0.487
2130,0.3066,-2.6058,8.4305,1.6696,5.5652,-0.4174
2135,0.3066,-2.6058,8.3538,1.6696,5.6348,-0.6261
2140,0.4215,-2.5675,8.3921,1.3913,5.6348,-0.6957
2145,0.4215,-2.6058,8.5071,1.1826,5.7739,-0.9739
2150,0.3832,-2.5291,8.3921,0.8348,5.8435,-1.0435
2155,0.4215,-2.5675,8.4305,0.4174,5.913,-1.2522
2160,0.4598,-2.4525,8.3538,0.0696,6.0522,-1.2522
2165,0.3832,-2.5675,8.3538,-0.4174,6.1217,-1.5304
2170,0.4598,-2.5675,8.3155,-0.8348,6.1913,-1.4609
2175,0.4215,-2.6824,8.3155,-1.113,6.1217,-1.7391
2180,0.4598,-2.6824,8.3538,-1.3217,5.9826,-1.7391
2185,0.5748,-2.7591,8.2389,-1.5304,5.8435,-2.1565
2190,0.5365,-2.6441,8.3921,-1.8783,5.6348,-2.2261
2195,0.5365,-2.6441,8.2772,-1.9478,5.6348,-2.5739
2200,0.6131,-2.7591,8.3921,-2.0174,5.3565,-2.5043
2205,0.6131,-2.6824,8.5071,-1.8783,5.2174,-2.9217
2210,0.5748,-2.7974,8.3538,-1.8087,5.0783,-2.8522
2215,0.6131,-2.7591,8.3921,-1.8087,4.9391,-2.9913
2220,0.6898,-2.9507,8.2772,-1.6696,4.8696,-2.8522
2225,0.5748,-2.7207,8.3155,-1.6696,4.7304,-2.9913
2230,0.6514,-2.7207,8.2772,-1.6696,4.6609,-2.9217
2235,0.6131,-2.7974,8.2772,-1.8087,4.5913,-3.1304
2240,0.4598,-2.6058,8.3921,-2.0174,4.5913,-3.1304
2245,0.4982,-2.7207,8.3538,-2.2957,4.7304,-3.4783
2250,0.5748,-2.7974,8.4305,-2.4348,4.8,-3.3391
2255,0.4982,-2.874,8.3538,-2.5739,4.8,-3.6174
2260,0.4598,-2.8357,8.5454,-2.6435,4.8696,-3.6174
2265,0.5365,-2.874,8.2772,-2.8522,5.0783,-3.8261
2270,0.4598,-2.874,8.4688,-2.7826,5.2174,-3.687
2275,0.5748,-2.874,8.3538,-2.8522,5.1478,-3.7565
2280,0.4598,-2.874,8.3155,-2.7826,5.0783,-3.4783
2285,0.3832,-2.8357,8.3155,-2.9217,4.8696,-3.5478
2290,0.5365,-2.874,8.3921,-2.9913,4.8696,-3.2696
2295,0.4982,-2.874,8.2005,-3.1304,4.7304,-3.3391
2300,0.3449,-2.874,8.3538,-3.2696,4.5913,-3.1304
2305,0.4215,-2.9123,8.2772,-3.4783,4.5217,-3.1304
2310,0.3832,-2.874,8.3155,-3.687,4.5217,-2.9913
2315,0.3449,-2.8357,8.1622,-3.9652,4.7304,-3.2
2320,0.3066,-2.7974,8.0473,-4.5217,4.8,-3.0609
2325,0.3449,-2.7591,8.0856,-4.9391,5.1478,-3.0609
2330,0.3449,-2.8357,8.3538,-5.4957,5.4957,-2.8522
2335,0.5748,-2.874,8.2005,-5.7043,5.7043,-2.713
2340,0.4215,-2.874,8.2389,-5.7739,5.913,-2.5043
2345,0.3449,-2.874,8.3155,-5.4957,6.0522,-2.4348
2350,0.3449,-2.874,8.4305,-5.0087,6.0522,-2.087
2355,0.4215,-3.0656,8.3155,-4.2435,5.9826,-1.8087
2360,0.3832,-2.9123,8.4305,-3.2696,5.7739,-1.3913
2365,0.4215,-2.9507,8.4305,-2.2957,5.5652,-1.113
2370,0.5365,-2.9123,8.5071,-1.2522,5.1478,-0.6957
2375,0.4982,-3.0273,8.5454,-0.1391,4.9391,-0.487
2380,0.4598,-2.9123,8.3921,0.6957,4.8,-0.2783
2385,0.5748,-3.0273,8.3538,1.4609,4.4522,-0.2087
2390,0.4982,-2.989,8.4688,2.087,4.2435,-0.0696
2395,0.4215,-2.8357,8.4305,2.8522,3.9652,-0.1391
2400,0.5365,-2.9123,8.5071,3.4783,3.7565,-0.2087
2405,0.4215,-2.8357,8.5071,3.8957,3.687,-0.4174
2410,0.4598,-2.7591,8.4305,4.1739,3.6174,-0.487
2415,0.4598,-2.874,8.5071,4.5217,3.5478,-0.7652
2420,0.3449,-2.7207,8.5071,4.5913,3.4783,-1.0435
2425,0.3832,-2.6441,8.3921,4.5913,3.4783,-1.113
2430,0.3449,-2.7207,8.4688,4.2435,3.5478,-1.2522
2435,0.1916,-2.6441,8.3155,4.0348,3.7565,-1.2522
2440,0.3449,-2.6058,8.4688,3.6174,3.8261,-1.1826
2445,0.3066,-2.6441,8.5071,3.2,3.9652,-0.7652
2450,0.3832,-2.6824,8.4305,2.713,3.9652,-0.4174
2455,0.3832,-2.6824,8.3155,2.2261,3.8261,0.0696
2460,0.3449,-2.6824,8.5071,1.8087,3.687,0.6261
2465,0.3832,-2.8357,8.2772,1.3217,3.4087,1.3217
2470,0.5365,-2.9123,8.4305,1.0435,2.9913,2.087
2475,0.1916,-2.8357,8.4688,0.9739,2.6435,2.713
2480,0.3066,-2.874,8.5071,0.9739,2.3652,3.3391
2485,0.3066,-2.9123,8.3538,0.9739,2.0174,3.8957
2490,0.3449,-2.989,8.3538,1.113,1.7391,4.4522
2495,0.2682,-2.8357,8.2389,1.3913,1.3913,4.9391
2500,0.1533,-2.8357,8.3538,1.6,1.1826,5.4957
2505,0.3066,-2.989,8.3155,1.8087,1.1826,6.0522
2510,0.2682,-2.8357,8.3155,2.0174,1.0435,6.1217
2515,0.3066,-2.8357,8.2389,1.8783,1.113,6.4696
2520,0.3066,-2.7207,8.1622,1.8087,1.113,6.4696
2525,0.3449,-2.6824,8.3155,1.8783,1.1826,6.7478
2530,0.4598,-2.8357,8.3538,1.7391,1.3913,6.7478
2535,0.4215,-2.7207,8.5071,1.4609,1.6,7.0261
2540,0.4215,-2.6824,8.3538,1.3913,1.7391,7.0261
2545,0.2299,-2.6824,8.3538,1.2522,1.9478,7.0957
2550,0.4982,-2.5291,8.4305,1.1826,2.1565,7.0261
2555,0.4598,-2.4908,8.2389,1.0435,2.2957,6.9565
2560,0.4598,-2.4525,8.2005,0.6957,2.5739,6.6783
2565,0.4598,-2.4525,8.3538,0.2783,2.6435,6.6087
2570,0.5748,-2.5675,8.2772,-0.2783,2.8522,6.1913
2575,0.4982,-2.4908,8.3155,-0.9739,2.9217,6.0522
2580,0.4982,-2.4525,8.5071,-1.5304,2.9913,5.6348
2585,0.4215,-2.5291,8.4305,-1.8783,3.0609,5.3565
2590,0.4982,-2.4908,8.4688,-2.1565,3.0609,4.9391
2595,0.5365,-2.5675,8.4305,-2.3652,3.2,4.7304
2600,0.4215,-2.6824,8.3538,-2.4348,3.6174,4.1739
2605,0.4215,-2.6058,8.5838,-2.3652,3.7565,3.8957
2610,0.3449,-2.6058,8.4688,-2.2957,3.8957,3.5478
2615,0.3066,-2.6441,8.3921,-2.087,4.1043,3.3391
2620,0.4598,-2.6441,8.3921,-1.8087,4.0348,2.9913
2625,0.3066,-2.7974,8.4305,-1.4609,4.1043,2.9913
2630,0.3066,-2.6824,8.5454,-1.1826,4.2435,2.7826
2635,0.4215,-2.7974,8.6221,-0.7652,4.3826,2.9217
2640,0.3449,-2.8357,8.3921,-0.487,4.4522,2.6435
2645,0.3449,-2.7207,8.5071,-0.2087,4.7304,2.6435
2650,0.3449,-2.6824,8.5071,0.1391,4.8696,2.5739
2655,0.3066,-2.7591,8.3155,0.487,5.0783,2.713
2660,0.2682,-2.7974,8.3921,0.7652,5.0783,2.5043
2665,0.3449,-2.6441,8.5071,1.113,5.2174,2.5043
2670,0.3832,-2.5675,8.5454,1.3913,5.1478,2.2957
2675,0.3449,-2.7207,8.4688,1.7391,4.9391,2.2261
2680,0.4215,-2.6441,8.3155,1.9478,4.8,1.9478
2685,0.3449,-2.6441,8.4305,2.087,4.7304,1.8087
2690,0.4215,-2.6824,8.3538,2.2957,4.5913,1.3913
2695,0.4215,-2.5675,8.2772,2.087,4.6609,1.3217
2700,0.4598,-2.6441,8.2005,1.9478,4.6609,0.9739
2705,0.4982,-2.6441,8.3155,1.4609,4.7304,0.8348
2710,0.3832,-2.5675,8.3155,1.1826,4.9391,0.487
2715,0.4215,-2.5675,8.4305,0.6261,4.9391,0.487
2720,0.4982,-2.5291,8.2389,0.3478,5.1478,0.0696
2725,0.4982,-2.6058,8.3538,0.0,5.2174,0.0
2730,0.4598,-2.5291,8.2005,-0.3478,5.1478,-0.3478
2735,0.4215,-2.5675,8.3155,-0.6261,5.287,-0.4174
2740,0.4215,-2.5675,8.2389,-0.8348,5.4261,-0.7652
2745,0.4598,-2.6441,8.3155,-1.1826,5.4261,-0.7652
2750,0.4982,-2.7591,8.2005,-1.3217,5.6348,-0.9739
2755,0.4598,-2.6441,8.2389,-1.6696,5.6348,-0.8348
2760,0.3449,-2.6824,8.3921,-1.8783,5.7043,-1.113
2765,0.4215,-2.8357,8.4305,-2.1565,5.7043,-1.0435
2770,0.3449,-2.7974,8.2772,-2.2957,5.6348,-1.1826
2775,0.3449,-2.7974,8.4305,-2.3652,5.4957,-0.9739
2780,0.4982,-2.9507,8.4305,-2.087,5.4957,-1.2522
2785,0.3832,-2.7974,8.5071,-1.6,5.3565,-1.1826
2790,0.4598,-2.7974,8.4305,-0.9043,5.0783,-1.1826
2795,0.4598,-2.874,8.3921,-0.487,4.9391,-1.113
2800,0.4982,-2.874,8.3921,-0.0696,4.8696,-1.2522
2805,0.4215,-2.8357,8.3538,0.2087,4.7304,-1.2522
2810,0.4982,-2.7974,8.3155,0.2087,4.6609,-1.6
2815,0.4215,-2.8357,8.5454,0.0,4.7304,-1.6
2820,0.5365,-2.6824,8.2389,-0.2783,4.8,-1.8783
2825,0.4982,-2.6058,8.3921,-0.6957,5.0087,-1.9478
2830,0.5748,-2.5291,8.2772,-1.0435,5.2174,-2.2957
2835,0.6898,-2.7207,8.4305,-1.4609,5.4261,-2.2957
2840,0.6131,-2.5291,8.4688,-1.6,5.7043,-2.713
2845,0.6131,-2.4908,8.4305,-1.8783,5.913,-2.713
2850,0.5748,-2.5291,8.4305,-1.9478,6.1913,-3.0609
2855,0.5365,-2.4908,8.3538,-2.0174,6.4696,-2.9913
2860,0.5365,-2.5291,8.4305,-2.0174,6.4696,-3.3391
2865,0.4982,-2.4908,8.3921,-2.087,6.5391,-3.4087
2870,0.4215,-2.4908,8.3921,-1.8783,6.5391,-3.6174
2875,0.4982,-2.4908,8.4688,-1.6696,6.5391,-3.687
2880,0.4215,-2.5675,8.4688,-1.5304,6.4696,-3.8957
2885,0.3832,-2.5675,8.5071,-1.3913,6.3304,-3.8957
2890,0.3832,-2.5675,8.5071,-1.113,6.2609,-4.0348
2895,0.4598,-2.6824,8.4688,-0.8348,6.2609,-3.8261
2900,0.4982,-2.6824,8.3921,-0.4174,6.1913,-3.8261
2905,0.4215,-2.6058,8.4688,-0.3478,6.1217,-3.7565
2910,0.3449,-2.7207,8.4688,-0.0696,6.0522,-3.7565
2915,0.4982,-2.6824,8.4688,-0.0696,5.913,-3.6174
2920,0.4215,-2.6441,8.5071,0.0,5.8435,-3.5478
2925,0.3832,-2.7207,8.3538,0.0696,5.7043,-3.4087
2930,0.3449,-2.6441,8.4305,-0.2087,5.7043,-3.3391
2935,0.3832,-2.7591,8.2772,-0.4174,5.6348,-3.2
2940,0.3066,-2.7207,8.4688,-0.6261,5.5652,-3.1304
2945,0.2299,-2.7974,8.4688,-0.9043,5.4957,-2.9913
2950,0.2682,-2.6824,8.5071,-1.3217,5.4957,-3.1304
2955,0.3832,-2.6441,8.3155,-1.7391,5.4261,-2.9913
2960,0.3449,-2.6824,8.3155,-2.0174,5.2174,-2.9913
2965,0.3449,-2.6058,8.3155,-2.2957,5.0783,-2.9217
2970,0.4598,-2.6441,8.3921,-2.6435,5.0783,-2.8522
2975,0.4215,-2.7974,8.3921,-2.6435,5.0087,-2.713
2980,0.3832,-2.7207,8.5454,-2.5739,4.8696,-2.713
2985,0.3449,-2.7207,8.5071,-2.4348,4.7304,-2.7826
2990,0.3449,-2.7207,8.4305,-2.2261,4.6609,-2.7826
2995,0.3449,-2.7207,8.5071,-2.1565,4.4522,-2.713
