timestamp,accX,accY,accZ,gyroX,gyroY,gyroZ
0,1.6478,-6.6294,-5.748,-21.6348,21.7739,-12.1043
5,1.6095,-6.6677,-5.6331,-22.0522,21.287,-12.4522
10,1.6478,-6.5911,-5.748,-22.887,20.5217,-12.2435
15,1.7627,-6.6677,-6.3995,-23.9304,19.687,-11.9652
20,1.4945,-6.6294,-5.7864,-24.9739,18.8522,-11.3391
25,1.3029,-6.7444,-5.9013,-25.9478,17.9478,-11.0609
30,1.4179,-6.8593,-5.7097,-26.8522,16.8348,-10.5043
35,1.1496,-6.8593,-5.863,-27.4783,15.513,-10.0174
40,1.2263,-6.8977,-5.7097,-27.687,14.1217,-9.1826
45,1.1879,-6.7827,-5.6331,-27.687,12.5217,-8.7652
50,1.1496,-6.8977,-5.748,-27.8261,10.8522,-8.0696
55,1.1113,-6.8593,-5.7097,-28.1043,9.6,-7.6522
60,1.0346,-6.9743,-5.7864,-28.5217,8.0696,-6.9565
65,0.9963,-6.936,-5.6714,-28.8,6.8174,-6.3304
70,0.9963,-6.7061,-6.2079,-29.0087,5.3565,-5.3565
75,1.073,-6.8593,-5.7097,-29.0783,3.9652,-4.8
80,1.1496,-7.0126,-5.7097,-28.8696,2.5739,-4.3826
85,1.073,-6.8593,-5.5948,-28.313,1.2522,-4.5217
90,1.3795,-6.936,-5.748,-27.4783,-0.3478,-4.6609
95,1.2263,-6.8977,-5.7864,-26.5043,-2.0174,-4.8
100,1.3029,-6.9743,-5.978,-25.3217,-3.4087,-4.8
105,1.3412,-6.936,-5.863,-23.8609,-4.4522,-5.2174
110,1.3795,-6.9743,-5.8247,-21.8435,-5.4957,-5.5652
115,1.5328,-6.9743,-5.863,-19.9652,-6.2609,-6.1217
120,1.4945,-7.0509,-5.863,-17.6696,-6.7478,-6.4
125,1.7244,-7.1276,-5.2116,-15.2348,-7.1652,-7.2348
130,1.7244,-6.936,-5.9396,-12.5217,-7.5826,-8.0
135,1.7627,-6.8977,-5.9013,-10.1565,-7.8609,-8.8348
140,1.7244,-6.7444,-5.9396,-7.9304,-8.2087,-9.4609
145,1.7627,-6.7061,-5.9013,-6.1217,-8.3478,-10.2957
150,1.8011,-6.7827,-5.978,-4.6609,-8.4174,-10.9217
155,1.6861,-6.6294,-5.9013,-3.687,-8.5565,-11.4087
160,1.7627,-6.7444,-5.8247,-3.2,-8.6261,-11.8261
165,1.8394,-6.821,-5.9396,-3.3391,-8.8348,-12.0348
170,1.8777,-6.821,-5.9396,-3.9652,-8.9739,-12.1043
175,1.8394,-7.0509,-5.9013,-4.6609,-9.2522,-12.1043
180,1.9927,-7.3958,-5.1349,-5.287,-9.7391,-12.4522
185,1.8777,-7.2425,-6.0163,-5.6348,-10.3652,-12.8
190,1.9927,-7.3575,-5.9396,-5.6348,-10.8522,-13.3565
195,2.0693,-7.3575,-6.0546,-5.8435,-11.2696,-14.0522
200,2.0693,-7.3958,-5.978,-5.913,-11.5478,-14.5391
205,2.1459,-7.4341,-6.0929,-5.913,-11.6174,-14.887
210,2.031,-7.3958,-6.0929,-5.913,-11.8261,-15.2348
215,2.2226,-7.3958,-6.2079,-5.8435,-12.0348,-15.3739
220,2.3759,-7.4725,-6.1313,-5.7739,-12.313,-15.4435
225,2.2609,-7.3192,-6.3229,-5.913,-12.6609,-15.3043
230,2.2609,-7.3192,-6.0546,-6.1913,-13.0087,-16.0696
235,2.2226,-7.2809,-6.2845,-6.6783,-13.7043,-15.8609
240,2.1459,-7.3192,-6.2462,-6.4,-14.4696,-15.0261
245,2.0693,-7.3958,-6.3612,-5.7043,-15.0957,-14.6087
250,2.1076,-7.5108,-6.3229,-4.9391,-15.8609,-14.4696
255,1.916,-7.5108,-6.1696,-3.8957,-16.8348,-14.1217
260,1.916,-7.3958,-6.1696,-2.713,-18.087,-13.9826
265,1.8394,-7.5874,-6.1696,-1.7391,-19.0609,-13.5652
270,1.8011,-7.5874,-6.0163,-0.487,-20.2435,-13.4957
275,1.8777,-7.4341,-6.0163,0.6261,-21.4957,-13.1478
280,1.6478,-7.5108,-6.1696,1.7391,-22.7478,-13.287
285,1.5711,-7.3575,-6.3612,2.7826,-24.1391,-13.2174
290,1.7627,-7.3575,-6.0163,3.8957,-25.5304,-13.3565
295,1.6478,-7.3958,-6.0546,5.0087,-26.9913,-13.4261
300,1.6861,-7.2425,-5.863,5.8435,-28.2435,-13.4957
305,1.9927,-5.9013,-6.1696,6.8174,-29.8435,-13.1478
310,1.4945,-7.779,-6.0163,7.1652,-32.9043,-10.4348
315,1.2646,-7.9706,-5.5564,7.3043,-33.3217,-11.2696
320,1.3412,-7.5491,-5.6714,7.8609,-34.4348,-14.6087
325,1.5711,-7.2425,-5.7097,7.7913,-36.1739,-16.0
330,1.5328,-7.4341,-5.6714,7.0261,-37.7739,-16.6261
335,1.5711,-7.3958,-5.6331,6.3304,-39.1652,-17.3913
340,1.6861,-7.2042,-5.8247,5.6348,-40.5565,-18.713
345,1.6095,-7.2809,-5.748,4.8696,-42.0174,-19.2696
350,1.6478,-7.3575,-5.7097,3.8261,-43.4783,-19.687
355,1.6861,-7.4341,-5.7864,2.8522,-44.5913,-19.5478
360,1.6095,-7.3575,-5.863,2.0174,-45.9826,-19.4783
365,1.7244,-7.3192,-5.9013,1.3913,-46.9565,-18.9217
370,1.7627,-7.3192,-6.1696,1.3217,-47.8609,-18.7826
375,1.9927,-7.1276,-6.2462,1.1826,-48.6261,-18.2957
380,1.8394,-7.2042,-6.4378,1.0435,-49.1826,-18.2261
385,2.1843,-7.2042,-6.2845,0.4174,-49.5304,-17.6
390,2.1076,-7.3192,-6.5528,-0.4174,-49.7391,-17.6
395,1.9927,-7.6257,-5.5948,-1.8087,-49.6696,-17.2522
400,2.3759,-7.3575,-6.7061,-3.8261,-49.4609,-17.113
405,2.6058,-7.5491,-6.7061,-6.1217,-48.6261,-16.5565
410,2.4908,-7.6257,-6.936,-8.5565,-47.3043,-16.2087
415,2.4908,-7.779,-6.8977,-11.5478,-46.0522,-15.7913
420,2.3375,-7.9706,-7.1659,-13.9826,-44.9391,-15.4435
425,2.1843,-8.3155,-7.2425,-16.2783,-43.8261,-15.0261
430,1.9543,-8.5838,-7.2809,-17.7391,-42.7826,-15.2348
435,1.8394,-8.6221,-7.5874,-18.8522,-41.6696,-15.3043
440,1.6095,-8.8137,-7.779,-19.5478,-40.487,-15.7217
445,1.7244,-8.737,-7.779,-19.8261,-39.0261,-15.7913
450,1.3795,-8.4688,-8.0089,-19.8957,-37.4261,-16.0696
455,1.4179,-8.4305,-8.1622,-19.8261,-35.5478,-15.8609
460,1.3029,-8.3155,-8.1622,-19.5478,-33.0435,-15.7913
465,1.3412,-8.3921,-8.3155,-18.9913,-30.9565,-15.6522
470,1.4562,-8.4305,-8.2772,-18.4348,-29.0783,-15.5826
475,1.5328,-8.6604,-8.3538,-17.6,-27.7565,-15.0957
480,1.3795,-8.6604,-8.2772,-16.6261,-26.6435,-14.7478
485,1.3795,-8.6604,-8.3921,-15.3739,-25.4609,-14.4696
490,1.2263,-8.6987,-8.3155,-13.7739,-24.8348,-14.4
495,0.958,-8.4305,-8.5071,-11.7565,-24.3478,-13.7043
500,0.7664,-8.4305,-8.4688,-9.0435,-23.7913,-13.4261
505,0.4982,-8.4688,-8.0473,-5.8435,-23.3043,-12.8696
510,0.6131,-8.0473,-8.4688,-2.9217,-22.6087,-12.6609
515,0.5365,-8.0473,-8.5454,-0.487,-22.1217,-12.5217
520,0.6514,-7.894,-8.3155,0.9043,-21.913,-12.5217
525,0.7281,-7.8173,-8.3155,1.7391,-22.1913,-12.1043
530,0.8047,-7.6257,-8.4305,1.8783,-22.887,-11.6174
535,0.958,-7.7024,-8.5454,1.6,-23.6522,-10.8522
540,0.9963,-7.3958,-8.5071,0.9739,-24.6261,-10.087
545,1.1879,-7.3575,-8.3921,-0.2087,-25.5304,-9.3913
550,1.073,-7.4341,-8.2005,-1.8783,-26.4348,-8.6261
555,1.1879,-7.4725,-8.5454,-3.8261,-27.3391,-7.8609
560,1.0346,-7.3575,-8.5071,-5.9826,-28.1043,-6.7478
565,0.3449,-7.4725,-8.2772,-8.3478,-29.2174,-5.913
570,0.5748,-7.894,-8.3155,-9.8783,-30.1913,-4.8696
575,0.5365,-7.5874,-8.852,-11.2696,-31.0957,-3.7565
580,0.1533,-7.5491,-8.7754,-12.313,-32.2087,-2.5043
585,-0.115,-7.6257,-8.852,-13.287,-33.3217,-1.3913
590,-0.4598,-7.6641,-8.6604,-14.1913,-34.5043,-0.3478
595,-0.6131,-7.7024,-8.6987,-14.887,-35.7565,0.5565
600,-0.6898,-7.779,-8.967,-15.0261,-37.1478,1.3217
605,-0.8814,-7.7024,-8.8137,-14.6087,-38.4,1.9478
610,-0.9197,-7.5874,-9.0436,-13.7043,-39.513,2.4348
615,-1.2263,-7.5874,-8.6221,-11.1304,-40.9739,2.713
620,-1.1879,-7.5491,-8.852,-8.0696,-42.2261,3.1304
625,-1.1496,-7.4725,-8.8137,-4.1739,-43.4087,3.0609
630,-1.2263,-7.4725,-8.7754,-0.2087,-44.1043,3.2696
635,-1.2646,-7.3958,-8.8903,3.3391,-44.8,3.2
640,-1.3029,-7.3192,-8.6987,6.6783,-45.1478,2.8522
645,-1.2646,-7.3192,-8.6987,9.7391,-45.4261,2.2957
650,-1.3029,-7.2809,-8.5454,12.6609,-45.5652,1.5304
655,-1.3795,-7.2425,-8.3538,15.3739,-45.4957,0.487
660,-0.958,-7.2809,-8.3538,17.8783,-45.4261,-0.6261
665,-0.843,-7.0893,-8.1622,20.1739,-44.9391,-1.8783
670,-0.8814,-7.2042,-8.6604,21.8435,-44.313,-2.8522
675,-0.6131,-7.0893,-8.0856,23.0261,-43.2696,-3.8957
680,-0.5748,-7.0893,-7.9706,23.8609,-42.087,-4.6609
685,-0.5748,-6.9743,-7.9706,24.1391,-40.9043,-5.7739
690,-0.4598,-7.0893,-7.8557,23.7913,-39.9304,-6.6087
695,-0.2299,-7.0509,-7.9323,22.8174,-38.6783,-7.5826
700,-0.3066,-6.8977,-7.8173,21.7043,-37.4957,-8.2783
705,-0.3066,-7.0126,-7.7407,20.5217,-36.3826,-9.2522
710,-0.3449,-6.936,-7.894,19.6174,-35.2,-9.9478
715,-0.0766,-6.9743,-7.6257,18.8522,-33.8783,-10.713
720,-0.0766,-7.1659,-7.6257,18.8522,-32.7652,-10.8522
725,-0.0383,-6.936,-7.7407,19.2696,-31.7217,-11.2696
730,-0.0766,-6.936,-7.5874,19.6174,-30.6087,-11.5478
735,-0.0766,-6.936,-7.6257,20.1043,-29.5652,-12.1043
740,-0.0383,-6.8977,-7.5491,20.7304,-28.7304,-12.313
745,-0.1533,-6.821,-7.5874,21.6348,-28.0348,-12.8696
750,-0.2682,-6.7827,-7.5491,22.4,-27.4783,-12.9391
755,-0.2299,-6.8593,-7.5108,23.2348,-26.9217,-13.1478
760,-0.3449,-6.7827,-7.4725,23.7217,-26.4348,-12.6609
765,-0.4982,-6.7444,-7.4725,23.7913,-26.087,-12.5217
770,-0.3832,-6.7444,-7.4725,23.7217,-25.8783,-12.1739
775,-0.1916,-6.9743,-7.3192,23.7217,-25.3913,-12.313
780,-0.5748,-6.9743,-7.2809,23.7913,-24.9043,-12.2435
785,-0.5748,-7.0893,-7.2425,24.0,-24.487,-12.5913
790,-0.6131,-7.1659,-7.0893,24.2087,-24.2087,-12.4522
795,-0.7664,-7.1276,-6.936,24.487,-24.2087,-12.7304
800,-0.9197,-7.3192,-6.6294,24.8348,-24.2087,-12.8
805,-0.8047,-7.2809,-6.7444,25.3217,-24.4174,-13.0783
810,-0.958,-7.4341,-6.6294,25.9478,-24.6261,-13.1478
815,-0.843,-7.2425,-6.6294,26.6435,-25.113,-13.2174
820,-1.1496,-7.3575,-6.7061,26.9913,-25.6696,-12.7304
825,-1.1113,-7.3575,-6.6294,26.8522,-26.087,-12.5217
830,-1.4945,-7.3958,-6.3229,26.5043,-26.4348,-11.8957
835,-1.2646,-7.1659,-6.3229,26.087,-26.8522,-11.6174
840,-1.1879,-7.1659,-6.3612,25.4609,-27.1304,-10.9913
845,-1.2263,-7.2809,-6.3612,24.8348,-27.2696,-10.7826
850,-1.1113,-7.2042,-6.3229,24.0696,-27.4783,-10.4348
855,-0.9963,-7.2042,-6.3612,23.0957,-27.4783,-10.4348
860,-0.8047,-7.2425,-6.4378,21.4261,-27.687,-10.1565
865,-0.843,-7.1276,-6.3612,19.2,-27.8957,-9.8087
870,-0.6514,-7.1276,-6.5528,17.3913,-27.7565,-9.1826
875,-0.5748,-7.3575,-6.3229,15.8609,-27.2,-8.8348
880,-0.4215,-7.2809,-6.2079,14.887,-26.713,-8.487
885,-0.3832,-7.5874,-6.1696,14.6087,-25.8783,-8.4174
890,-0.3449,-7.4725,-6.1696,14.7478,-24.9739,-8.3478
895,-0.2682,-7.5108,-6.2845,15.3043,-23.8609,-8.2783
900,-0.1916,-7.5491,-6.0546,16.2087,-22.8174,-8.1391
905,-0.1533,-7.5491,-6.1696,17.1826,-21.913,-8.2087
910,0.0,-7.5491,-6.0929,18.2261,-21.0783,-7.9304
915,-0.0383,-7.5491,-6.2079,19.2,-19.8261,-7.513
920,-0.0383,-7.5491,-6.2462,19.687,-18.8522,-7.2348
925,-0.0383,-7.4725,-6.2845,19.8261,-17.9478,-6.9565
930,-0.0766,-7.3575,-6.2462,19.7565,-16.9739,-6.5391
935,0.0,-7.4341,-6.1696,19.6174,-16.0,-5.9826
940,-0.0383,-7.3575,-6.2845,19.4087,-14.9565,-5.2174
945,0.115,-7.5108,-6.0929,19.1304,-14.1217,-4.3826
950,-0.1916,-7.4341,-6.0546,18.7826,-13.287,-3.6174
955,-0.2299,-7.4341,-5.863,18.087,-12.7304,-2.8522
960,-0.3066,-7.4341,-6.0546,17.3217,-12.4522,-1.7391
965,-0.5748,-7.3958,-5.9013,16.0696,-12.5913,-0.1391
970,-0.6131,-7.4341,-5.9013,14.7478,-13.0783,1.3217
975,-0.9197,-7.3575,-5.7097,13.4261,-13.7739,2.6435
980,-1.1879,-7.4341,-5.7097,12.2435,-14.1913,4.0348
985,-1.1113,-7.4725,-5.9013,11.4087,-14.6783,5.4261
990,-1.3029,-7.4341,-5.863,10.8522,-14.887,6.4
995,-1.6095,-7.3575,-5.4032,10.3652,-15.0261,7.3043
1000,-1.2646,-7.4725,-5.8247,10.2957,-14.9565,7.9304
1005,-1.3029,-7.5108,-5.863,10.4348,-14.8174,8.4174
1010,-1.3029,-7.3958,-5.7097,10.7826,-14.6087,8.5565
1015,-1.2646,-7.4725,-5.7097,11.4087,-14.2609,8.5565
1020,-1.1496,-7.3575,-5.748,11.8261,-13.913,8.0696
1025,-1.1496,-7.3575,-5.5948,12.3826,-13.5652,7.7217
1030,-1.1496,-7.2809,-5.6331,12.5217,-13.3565,7.1652
1035,-1.2263,-7.3192,-5.748,12.6609,-13.4957,6.6783
1040,-1.4179,-7.1659,-5.5181,12.7304,-13.7043,6.0522
1045,-1.3029,-7.0509,-5.7097,12.4522,-14.2609,5.6348
1050,-1.4562,-7.2042,-5.7097,12.313,-14.7478,5.1478
1055,-1.3795,-6.8977,-5.6714,11.8957,-15.3739,4.7304
1060,-1.4562,-6.936,-5.6331,11.2,-16.0,4.1043
1065,-1.5711,-6.8593,-5.7097,10.2957,-16.6957,3.6174
1070,-1.6095,-6.8593,-5.4798,9.5304,-17.2522,3.1304
1075,-1.6095,-6.8977,-5.6331,8.7652,-17.9478,2.7826
1080,-1.6861,-7.0509,-5.5181,8.2087,-18.5739,2.2957
1085,-1.6095,-7.0509,-5.3648,8.0,-19.4087,2.087
1090,-1.8011,-7.1659,-5.5181,8.0696,-20.313,1.4609
1095,-1.6861,-7.0509,-5.4798,8.2783,-21.1478,1.113
1100,-1.8777,-7.0509,-5.4798,8.487,-21.913,0.487
1105,-2.031,-7.3192,-5.2882,8.5565,-22.5391,0.0696
1110,-1.8394,-7.0509,-5.5564,8.6261,-23.3739,-0.6957
1115,-1.7627,-7.0509,-5.4032,8.5565,-24.2783,-1.4609
1120,-1.6478,-7.0893,-5.4032,8.2087,-25.0435,-2.713
1125,-1.7627,-7.0126,-5.5564,7.4435,-25.6696,-3.7565
1130,-1.6095,-7.0509,-5.6714,6.5391,-25.9478,-5.0783
1135,-1.6478,-6.936,-5.6714,5.5652,-26.0174,-6.1913
1140,-1.6861,-6.8977,-5.5948,4.2435,-25.9478,-7.3739
1145,-1.6861,-6.8977,-5.8247,2.6435,-26.0174,-8.5565
1150,-1.5328,-6.8977,-5.748,0.9739,-26.0174,-9.9478
1155,-1.4562,-7.0893,-5.8247,-0.6957,-26.2957,-11.1304
1160,-1.4945,-7.5491,-5.4415,-2.2957,-26.6435,-12.6609
1165,-1.5328,-7.2809,-5.7864,-3.5478,-26.9913,-14.1913
1170,-1.7627,-7.2042,-5.8247,-4.1043,-27.2696,-15.7217
1175,-1.7627,-7.2809,-5.7097,-3.9652,-27.6174,-16.8348
1180,-1.7627,-7.3958,-5.5948,-3.2696,-28.1043,-18.2957
1185,-1.5711,-7.4725,-5.6714,-2.4348,-28.5217,-19.4087
1190,-1.6095,-7.5108,-5.6331,-1.3217,-29.0087,-20.9391
1195,-1.4945,-7.4341,-5.4415,0.1391,-29.2174,-21.8435
1200,-1.6095,-7.6257,-5.5564,1.6,-29.7043,-23.0957
1205,-1.6095,-7.5491,-5.4798,2.7826,-29.9826,-23.5826
1210,-1.6478,-7.5874,-5.7097,3.6174,-30.1217,-24.7652
1215,-1.6478,-7.4341,-5.6331,3.9652,-30.1913,-25.6
1220,-1.4179,-7.5874,-5.6714,4.1739,-30.0522,-26.4348
1225,-1.4562,-7.5108,-5.6331,3.687,-29.9826,-26.9913
1230,-1.4562,-7.5108,-5.6714,2.8522,-29.8435,-27.8261
1235,-1.3795,-7.7024,-5.7097,2.1565,-30.0522,-28.313
1240,-1.4179,-7.5874,-5.6331,1.7391,-30.6783,-29.0087
1245,-1.4945,-7.7024,-5.7097,1.6,-31.6522,-29.5652
1250,-1.5328,-7.7407,-5.7097,1.8087,-32.6261,-30.3304
1255,-1.4179,-7.8557,-5.7864,2.087,-33.6,-31.1652
1260,-1.3795,-7.779,-5.8247,2.4348,-34.3652,-32.2783
1265,-1.1879,-7.779,-5.6714,2.7826,-34.9217,-33.4609
1270,-1.4562,-8.3155,-5.2499,3.4087,-35.4087,-34.7826
1275,-1.4562,-7.894,-5.8247,3.687,-35.8957,-36.2435
1280,-1.4179,-7.8173,-5.863,4.0348,-36.1739,-37.7739
1285,-1.3795,-7.8173,-5.9396,4.313,-36.3826,-39.3739
1290,-1.6095,-7.7407,-5.9396,4.5913,-36.5217,-41.1826
1295,-1.6478,-7.7024,-5.978,4.5217,-36.9391,-43.1304
1300,-1.6861,-7.8173,-5.8247,4.7304,-37.5652,-45.0087
1305,-1.6095,-7.6257,-5.863,5.287,-38.4,-46.4696
1310,-1.7244,-7.6641,-5.748,5.7739,-39.3043,-48.2087
1315,-1.7244,-7.7407,-5.863,6.0522,-40.0696,-50.1565
1320,-1.5711,-7.6257,-6.0163,6.1913,-40.6261,-51.687
1325,-1.916,-7.8173,-5.863,6.1913,-41.3913,-53.2174
1330,-1.916,-7.894,-5.748,6.1217,-42.087,-54.9565
1335,-2.1076,-7.9323,-5.6714,5.7043,-42.9217,-56.487
1340,-1.9543,-8.1239,-5.5181,5.3565,-43.6174,-58.2261
1345,-2.0693,-8.1239,-5.7864,5.0087,-44.2435,-60.0348
1350,-1.9927,-8.3921,-5.4415,4.6609,-45.0783,-61.9826
1355,-2.1076,-8.4305,-5.5564,4.4522,-45.8435,-63.513
1360,-2.1459,-8.5071,-5.5564,4.0348,-46.8174,-65.3913
1365,-2.1459,-8.5454,-5.748,3.687,-48.0696,-67.4783
1370,-2.1076,-8.4688,-5.4032,3.2696,-49.113,-69.1478
1375,-3.0273,-8.6604,-5.3648,3.0609,-50.2261,-70.887
1380,-1.9927,-8.5454,-5.863,2.9217,-51.3391,-72.3478
1385,-2.1843,-8.5071,-5.978,2.6435,-52.4522,-73.7391
1390,-2.031,-8.3538,-5.978,2.7826,-53.6348,-75.0609
1395,-1.8777,-8.3155,-6.2845,2.7826,-54.9565,-76.313
1400,-1.916,-8.2389,-6.2462,3.2696,-56.2087,-77.3565
1405,-1.7627,-8.2772,-6.2462,3.8957,-57.6,-78.1913
1410,-1.5711,-8.1239,-6.1696,5.0087,-58.8522,-79.2348
1415,-1.3412,-8.1622,-6.2079,6.2609,-60.1739,-80.2783
1420,-1.2646,-8.0856,-6.1696,7.9304,-61.4261,-80.9043
1425,-0.958,-8.3921,-6.0163,9.7391,-62.5391,-81.6
1430,-0.843,-8.2389,-5.978,11.3391,-63.5826,-81.9478
1435,-0.6131,-8.4688,-5.9396,12.9391,-64.6957,-82.3652
1440,-0.4215,-8.5838,-5.9396,14.6087,-66.0174,-82.5043
1445,-0.1916,-8.5454,-5.9396,16.2087,-67.4087,-82.5043
1450,-0.0383,-8.6987,-5.9013,17.6696,-68.5217,-82.087
1455,0.0766,-8.6221,-6.0546,19.2,-69.6348,-81.7391
1460,0.2682,-8.737,-5.9396,21.0087,-70.2609,-81.0435
1465,-0.0383,-8.6221,-6.1696,22.7478,-70.4,-80.3478
1470,0.3449,-8.3538,-6.0163,24.2783,-69.4261,-80.1391
1475,0.4215,-8.2005,-5.9013,26.2261,-69.287,-79.7217
1480,0.4215,-8.0473,-5.863,27.8261,-69.6348,-78.4696
1485,0.4215,-7.5491,-6.3612,28.6609,-70.4696,-77.0087
1490,0.3066,-7.3958,-5.863,28.7304,-71.1652,-75.2696
1495,0.2299,-7.5108,-5.9396,28.3826,-71.9304,-73.8087
1500,0.2299,-7.4725,-5.9013,28.6609,-72.8348,-71.9304
1505,0.2299,-7.3575,-5.8247,28.3826,-74.0174,-69.6348
1510,0.115,-7.2809,-5.8247,26.8522,-74.9913,-66.5043
1515,-0.0383,-7.2809,-5.9013,24.2087,-76.0348,-62.8174
1520,0.0383,-7.2425,-5.9396,20.313,-77.3565,-58.9913
1525,-0.1916,-7.2809,-6.0163,16.0696,-78.8174,-55.2348
1530,-0.2299,-7.3958,-6.0163,10.9217,-80.4174,-51.4783
1535,-0.2682,-7.1276,-6.821,5.4261,-82.2261,-49.0435
1540,-0.6131,-7.6257,-6.3229,0.6957,-83.9652,-46.887
1545,-0.8814,-7.6257,-6.2845,-2.713,-85.7043,-45.5652
1550,-1.1496,-7.4725,-6.4761,-5.2174,-87.513,-43.9652
1555,-1.2263,-7.5874,-6.6677,-7.2348,-89.0435,-42.9217
1560,-1.3029,-7.7024,-6.8593,-9.0435,-89.9478,-41.5304
1565,-1.3412,-7.8557,-6.8593,-10.3652,-90.5739,-40.2783
1570,-1.4945,-7.894,-6.821,-11.1304,-90.5739,-39.0957
1575,-1.3029,-7.9323,-6.8593,-11.4783,-90.2261,-38.5391
1580,-0.958,-8.2005,-6.821,-11.4087,-89.3217,-38.1217
1585,-0.843,-8.2005,-6.7061,-10.2957,-88.0696,-38.4696
1590,-0.1533,-8.6221,-6.5911,-8.3478,-86.6783,-38.3304
1595,-0.0383,-8.4688,-6.8593,-6.1217,-85.287,-38.887
1600,0.3449,-8.4305,-6.8593,-3.7565,-83.5478,-39.7913
1605,0.6898,-8.5454,-6.7444,-0.6957,-82.0174,-41.3913
1610,0.9963,-8.5838,-6.7444,2.9217,-80.7652,-43.1304
1615,1.2646,-8.4688,-6.7827,6.887,-79.5826,-45.7739
1620,1.3029,-8.4305,-6.7444,11.6174,-78.3304,-47.7217
1625,1.5328,-8.3155,-6.821,15.0957,-77.4261,-49.6
1630,1.3412,-8.2389,-6.8593,17.8783,-76.9391,-50.9217
1635,1.0346,-7.9706,-6.936,19.9652,-76.7304,-52.313
1640,1.1113,-7.894,-6.936,21.4957,-77.2174,-53.1478
1645,0.6898,-8.0473,-6.7061,22.5391,-77.7043,-53.8435
1650,0.2682,-7.9323,-6.7827,23.0957,-78.4696,-53.9826
1655,0.0,-7.7407,-6.6677,23.2348,-79.7217,-54.2609
1660,-0.3832,-7.779,-6.6677,23.0261,-81.3913,-53.7739
1665,-0.6131,-7.6641,-6.3612,22.4696,-83.5478,-53.287
1670,-0.9963,-7.5108,-6.5145,21.5652,-86.8174,-52.3826
1675,-1.1496,-7.5874,-6.4761,21.1478,-89.9478,-51.4783
1680,-1.3795,-7.5491,-6.4378,20.6609,-93.287,-50.4348
1685,-1.3795,-7.5491,-6.2845,19.9652,-96.487,-49.4609
1690,-1.4945,-7.5874,-6.4378,18.8522,-99.3391,-48.2783
1695,-1.3795,-7.7024,-6.3612,17.1826,-101.913,-47.7217
1700,-1.3412,-7.5874,-6.2079,15.3043,-104.2783,-47.2348
1705,-1.073,-7.779,-6.0546,13.1478,-106.5739,-47.3043
1710,-0.8047,-7.7407,-6.1313,11.1304,-108.6609,-47.3043
1715,-0.5748,-7.8173,-6.2079,9.0435,-110.7478,-47.6522
1720,-0.3449,-7.8173,-6.1313,6.6087,-113.0435,-48.0696
1725,-0.115,-7.8173,-6.2079,4.5217,-114.5739,-48.8348
1730,0.1533,-7.894,-6.3229,2.2261,-115.8261,-49.6696
1735,0.2299,-7.7024,-6.4378,-0.4174,-116.8696,-50.713
1740,0.6131,-7.779,-6.7061,-3.2696,-117.7043,-51.8957
1745,0.4982,-7.894,-6.6294,-6.5391,-118.1913,-53.2174
1750,0.5365,-8.4688,-6.1696,-10.1565,-118.8174,-54.6087
1755,0.4982,-7.779,-6.8593,-13.7043,-119.3739,-56.0696
1760,0.3832,-7.9323,-6.8977,-16.8348,-119.6522,-57.3217
1765,0.1916,-7.894,-7.0126,-19.4783,-119.7217,-58.6435
1770,0.115,-8.0856,-7.2042,-21.8435,-119.7217,-59.6174
1775,0.0383,-8.2005,-7.1659,-22.6087,-119.513,-60.3826
1780,-0.0383,-8.3921,-7.2042,-22.1913,-119.2348,-61.287
1785,0.0766,-8.5071,-7.1276,-20.9391,-119.0261,-62.0522
1790,0.2299,-8.5454,-7.2809,-18.6435,-118.887,-62.8174
1795,0.2682,-8.737,-7.1659,-15.5826,-118.887,-63.3739
1800,0.7281,-9.0436,-6.821,-11.5478,-119.1652,-63.7913
1805,0.5365,-8.7754,-7.2425,-6.887,-119.3739,-64.3478
1810,0.7664,-8.8137,-7.2425,-1.4609,-119.7217,-64.5565
1815,0.6898,-8.5838,-7.3192,3.4087,-120.1391,-65.5304
1820,0.7664,-8.4305,-7.0509,9.0435,-120.4174,-67.0609
1825,0.958,-8.2005,-7.1659,13.3565,-120.6957,-68.1043
1830,1.073,-8.0473,-6.9743,17.0435,-120.9043,-69.287
1835,0.9963,-7.894,-6.821,19.8261,-121.0435,-69.9826
1840,0.843,-7.7407,-6.7061,21.8435,-121.1826,-70.5391
1845,0.7281,-7.4725,-6.5145,23.1652,-121.3217,-70.6783
1850,0.5748,-7.5491,-6.3612,24.0696,-121.7391,-70.5391
1855,0.7281,-7.3192,-6.2462,24.0696,-122.3652,-70.2609
1860,0.2299,-7.3958,-5.978,23.8609,-123.1304,-69.8435
1865,0.3066,-7.3192,-5.748,23.2348,-123.9652,-69.1478
1870,0.1533,-7.3192,-5.7097,21.7043,-124.8696,-68.6609
1875,0.1916,-7.3958,-5.5564,19.7565,-125.287,-67.8261
1880,0.2299,-7.2809,-5.4798,17.4609,-125.5652,-67.3391
1885,0.3832,-7.3575,-5.4798,14.887,-125.7739,-66.713
1890,0.6514,-7.2042,-5.3265,12.1739,-125.913,-66.3652
1895,0.7664,-7.1276,-5.3265,9.8087,-125.7739,-65.7391
1900,0.9963,-7.3192,-5.6714,7.4435,-125.7043,-65.5304
1905,1.1496,-7.3575,-5.4415,5.3565,-125.5652,-65.113
1910,1.5328,-7.5491,-5.4415,3.4783,-125.3565,-65.2522
1915,1.4562,-7.4341,-5.6714,1.6696,-125.1478,-65.2522
1920,1.6861,-7.4341,-5.6714,-0.0696,-124.6609,-65.8087
1925,1.6478,-7.4725,-5.748,-2.087,-124.2435,-66.0174
1930,1.7627,-7.6257,-5.863,-4.0348,-123.8261,-66.5043
1935,1.7627,-7.6257,-5.978,-6.0522,-123.4087,-66.5739
1940,1.6861,-7.6257,-5.8247,-8.3478,-122.8522,-66.9217
1945,1.4945,-7.8557,-5.863,-10.4348,-122.2261,-66.7826
1950,1.4945,-7.894,-6.0546,-12.313,-121.5304,-66.6435
1955,1.1879,-8.0473,-6.0929,-14.1913,-120.6957,-66.0174
1960,1.1113,-8.1239,-6.4761,-15.3043,-120.0,-65.4609
1965,0.9197,-8.4305,-6.1313,-15.4435,-119.3739,-64.6957
1970,0.7281,-8.5071,-6.2462,-14.6087,-118.5391,-64.0696
1975,0.7664,-8.5071,-6.0546,-12.5913,-117.7043,-63.513
1980,0.843,-8.6987,-5.9396,-10.1565,-116.5217,-63.3043
1985,0.7664,-8.6987,-5.9396,-7.2348,-115.3391,-62.8174
1990,0.9963,-8.7754,-5.9013,-4.1739,-113.8087,-62.5391
1995,0.9963,-8.6604,-6.0929,-1.0435,-112.487,-62.1217
2000,1.1879,-8.737,-5.7864,1.6696,-111.3043,-62.0522
2005,1.3795,-8.4688,-5.863,3.7565,-110.3304,-61.4957
2010,1.3795,-8.4305,-5.9013,5.2174,-109.3565,-61.287
2015,1.6095,-9.3118,-5.4415,5.913,-108.7304,-60.6609
2020,1.7627,-8.4305,-5.978,5.9826,-107.9652,-60.1739
2025,1.8011,-8.3538,-5.9013,5.3565,-107.3391,-59.687
2030,1.8394,-8.3538,-5.9396,4.8,-106.7826,-59.4783
2035,1.9927,-8.3538,-5.863,3.9652,-106.087,-58.9217
2040,1.8394,-8.3921,-5.7864,3.3391,-105.2522,-58.5043
2045,1.8011,-8.3538,-5.6714,3.2,-104.5565,-57.8783
2050,1.8394,-8.2772,-5.5948,3.5478,-103.6522,-57.4609
2055,1.6861,-8.3155,-5.4032,4.2435,-102.9565,-56.7652
2060,1.5711,-8.2389,-5.5948,5.3565,-102.3304,-56.2087
2065,1.5711,-8.2389,-5.2882,6.6783,-101.7043,-55.1652
2070,0.9963,-8.5454,-5.5181,8.2087,-100.8,-54.0522
2075,1.5328,-8.1622,-5.2116,10.1565,-99.8261,-53.1478
2080,1.6095,-8.2005,-5.3265,11.7565,-98.5739,-52.2435
2085,1.6478,-8.1239,-5.2116,13.0087,-97.2522,-51.4087
2090,1.7627,-8.0856,-5.3648,14.0522,-95.5826,-50.7826
2095,1.7244,-7.9323,-5.2882,14.0522,-93.8435,-50.4348
2100,1.8777,-7.8173,-5.2882,13.6348,-92.1739,-50.2261
2105,1.9543,-7.6641,-5.1732,12.6609,-90.713,-49.4609
2110,1.8011,-7.894,-5.0966,10.9913,-89.8087,-48.487
2115,1.8011,-7.894,-5.2116,8.6957,-89.1826,-47.1652
2120,1.6095,-8.1622,-4.8284,6.2609,-89.0435,-45.4261
2125,1.3029,-8.0473,-5.02,3.2,-89.3913,-43.8261
2130,1.1113,-8.2005,-5.1349,0.487,-90.087,-42.2261
2135,0.8047,-8.2772,-5.1349,-2.1565,-90.9913,-40.7652
2140,0.4982,-8.3538,-5.1732,-4.1739,-92.0348,-39.6522
2145,0.2299,-8.4688,-5.02,-5.287,-93.0087,-38.5391
2150,-0.0383,-8.5071,-4.9816,-5.4957,-93.9826,-37.7739
2155,-0.0383,-8.4688,-5.0966,-5.0087,-94.6783,-37.0087
2160,-0.2299,-8.5454,-4.9816,-4.2435,-95.1652,-36.313
2165,-0.3449,-8.5071,-5.1732,-3.1304,-95.513,-35.6174
2170,-0.3832,-8.5454,-5.2116,-2.0174,-95.5826,-34.9913
2175,-0.115,-8.0089,-5.8247,-0.6261,-95.513,-34.7826
2180,-0.1533,-8.3921,-5.2499,0.2087,-95.5826,-34.5043
2185,-0.0766,-8.2772,-5.1732,0.6261,-95.4435,-34.5043
2190,0.0,-8.1622,-5.4798,0.487,-95.1652,-34.5043
2195,0.2299,-8.0089,-5.4798,-0.2087,-95.0261,-34.6435
2200,0.4598,-7.9323,-5.4798,-1.1826,-94.887,-34.713
2205,0.6898,-7.8557,-5.6331,-2.5043,-94.4,-34.713
2210,0.843,-7.8173,-5.6714,-4.0348,-93.7739,-34.5043
2215,1.0346,-7.9706,-5.4415,-5.5652,-92.8696,-34.5043
2220,1.3029,-8.1239,-5.5948,-7.0957,-91.7565,-34.3652
2225,1.2646,-8.1239,-5.863,-9.1826,-90.2261,-34.5043
2230,1.1113,-8.0089,-5.863,-11.0609,-88.6957,-34.5739
2235,1.2646,-8.2389,-5.863,-13.0087,-87.0957,-34.9217
2240,1.3795,-8.5071,-6.0929,-14.7478,-85.2174,-35.4783
2245,1.3795,-8.852,-6.3229,-16.2783,-82.9913,-36.0348
2250,1.1113,-8.5071,-5.863,-17.9478,-80.6957,-37.1478
2255,1.0346,-8.4305,-6.1313,-17.8087,-78.2609,-37.7043
2260,0.6131,-8.4305,-6.0929,-16.9739,-76.0348,-37.2174
2265,0.4598,-8.5071,-5.978,-15.7217,-73.9478,-36.5913
2270,0.0383,-8.4305,-5.9013,-13.7739,-71.9304,-35.7565
2275,0.0,-8.5838,-5.7864,-10.4348,-69.7043,-35.2696
2280,-0.3832,-8.7754,-5.8247,-6.8174,-68.1739,-34.7826
2285,-0.4215,-8.4688,-5.748,-3.2,-66.7826,-34.5739
2290,-0.4982,-8.4305,-5.6331,-0.1391,-65.5304,-33.8783
2295,-0.6131,-8.2772,-5.5564,2.1565,-64.487,-33.3217
2300,-0.6131,-8.1239,-5.4798,4.1739,-63.6522,-32.3478
2305,-0.7281,-8.3155,-5.5181,5.6348,-63.0957,-31.7913
2310,-0.9197,-8.0089,-5.2882,6.7478,-62.6783,-31.513
2315,-0.6131,-8.1239,-5.6331,8.1391,-62.2609,-31.0957
2320,-0.7281,-8.0089,-5.3265,9.113,-62.1217,-29.9826
2325,-0.6514,-8.3155,-5.3265,9.0435,-61.7043,-29.6348
2330,-0.6131,-8.1239,-5.2499,8.0696,-61.4261,-28.8696
2335,-0.6131,-7.8173,-5.4032,6.2609,-61.287,-28.6609
2340,-0.6131,-8.3155,-5.3648,4.1043,-61.1478,-27.8957
2345,-0.6131,-8.1239,-5.0583,1.6696,-61.3565,-27.5478
2350,-0.5365,-8.2389,-5.2116,-1.0435,-61.7043,-26.8522
2355,-0.6131,-8.2005,-5.3648,-3.8261,-62.1913,-26.5043
2360,-0.6131,-8.2772,-5.3648,-6.3304,-62.8174,-25.9478
2365,-0.6898,-8.4305,-5.1732,-8.6261,-63.3739,-25.6696
2370,-0.9197,-8.3538,-5.1732,-10.5043,-64.0,-25.3217
2375,-0.6514,-8.4305,-5.4798,-12.4522,-64.6957,-25.6
2380,-0.7281,-8.5454,-5.5181,-13.913,-65.3913,-25.6696
2385,-0.7664,-8.5838,-5.4032,-15.0261,-66.0174,-25.9478
2390,-0.4982,-8.737,-5.02,-15.8609,-66.3652,-25.6696
2395,-0.8047,-8.6987,-5.4032,-16.4174,-66.2261,-25.4609
2400,-0.843,-8.6604,-5.3265,-16.9739,-66.087,-24.9043
2405,-0.8814,-8.737,-5.2882,-17.113,-65.9478,-24.5565
2410,-0.8047,-8.737,-5.4798,-16.8348,-65.7391,-23.8609
2415,-0.958,-8.737,-5.3265,-16.0696,-65.6,-23.6522
2420,-0.958,-8.5838,-5.4032,-14.8174,-65.3217,-23.0261
2425,-0.843,-8.6604,-5.4032,-12.8,-65.113,-23.1652
2430,-0.958,-8.737,-5.2882,-10.7826,-65.0435,-23.2348
2435,-0.9197,-8.6221,-5.2882,-8.487,-64.9739,-23.7217
2440,-0.8814,-8.6221,-5.4032,-6.4,-64.487,-24.2087
2445,-0.7281,-8.7754,-4.905,-4.313,-63.8609,-24.8348
2450,-0.7664,-8.5071,-5.2499,-2.5739,-63.2348,-25.1826
2455,-0.8814,-8.3538,-5.4032,-1.113,-62.5391,-25.8783
2460,-0.8047,-8.3155,-5.3648,-0.1391,-61.8435,-26.2957
2465,-0.6131,-8.3155,-5.4032,0.1391,-61.0783,-26.9913
2470,-0.6131,-8.3155,-5.2499,0.2783,-60.0348,-27.2696
2475,-0.6131,-8.3538,-5.2116,0.3478,-58.713,-27.6174
2480,-0.6131,-8.3538,-5.3648,0.5565,-57.5304,-27.8957
2485,-0.7281,-8.3921,-5.02,0.9739,-56.5565,-28.2435
2490,-0.7664,-8.6221,-4.9816,1.3913,-55.513,-28.3826
2495,-0.6131,-8.4688,-5.02,1.8087,-54.4696,-28.5913
2500,-0.8047,-8.3921,-4.4068,2.1565,-53.4261,-28.3826
2505,-0.8047,-8.5071,-4.8284,2.1565,-52.6609,-28.1739
2510,-0.6898,-8.5454,-4.8667,1.8783,-52.2435,-27.7565
2515,-0.8814,-8.5071,-4.8284,1.3217,-52.1043,-27.4087
2520,-0.9197,-8.5071,-4.8667,0.2783,-52.1739,-26.8522
2525,-0.843,-8.6987,-4.8284,-0.9739,-52.5913,-26.1565
2530,-1.1879,-8.5071,-4.905,-3.5478,-52.7304,-26.1565
2535,-1.0346,-8.5071,-4.8667,-5.287,-52.5913,-26.0174
2540,-1.1879,-8.4305,-5.0966,-6.6783,-52.8696,-24.6261
2545,-1.073,-8.6987,-5.02,-8.4174,-53.1478,-23.1652
2550,-1.1496,-8.3921,-4.9816,-10.5739,-53.3565,-21.913
2555,-1.4945,-8.5838,-5.0583,-12.2435,-53.4261,-20.9391
2560,-1.1496,-8.6987,-5.2499,-13.4261,-53.3565,-20.2435
2565,-1.0346,-8.737,-5.2882,-14.2609,-53.287,-19.4783
2570,-1.1113,-8.737,-5.3648,-14.6783,-52.8696,-18.5739
2575,-0.9963,-8.9286,-5.3265,-14.5391,-52.3826,-17.8087
2580,-1.1113,-8.852,-5.1349,-13.7043,-51.9652,-17.2522
2585,-1.073,-8.9286,-5.2116,-12.313,-51.687,-16.9043
2590,-1.0346,-8.967,-5.1349,-10.713,-51.5478,-16.8348
2595,-1.1496,-9.1969,-5.2116,-8.6261,-51.4087,-16.7652
2600,-0.8047,-8.8903,-5.2882,-6.4,-51.0609,-16.8348
2605,-0.9963,-8.9286,-5.3265,-4.1739,-50.713,-16.6957
2610,-1.073,-8.852,-5.0966,-1.8783,-50.3652,-16.8348
2615,-0.9963,-9.0053,-5.2882,0.0,-49.8783,-16.8348
2620,-1.1113,-9.0053,-5.0966,1.6,-49.3217,-16.9043
2625,-1.1496,-8.967,-5.1349,2.9217,-48.6261,-16.9043
2630,-1.2263,-8.852,-5.1349,4.1043,-48.0696,-17.1826
2635,-1.1879,-8.9286,-5.02,5.0087,-47.513,-17.0435
2640,-1.2646,-8.7754,-5.0966,5.4957,-46.9565,-17.2522
2645,-1.2263,-8.9286,-5.1732,5.8435,-46.1913,-17.2522
2650,-1.1879,-8.6987,-5.1732,6.2609,-45.7739,-17.3913
2655,-1.2646,-8.6221,-5.02,6.3304,-45.3565,-17.4609
2660,-0.9963,-8.5454,-4.5984,6.2609,-44.8,-17.6696
2665,-1.3029,-8.5071,-5.02,6.1217,-44.2435,-17.8087
2670,-1.1496,-8.5454,-4.9816,5.8435,-43.5478,-18.1565
2675,-1.2263,-8.5071,-4.9816,5.6348,-42.5739,-18.2261
2680,-1.4562,-8.4305,-5.0583,5.4261,-41.5304,-18.6435
2685,-1.2646,-8.3538,-4.9816,5.1478,-40.4174,-18.5739
2690,-1.3412,-8.3155,-4.8667,5.0783,-39.1652,-18.9217
2695,-1.3029,-8.3155,-4.9816,4.8696,-37.7739,-18.713
2700,-1.2263,-8.2772,-4.9433,4.4522,-36.1739,-18.9217
2705,-1.2263,-8.3538,-4.8284,3.8957,-34.6435,-18.7826
2710,-1.073,-8.1622,-4.7517,3.1304,-33.113,-19.0609
2715,-1.073,-8.1239,-4.8284,1.9478,-31.513,-19.1304
2720,-1.1113,-8.1239,-4.6368,0.7652,-30.1217,-19.4783
2725,-0.958,-8.1239,-4.7517,-0.5565,-28.313,-19.4783
2730,-1.0346,-8.0856,-4.7517,-2.2957,-26.8522,-19.8261
2735,-0.843,-8.4688,-4.79,-3.6174,-25.3217,-20.0348
2740,-0.9197,-8.2005,-4.5984,-5.5652,-23.7217,-21.2174
2745,-0.9197,-8.1239,-4.6368,-6.4,-22.3304,-20.9391
2750,-0.8047,-8.1239,-4.79,-7.3739,-21.0783,-20.6609
2755,-0.7664,-8.1622,-4.7517,-8.7652,-19.6174,-20.1739
2760,-0.843,-8.3538,-4.8284,-9.9478,-18.2261,-20.313
2765,-1.073,-8.4305,-4.8667,-11.0609,-16.9739,-20.1739
2770,-0.7281,-8.5838,-4.9816,-11.8261,-15.5826,-20.3826
2775,-0.958,-8.5071,-4.9433,-12.3826,-14.2609,-20.1739
2780,-0.958,-8.6221,-4.905,-12.6609,-12.6609,-20.1043
2785,-1.0346,-8.5454,-4.9816,-12.5217,-11.4783,-19.7565
2790,-1.0346,-8.6987,-4.9433,-11.9652,-10.1565,-19.7565
2795,-1.0346,-8.737,-4.9433,-11.0609,-8.9739,-19.4087
2800,-1.073,-8.6604,-4.905,-9.8783,-7.7217,-19.2696
2805,-1.1113,-8.7754,-4.905,-8.6261,-6.6087,-18.713
2810,-1.073,-8.5454,-5.02,-7.513,-5.7043,-18.3652
2815,-1.0346,-8.7754,-4.8667,-6.1913,-4.8,-17.8783
2820,-0.9197,-8.5838,-4.905,-4.7304,-3.8957,-17.6
2825,-0.5365,-8.6221,-5.3265,-3.3391,-2.8522,-17.0435
2830,-0.8814,-8.6221,-4.9433,-2.2957,-1.5304,-17.5304
2835,-0.9197,-8.3921,-4.8284,-1.4609,-0.1391,-18.5043
2840,-0.8047,-8.2772,-4.8667,0.1391,0.6957,-17.8783
2845,-0.843,-8.2005,-4.8284,1.5304,1.3217,-16.9043
2850,-0.7664,-8.2772,-4.9433,2.3652,2.0174,-16.2087
2855,-0.8814,-8.2389,-4.8284,2.2957,2.6435,-15.6522
2860,-0.9197,-8.2005,-4.9816,1.113,3.3391,-15.3739
2865,-0.958,-8.0473,-5.02,-1.3217,3.8261,-14.6087
2870,-1.0346,-8.1622,-5.4032,-5.0783,4.0348,-13.7043
2875,-0.958,-8.1239,-5.3265,-9.8783,4.0348,-12.0348
2880,-0.9963,-8.6604,-5.748,-16.4174,3.8957,-10.9913
2885,-0.8814,-9.0053,-5.6714,-21.913,3.6174,-10.1565
2890,-0.843,-9.1202,-5.8247,-27.2,3.2,-9.3217
2895,-0.843,-9.3885,-6.0163,-31.8609,2.7826,-8.2783
2900,-0.7281,-9.5801,-6.2462,-35.4783,2.2261,-7.513
2905,-0.6131,-9.6567,-6.4378,-37.8435,1.7391,-6.6783
2910,-0.5748,-9.7717,-6.5528,-38.3304,1.6696,-6.1217
2915,-0.6131,-9.7334,-6.5528,-37.0087,2.087,-5.4957
2920,-0.4598,-9.7717,-6.6677,-34.0174,2.713,-5.287
2925,-0.3832,-9.6184,-6.5145,-29.3565,3.7565,-5.0087
2930,-0.4215,-9.5801,-6.4761,-22.0522,5.0087,-5.2174
2935,-0.3832,-9.3118,-6.6294,-14.7478,6.4,-5.7043
2940,-0.3449,-9.1586,-6.6294,-6.887,7.7217,-6.1913
2945,-0.1916,-9.0436,-6.5528,0.8348,9.4609,-6.5391
2950,-0.2299,-8.7754,-6.6677,7.6522,11.3391,-6.6087
2955,-0.1916,-8.737,-6.3995,13.7043,13.4261,-6.7478
2960,-0.115,-8.7754,-6.2462,18.9217,15.513,-6.9565
2965,0.0383,-8.5838,-6.0929,23.513,17.6696,-7.2348
2970,0.0383,-8.4305,-5.978,26.9217,19.4783,-7.6522
2975,0.0766,-8.5838,-5.7864,29.287,21.4957,-8.9043
2980,0.2682,-8.4688,-5.863,29.9826,23.7913,-11.9652
2985,0.3449,-8.2389,-5.9013,31.3739,24.7652,-13.8435
2990,0.6131,-8.3155,-5.9396,32.0696,25.3217,-14.887
2995,0.4215,-8.2389,-5.3648,31.3739,25.6696,-15.7217
