timestamp,accX,accY,accZ,gyroX,gyroY,gyroZ
0,-9.8483,0.2299,-4.2536,21.0783,9.3217,-3.0609
5,-9.8866,0.1533,-4.1386,19.5478,7.6522,-4.4522
10,-9.7334,0.1916,-4.2536,18.2261,5.4261,-5.913
15,-9.7717,0.1533,-4.3302,17.113,3.3391,-7.513
20,-9.7717,0.0383,-4.3685,16.2783,1.5304,-8.7652
25,-9.8866,0.0766,-4.3685,15.513,-0.1391,-9.3913
30,-9.9633,0.115,-4.4068,14.887,-1.6696,-9.8087
35,-9.8866,0.115,-4.4068,14.6087,-3.4087,-10.2957
40,-9.8483,0.1916,-4.4835,15.0957,-5.1478,-10.7826
45,-9.9633,0.2299,-4.4835,15.2348,-6.6087,-11.3391
50,-9.8866,0.0766,-4.3685,14.887,-7.8609,-11.6174
55,-9.8866,0.1916,-4.4835,14.0522,-8.7652,-11.8957
60,-9.7717,0.1916,-4.7134,12.8696,-9.3913,-12.1739
65,-9.695,0.2299,-4.6751,11.3391,-10.0174,-12.2435
70,-9.6567,0.1916,-4.6751,9.5304,-10.713,-12.313
75,-9.81,0.3449,-4.5218,7.5826,-11.4783,-12.0348
80,-9.8483,0.2299,-4.4068,5.5652,-12.5913,-11.5478
85,-9.8866,0.115,-4.3685,3.2,-14.1913,-10.9913
90,-9.81,0.1916,-4.062,0.6957,-16.2087,-10.3652
95,-9.7717,0.2299,-3.947,-1.6,-18.2261,-9.8783
100,-9.7334,0.1916,-3.6787,-3.6174,-20.1739,-9.5304
105,-9.6184,0.0383,-3.6021,-5.5652,-21.7739,-9.1826
110,-9.5418,0.0383,-3.4105,-7.1652,-23.2348,-8.9043
115,-9.5034,0.0,-3.1806,-7.8609,-24.487,-8.6261
120,-9.5034,-0.0766,-2.874,-7.8609,-25.5304,-8.4174
125,-9.3885,-0.0766,-2.874,-7.4435,-26.4348,-8.1391
130,-9.4651,-0.0383,-2.5291,-6.7478,-27.4087,-8.2087
135,-9.3885,-0.0383,-2.5291,-6.1217,-28.3826,-8.1391
140,-9.5034,-0.115,-2.5291,-5.6348,-29.4261,-7.9304
145,-9.6184,-0.0766,-2.4142,-5.2174,-30.4696,-7.7913
150,-9.6567,-0.0766,-2.4142,-4.7304,-31.4435,-7.5826
155,-9.7334,0.0383,-2.7207,-4.5913,-32.2783,-7.2348
160,-9.7334,0.0383,-2.5291,-5.0783,-32.9043,-6.9565
165,-9.8866,0.0766,-2.5675,-6.3304,-33.8087,-6.4696
170,-9.81,0.0766,-2.5675,-7.5826,-34.2957,-6.0522
175,-9.8483,0.0383,-2.6441,-9.113,-34.7826,-5.6348
180,-9.81,0.115,-2.6058,-10.6435,-35.2696,-5.4261
185,-9.81,0.0383,-2.6824,-12.1739,-35.7565,-5.2174
190,-9.6567,0.0383,-2.7591,-13.5652,-36.1739,-4.9391
195,-9.6567,0.115,-2.874,-14.887,-36.6609,-5.1478
200,-9.5418,0.0766,-2.9123,-15.8609,-37.0783,-5.287
205,-9.5801,0.0,-2.7591,-16.487,-37.0783,-5.6348
210,-9.5418,0.0,-2.7974,-16.8348,-37.287,-6.1217
215,-9.4651,-0.0383,-2.7591,-16.9739,-37.7739,-7.0261
220,-9.4651,0.0766,-2.8357,-16.6957,-38.6783,-8.0696
225,-9.4268,0.0,-2.6441,-15.7913,-39.4435,-8.8348
230,-9.5418,0.0383,-2.6441,-14.887,-40.487,-9.6
235,-9.5801,0.0,-2.5291,-14.3304,-41.6,-10.5739
240,-9.3885,0.0,-2.5291,-14.4696,-42.713,-11.4087
245,-9.4268,0.0,-2.4525,-14.4,-43.6174,-12.1739
250,-9.695,0.0,-2.3759,-14.1913,-44.3826,-12.9391
255,-9.695,-0.0383,-2.2609,-13.287,-45.0783,-13.0783
260,-9.6567,-0.0383,-2.1459,-12.313,-45.5652,-13.0783
265,-9.81,-0.3066,-2.3375,-12.1043,-46.1217,-13.2174
270,-9.695,-0.3832,-2.1076,-12.313,-46.1913,-13.287
275,-9.7334,-0.3066,-2.1076,-12.1739,-45.7739,-13.287
280,-9.695,-0.3449,-2.1076,-11.5478,-45.4261,-13.0783
285,-9.6184,-0.4598,-2.0693,-11.2696,-45.0087,-13.1478
290,-9.5801,-0.4598,-1.9543,-10.8522,-44.5913,-13.0087
295,-9.6567,-0.3832,-1.8777,-10.6435,-44.1739,-12.8
300,-9.6184,-0.3449,-1.8777,-10.5739,-43.6174,-12.5217
305,-9.6184,-0.3832,-1.8777,-10.2261,-42.9217,-11.8261
310,-9.4651,-0.5365,-1.8777,-10.0174,-42.1565,-11.4087
315,-9.4268,-0.3449,-1.7627,-9.5304,-41.6,-11.0609
320,-9.4651,-0.4982,-1.7244,-9.3217,-41.3217,-10.4348
325,-9.2735,-0.3832,-1.5711,-9.0435,-41.113,-9.8783
330,-9.2352,-0.3449,-1.5711,-8.487,-40.9739,-9.1826
335,-9.0053,-0.4215,-1.1879,-7.6522,-40.9043,-8.5565
340,-8.9286,-0.4598,-1.2646,-7.0957,-40.6957,-8.0
345,-9.0436,-0.3832,-1.073,-6.6783,-40.6261,-7.3739
350,-8.852,-0.3832,-1.1113,-7.3043,-40.487,-6.6087
355,-8.7754,-0.4982,-1.1113,-8.6261,-40.487,-5.9826
360,-8.6604,-0.5748,-0.843,-10.2957,-40.4174,-5.2174
365,-8.4688,-0.6898,-0.6898,-11.8957,-40.1391,-4.2435
370,-8.3155,-0.7664,-0.6898,-13.8435,-39.513,-3.3391
375,-8.2772,-0.7664,-0.5748,-15.7913,-38.7478,-2.6435
380,-8.3155,-0.8814,-0.3832,-17.4609,-37.7739,-1.6696
385,-8.2005,-0.843,-0.115,-18.7826,-36.6609,-0.487
390,-8.0089,-1.0346,-0.3066,-19.7565,-35.4087,0.2783
395,-8.2772,-0.958,-0.0383,-20.2435,-34.087,0.6261
400,-8.2389,-1.073,-0.0766,-19.687,-32.6957,1.5304
405,-8.3155,-1.1113,-0.0383,-18.3652,-31.513,2.9217
410,-8.3921,-1.1113,0.0,-16.0,-30.8174,4.2435
415,-8.3921,-1.2263,0.0,-13.7043,-30.2609,5.3565
420,-8.6604,-1.1113,0.0383,-11.5478,-29.9826,6.3304
425,-8.6987,-1.073,0.0,-9.4609,-29.6348,7.3043
430,-8.6604,-1.1879,0.0,-7.3043,-29.0087,8.2783
435,-8.6987,-1.073,0.0,-4.9391,-28.4522,8.9739
440,-8.7754,-1.5711,0.5748,-2.6435,-28.0348,9.5304
445,-8.852,-1.0346,-0.0766,-0.2087,-27.687,9.8087
450,-9.2352,-0.843,0.2299,2.0174,-27.1304,9.7391
455,-9.0436,-0.9197,0.0383,4.0348,-26.2957,9.1826
460,-9.1586,-0.7664,0.0766,5.6348,-25.5304,8.3478
465,-9.2352,-0.6514,0.0766,6.8174,-24.6261,7.7217
470,-9.3885,-0.6131,0.0,7.6522,-23.7217,7.3739
475,-9.3118,-0.5748,0.0,8.2087,-22.4696,7.0261
480,-9.3885,-0.4982,0.0,8.4174,-20.9391,6.6783
485,-9.3502,-0.5748,-0.0383,8.2783,-19.2696,6.3304
490,-9.3885,-0.4982,-0.0383,7.9304,-17.5304,6.1913
495,-9.4651,-0.3832,-0.1533,7.5826,-15.7217,6.0522
500,-9.3885,-0.5365,-0.2682,7.3043,-13.9826,5.913
505,-9.4268,-0.3066,-0.115,6.9565,-12.1739,5.7739
510,-9.5034,-0.4215,-0.2299,6.5391,-10.3652,5.913
515,-9.3118,-0.3832,-0.3066,5.9826,-8.8348,5.7739
520,-9.3885,-0.2682,-0.3066,5.6348,-7.3043,5.7043
525,-9.3502,-0.2682,-0.2682,5.1478,-5.8435,5.6348
530,-9.2352,-0.3832,-0.2682,4.9391,-4.5913,5.4261
535,-9.3118,-0.3449,-0.1916,4.8,-3.4783,5.2174
540,-9.1969,-0.3449,-0.2682,4.6609,-2.2957,5.0783
545,-9.1969,-0.3449,-0.1916,4.7304,-1.3217,5.0783
550,-9.2352,-0.4598,-0.0766,4.7304,-0.487,4.7304
555,-9.2352,-0.3449,-0.3832,4.8696,0.3478,4.5913
560,-9.1586,-0.3449,-0.1916,5.0783,1.113,4.1739
565,-9.2352,-0.3066,-0.1916,5.287,1.8087,3.8957
570,-9.1586,-0.2682,-0.2299,5.6348,2.6435,3.6174
575,-9.1202,-0.3449,-0.2299,5.7043,3.2,3.3391
580,-9.1586,-0.1533,-0.3449,5.9826,3.8261,2.8522
585,-9.1202,-0.1533,-0.3449,6.2609,4.3826,2.5739
590,-9.0819,-0.115,-0.4982,6.4,5.0087,2.3652
595,-9.0436,-0.0766,-0.2682,6.4,5.5652,2.2261
600,-9.0436,0.0,-0.1916,6.1217,6.2609,2.087
605,-9.0436,0.0,-0.3832,5.8435,7.0261,1.9478
610,-8.9286,0.0383,-0.3449,5.4957,7.6522,1.8087
615,-8.9286,0.0383,-0.4215,4.8,8.3478,1.7391
620,-9.0053,0.0766,-0.3832,4.2435,9.0435,1.6696
625,-9.0053,0.0383,-0.2682,3.4783,9.6,1.4609
630,-8.9286,0.0383,-0.4598,2.713,10.2261,1.3913
635,-9.0436,0.0766,-0.3449,2.0174,10.6435,1.2522
640,-8.9286,0.0383,-0.4982,1.1826,10.9913,1.1826
645,-9.0436,0.0766,-0.4215,0.0696,11.4783,1.0435
650,-9.1202,0.1533,-0.3449,-0.9043,11.8261,1.113
655,-9.0053,0.115,-0.3832,-1.8087,12.1043,1.113
660,-9.1969,0.0766,-0.3066,-2.6435,12.313,0.9739
665,-9.1969,0.0766,-0.4598,-3.4783,12.4522,0.9043
670,-9.1202,0.0,-0.5365,-4.1739,12.7304,0.6957
675,-9.2352,0.0,-0.5365,-4.8696,13.1478,0.5565
680,-9.0819,0.0,-0.5748,-5.5652,13.5652,0.4174
685,-9.3118,0.0,-0.3449,-6.1217,13.913,0.2783
690,-9.2352,0.0,-0.6131,-6.5391,14.2609,0.1391
695,-9.2352,0.0383,-0.5748,-6.7478,14.7478,-0.0696
700,-9.3885,0.0,-0.5748,-6.887,15.1652,-0.4174
705,-9.3502,0.0,-0.5748,-6.9565,15.513,-0.7652
710,-9.3502,0.0383,-0.6131,-6.9565,15.7913,-1.0435
715,-9.3118,0.0,-0.6898,-6.887,15.8609,-1.3913
720,-9.4268,-0.0766,-0.7664,-6.8174,15.8609,-1.6696
725,-9.4268,0.0,-0.8814,-6.7478,15.7217,-2.087
730,-9.4268,-0.0766,-0.9197,-6.8174,15.5826,-2.5043
735,-9.4268,-0.1533,-0.958,-6.9565,15.3739,-2.9217
740,-9.5418,-0.0383,-0.958,-6.8174,15.0957,-3.2696
745,-9.5034,-0.0766,-0.9963,-6.8174,14.887,-3.6174
750,-9.6184,0.0766,-0.843,-6.9565,14.7478,-3.7565
755,-9.5034,-0.115,-0.9197,-6.9565,14.6087,-4.0348
760,-9.5801,-0.1916,-0.9197,-7.2348,14.3304,-4.1043
765,-9.6567,-0.0766,-1.1496,-7.3043,14.3304,-4.1739
770,-9.5418,-0.1533,-0.9963,-7.5826,14.1913,-4.2435
775,-9.5801,-0.1533,-0.958,-7.9304,14.0522,-4.3826
780,-9.5418,-0.3066,-0.9963,-8.0696,13.8435,-4.3826
785,-9.4268,-0.2299,-0.958,-8.3478,13.6348,-4.3826
790,-9.5034,-0.2299,-1.0346,-8.5565,13.287,-4.4522
795,-9.5801,-0.0766,-0.958,-8.7652,12.9391,-4.4522
800,-9.5418,-0.2299,-0.8814,-8.7652,12.5913,-4.3826
805,-9.3502,-0.3449,-0.9197,-8.8348,12.1043,-4.4522
810,-9.4651,-0.2682,-0.9963,-8.9043,11.687,-4.3826
815,-9.5418,-0.3066,-1.2263,-9.0435,11.2696,-4.313
820,-9.4268,-0.3066,-1.1496,-9.113,10.8522,-4.2435
825,-9.5034,-0.2682,-1.1496,-9.113,10.4348,-4.1739
830,-9.3885,-0.3449,-1.1113,-8.9739,10.0174,-4.1043
835,-9.5418,-0.2682,-0.9963,-8.9739,9.6696,-3.8957
840,-9.5034,-0.3449,-1.0346,-8.7652,9.3217,-3.7565
845,-9.4651,-0.3449,-0.958,-8.6957,8.9739,-3.6174
850,-9.4268,-0.4215,-1.1113,-8.5565,8.6261,-3.4783
855,-9.6184,-0.3449,-0.958,-8.487,8.3478,-3.3391
860,-9.4651,-0.3832,-0.843,-8.487,8.0,-3.2
865,-9.4268,-0.5365,-0.9963,-8.2783,7.6522,-3.2
870,-9.3885,-0.4598,-1.073,-7.9304,7.513,-3.0609
875,-9.5034,-0.4598,-0.9197,-7.7217,7.4435,-2.9217
880,-9.3885,-0.4215,-0.9963,-7.3739,7.3043,-2.7826
885,-9.5801,-0.4215,-0.958,-7.1652,7.1652,-2.6435
890,-9.4651,-0.4598,-0.958,-6.8174,6.887,-2.5043
895,-9.5801,-0.4598,-1.1113,-6.5391,6.5391,-2.2261
900,-9.4268,-0.4215,-1.1496,-6.2609,6.2609,-2.0174
905,-9.4651,-0.5748,-1.073,-5.913,5.9826,-1.8087
910,-9.4268,-0.3832,-0.9963,-5.7739,5.7043,-1.6696
915,-9.4268,-0.4598,-0.958,-5.6348,5.3565,-1.5304
920,-9.4651,-0.3449,-1.073,-5.4261,4.9391,-1.3913
925,-9.5034,-0.4215,-1.1113,-5.0783,4.6609,-1.1826
930,-9.4651,-0.3066,-1.2646,-4.8696,4.5217,-1.113
935,-9.5418,-0.3066,-1.2646,-4.9391,4.4522,-1.0435
940,-9.5034,-0.4598,-1.0346,-5.0087,4.2435,-0.9739
945,-9.5418,-0.3832,-1.1879,-5.1478,4.1043,-0.9043
950,-9.5034,-0.4598,-1.1879,-5.2174,3.8261,-0.9739
955,-9.5034,-0.3449,-1.1113,-5.3565,3.7565,-0.8348
960,-9.5801,-0.2682,-1.1496,-5.4957,3.6174,-0.7652
965,-9.5801,-0.4215,-1.2263,-5.5652,3.3391,-0.6261
970,-9.4268,-0.4982,-1.073,-5.6348,3.2,-0.487
975,-9.5418,-0.3066,-0.9963,-5.6348,2.9217,-0.487
980,-9.5801,-0.3832,-1.0346,-5.4957,2.713,-0.487
985,-9.5801,-0.3066,-0.958,-5.4957,2.5739,-0.487
990,-9.4651,-0.3832,-1.0346,-5.3565,2.2261,-0.487
995,-9.4268,-0.3449,-1.1113,-5.1478,2.2957,-0.4174
1000,-9.5801,-0.3449,-1.1113,-5.0087,2.1565,-0.4174
1005,-9.3885,-0.3832,-1.073,-4.7304,2.0174,-0.2783
1010,-9.4651,-0.3832,-1.0346,-4.7304,1.8783,-0.1391
1015,-9.4651,-0.4598,-0.958,-4.5913,1.7391,-0.1391
1020,-9.3885,-0.4215,-0.958,-4.5217,1.8087,0.0
1025,-9.4268,-0.4215,-0.958,-4.313,1.8087,-0.0696
1030,-9.3118,-0.3832,-0.8814,-4.0348,2.087,-0.0696
1035,-9.4268,-0.3832,-0.9197,-3.4087,2.087,-0.0696
1040,-9.4268,-0.4215,-0.9963,-2.9217,2.2261,0.0696
1045,-9.3118,-0.5365,-0.843,-2.4348,2.087,0.0696
1050,-9.3885,-0.3449,-1.0346,-1.7391,1.8783,0.2783
1055,-9.3885,-0.3449,-1.073,-1.1826,1.6,0.3478
1060,-9.4268,-0.4215,-1.1496,-0.9739,1.3217,0.6261
1065,-9.4268,-0.3066,-1.1113,-0.7652,1.1826,0.8348
1070,-9.3885,-0.2299,-1.1879,-0.8348,1.0435,0.9043
1075,-9.3885,-0.1533,-1.2646,-1.0435,0.7652,0.9739
1080,-9.5034,-0.0766,-1.2263,-1.4609,0.6261,0.9739
1085,-9.3885,-0.3066,-1.2263,-2.0174,0.487,0.9739
1090,-9.3118,-0.3449,-1.0346,-2.713,0.3478,0.8348
1095,-9.3502,-0.3449,-1.1496,-3.4087,0.2783,0.8348
1100,-9.3885,-0.2299,-0.8814,-3.9652,0.3478,0.8348
1105,-9.3885,-0.1916,-1.1113,-4.313,0.6957,0.7652
1110,-9.3502,-0.115,-1.073,-4.6609,0.9043,0.6261
1115,-9.4268,-0.3449,-0.843,-4.9391,1.113,0.6957
1120,-9.3118,-0.3066,-1.1113,-5.0783,1.3913,0.6261
1125,-9.3885,-0.3832,-0.9197,-5.0087,1.6696,0.3478
1130,-9.3502,-0.3066,-0.958,-4.6609,1.8087,0.0696
1135,-9.4651,-0.4215,-1.0346,-4.1043,1.8783,-0.1391
1140,-9.3885,-0.4598,-0.958,-3.8261,1.9478,-0.4174
1145,-9.3885,-0.3449,-1.0346,-3.4783,1.9478,-0.487
1150,-9.4268,-0.4215,-0.958,-3.1304,2.0174,-0.6261
1155,-9.3885,-0.3832,-1.073,-2.9217,2.087,-0.6261
1160,-9.4651,-0.3832,-1.1113,-2.9217,2.087,-0.6261
1165,-9.2735,-0.2682,-1.1879,-2.9217,2.2261,-0.5565
1170,-9.4268,-0.5365,-1.073,-2.8522,2.2261,-0.5565
1175,-9.4651,-0.1916,-1.0346,-3.0609,2.3652,-0.5565
1180,-9.4651,-0.1916,-0.958,-3.3391,2.3652,-0.4174
1185,-9.4651,-0.2682,-1.2263,-3.6174,2.4348,-0.487
1190,-9.4268,-0.3449,-1.1113,-4.0348,2.5739,-0.487
1195,-9.3118,-0.2682,-1.073,-4.3826,2.5739,-0.4174
1200,-9.3502,-0.2682,-1.1113,-4.8,2.5739,-0.5565
1205,-9.3118,-0.1533,-1.073,-5.0783,2.5739,-0.7652
1210,-9.2352,-0.2682,-1.1879,-5.2174,2.5043,-0.7652
1215,-9.3118,-0.2299,-1.0346,-5.287,2.5043,-0.9043
1220,-9.3118,-0.2682,-1.1496,-5.287,2.5043,-0.9739
1225,-9.4268,-0.3066,-1.0346,-5.3565,2.5043,-1.0435
1230,-9.3502,-0.3832,-1.1113,-5.3565,2.5739,-1.113
1235,-9.3885,-0.3449,-1.1113,-5.1478,2.5739,-0.9739
1240,-9.3885,-0.3449,-0.9197,-5.1478,2.6435,-1.0435
1245,-9.5034,-0.3832,-1.0346,-5.0087,2.6435,-1.0435
1250,-9.3118,-0.3066,-1.073,-4.9391,2.7826,-1.113
1255,-9.3502,-0.3066,-1.073,-4.8,2.7826,-1.113
1260,-9.5034,-0.2299,-0.843,-4.7304,2.8522,-1.0435
1265,-9.3118,-0.3449,-1.1113,-4.8,2.7826,-1.0435
1270,-9.2352,-0.4598,-1.0346,-4.8696,2.9913,-1.113
1275,-9.3885,-0.3066,-1.1496,-5.0783,2.9913,-1.1826
1280,-9.3502,-0.4215,-0.9963,-5.2174,3.0609,-1.2522
1285,-9.3502,-0.3066,-1.2646,-5.3565,3.0609,-1.113
1290,-9.4268,-0.3449,-0.9963,-5.4261,2.9913,-0.8348
1295,-9.4651,-0.3832,-1.1113,-5.2174,2.9217,-0.8348
1300,-9.3885,-0.3449,-1.073,-5.0783,2.8522,-0.9043
1305,-9.5418,-0.2682,-1.073,-4.8,2.713,-0.9739
1310,-9.3885,-0.3832,-1.073,-4.3826,2.713,-1.0435
1315,-9.5034,-0.3066,-1.1113,-3.9652,2.713,-1.1826
1320,-9.3885,-0.1533,-1.1496,-3.7565,2.6435,-1.113
1325,-9.3118,-0.4598,-1.0346,-3.3391,2.5739,-0.9043
1330,-9.4268,-0.4982,-0.958,-2.9913,2.6435,-0.7652
1335,-9.3502,-0.3832,-1.2263,-2.9217,2.5043,-0.6261
1340,-9.3118,-0.4598,-1.1113,-2.5739,2.5043,-0.487
1345,-9.3502,-0.4215,-1.073,-2.5043,2.4348,-0.2783
1350,-9.3118,-0.4598,-1.0346,-2.5043,2.2261,-0.2087
1355,-9.4268,-0.3066,-0.9963,-2.6435,2.087,-0.2087
1360,-9.3502,-0.3066,-1.073,-2.713,2.087,-0.1391
1365,-9.4268,-0.4982,-1.2263,-2.7826,2.1565,-0.2087
1370,-9.3885,-0.3449,-0.9963,-2.8522,2.2261,-0.2783
1375,-9.3502,-0.3449,-1.2646,-2.9217,2.2957,-0.2783
1380,-9.4268,-0.3449,-1.1496,-3.1304,2.4348,-0.2087
1385,-9.3502,-0.4215,-1.2263,-3.1304,2.5043,-0.3478
1390,-9.3885,-0.3449,-0.9963,-3.2,2.6435,-0.1391
1395,-9.4268,-0.3449,-1.1879,-3.5478,2.713,0.1391
1400,-9.3118,-0.3832,-1.073,-3.8261,2.5739,0.1391
1405,-9.4268,-0.3066,-1.1496,-3.8261,2.3652,0.0
1410,-9.4651,-0.2682,-1.1496,-3.8957,2.1565,-0.1391
1415,-9.3502,-0.3449,-0.958,-3.9652,2.1565,-0.2087
1420,-9.3885,-0.3066,-1.1496,-4.0348,2.087,-0.1391
1425,-9.4651,-0.1916,-1.1879,-4.1739,2.1565,-0.0696
1430,-9.5418,-0.3066,-1.1496,-4.1043,2.2261,-0.0696
1435,-9.5034,-0.3066,-1.1496,-4.1739,2.2957,-0.0696
1440,-9.2352,-0.4598,-0.9963,-4.1043,2.2957,-0.0696
1445,-9.5034,-0.3449,-1.073,-3.5478,2.3652,0.0
1450,-9.3885,-0.3066,-1.2646,-3.5478,2.2957,-0.2087
1455,-9.4651,-0.3832,-0.9963,-2.9913,2.2261,-0.1391
1460,-9.4268,-0.3449,-1.1496,-2.7826,2.1565,-0.2783
1465,-9.4268,-0.3449,-1.2646,-2.4348,2.0174,-0.1391
1470,-9.3502,-0.2682,-1.1879,-2.2261,1.8783,-0.1391
1475,-9.4651,-0.2299,-1.2263,-2.087,1.6,-0.2087
1480,-9.4268,-0.4215,-1.3412,-1.9478,1.5304,-0.2087
1485,-9.3502,-0.3449,-1.3412,-2.0174,1.2522,-0.2087
1490,-9.5034,-0.3066,-1.2263,-2.087,1.113,-0.1391
1495,-9.4651,-0.3832,-1.1879,-2.087,0.9739,-0.2783
1500,-9.3885,-0.3066,-1.2646,-2.087,0.8348,-0.2087
1505,-9.3118,-0.4215,-1.2646,-2.1565,0.7652,-0.0696
1510,-9.4268,-0.2682,-1.1879,-2.2957,0.7652,0.0
1515,-9.3885,-0.3449,-1.1496,-2.5739,0.7652,0.0
1520,-9.4651,-0.2682,-1.1113,-2.9217,0.7652,-0.0696
1525,-9.3885,-0.2682,-1.073,-3.3391,0.7652,-0.0696
1530,-9.4651,-0.1916,-1.1879,-3.5478,0.7652,0.0
1535,-9.3118,-0.3449,-1.1113,-3.8957,0.9043,0.0696
1540,-9.3118,-0.3449,-0.9197,-4.1043,0.9739,0.0696
1545,-9.4268,-0.4215,-1.1496,-4.1739,0.9739,0.0696
1550,-9.3502,-0.3066,-1.073,-4.1043,0.9043,0.0696
1555,-9.5034,-0.3449,-1.1113,-4.1043,0.9739,0.0696
1560,-9.4651,-0.1916,-1.1496,-3.8261,0.9043,-0.0696
1565,-9.5034,-0.3832,-0.9963,-3.5478,0.8348,0.0
1570,-9.3885,-0.3449,-1.2263,-3.2696,0.7652,-0.1391
1575,-9.3885,-0.3832,-1.1496,-2.8522,0.6957,0.0
1580,-9.4651,-0.3066,-1.3412,-2.6435,0.5565,0.0
1585,-9.3885,-0.2682,-1.0346,-2.4348,0.4174,0.0696
1590,-9.4268,-0.3449,-1.073,-2.5043,0.3478,0.0696
1595,-9.4651,-0.2682,-1.073,-2.5043,0.2087,0.0696
1600,-9.3885,-0.3066,-1.1113,-2.6435,0.0696,0.0
1605,-9.4268,-0.3066,-0.9963,-2.7826,0.1391,0.0
1610,-9.4651,-0.3449,-1.1496,-2.8522,0.0,-0.0696
1615,-9.5034,-0.3066,-1.073,-2.8522,-0.1391,-0.1391
1620,-9.4268,-0.1533,-1.1879,-2.6435,-0.2087,-0.1391
1625,-9.4651,-0.3449,-0.958,-2.5043,-0.2783,-0.2087
1630,-9.4651,-0.2682,-1.2263,-2.2261,-0.2087,-0.2087
1635,-9.4651,-0.2299,-1.1113,-2.087,-0.4174,-0.2087
1640,-9.3885,-0.3832,-1.1879,-2.0174,-0.487,-0.2783
1645,-9.4268,-0.1916,-1.2646,-2.1565,-0.3478,-0.2783
1650,-9.4651,-0.3449,-1.2263,-2.2261,-0.2087,-0.3478
1655,-9.4268,-0.2682,-1.0346,-2.4348,-0.1391,-0.3478
1660,-9.3502,-0.4215,-1.1879,-2.6435,0.0,-0.2783
1665,-9.3885,-0.3449,-1.073,-2.713,0.1391,-0.2783
1670,-9.3885,-0.3066,-1.1113,-2.9217,0.2087,-0.2783
1675,-9.3885,-0.4982,-1.073,-2.9913,0.2087,-0.2087
1680,-9.4651,-0.3832,-1.0346,-2.9217,0.3478,-0.2783
1685,-9.4651,-0.4215,-1.0346,-2.6435,0.6261,-0.2087
1690,-9.3885,-0.3832,-1.1113,-2.2957,0.6957,-0.2087
1695,-9.4268,-0.4598,-0.9963,-1.6696,0.6957,-0.0696
1700,-9.5034,-0.4598,-1.2646,-1.0435,0.5565,-0.0696
1705,-9.4651,-0.5365,-1.073,-0.5565,0.2783,-0.0696
1710,-9.3502,-0.3449,-1.2263,-0.2783,0.0696,0.1391
1715,-9.3885,-0.3449,-1.1496,-0.2087,-0.2087,0.2783
1720,-9.3502,-0.3449,-1.2646,-0.3478,-0.4174,0.4174
1725,-9.5034,-0.2299,-1.3412,-0.6261,-0.5565,0.487
1730,-9.3885,-0.2682,-1.2646,-1.113,-0.7652,0.5565
1735,-9.4651,-0.2299,-1.2263,-1.5304,-0.9739,0.487
1740,-9.3885,-0.3449,-1.0346,-1.8087,-1.2522,0.5565
1745,-9.4268,-0.0766,-1.0346,-2.0174,-1.3913,0.5565
1750,-9.3885,-0.3449,-1.1879,-2.1565,-1.4609,0.487
1755,-9.3502,-0.1916,-1.073,-2.2261,-1.4609,0.4174
1760,-9.3885,-0.3449,-1.1113,-2.1565,-1.4609,0.2783
1765,-9.3885,-0.3832,-1.0346,-2.1565,-1.3217,0.2087
1770,-9.3118,-0.2299,-1.1879,-1.9478,-1.2522,0.0696
1775,-9.4268,-0.3449,-0.9963,-1.8783,-1.0435,0.0
1780,-9.3885,-0.3449,-1.1496,-2.0174,-0.9043,-0.1391
1785,-9.3885,-0.3449,-1.1113,-1.8783,-0.8348,-0.2783
1790,-9.3885,-0.2682,-0.958,-1.6696,-0.7652,-0.4174
1795,-9.4268,-0.2299,-1.0346,-1.5304,-0.9043,-0.3478
1800,-9.5034,-0.3066,-1.1113,-1.4609,-0.9043,-0.2783
1805,-9.4651,-0.3066,-0.9963,-1.4609,-0.9043,-0.2783
1810,-9.4268,-0.3066,-1.073,-1.5304,-0.7652,-0.2087
1815,-9.4651,-0.2682,-1.2263,-1.6696,-0.6957,-0.2087
1820,-9.4651,-0.3449,-1.1113,-1.9478,-0.5565,-0.2087
1825,-9.5034,-0.4215,-1.1879,-2.087,-0.4174,-0.2087
1830,-9.5034,-0.3832,-1.073,-2.2261,-0.1391,-0.4174
1835,-9.3885,-0.3066,-1.1496,-2.5043,-0.0696,-0.2783
1840,-9.3885,-0.1533,-1.073,-2.6435,0.0696,-0.3478
1845,-9.3885,-0.3449,-1.1113,-2.8522,0.0696,-0.4174
1850,-9.4268,-0.2682,-1.073,-2.9217,0.2783,-0.5565
1855,-9.3885,-0.2682,-0.9197,-3.0609,0.3478,-0.487
1860,-9.4651,-0.3066,-1.1496,-3.0609,0.3478,-0.6957
1865,-9.4268,-0.2682,-0.9197,-3.1304,0.3478,-0.6957
1870,-9.5034,-0.1533,-1.1496,-2.9913,0.4174,-0.8348
1875,-9.3885,-0.3832,-1.073,-2.9913,0.5565,-0.9043
1880,-9.3885,-0.4215,-1.073,-2.7826,0.6957,-1.0435
1885,-9.4651,-0.3066,-1.073,-2.7826,0.8348,-1.0435
1890,-9.4268,-0.2682,-1.073,-2.5739,0.7652,-1.0435
1895,-9.3885,-0.2682,-1.073,-2.5043,0.9043,-1.113
1900,-9.4651,-0.1916,-1.1113,-2.5043,0.8348,-1.2522
1905,-9.5034,-0.3449,-0.958,-2.2261,1.0435,-1.2522
1910,-9.3885,-0.3449,-1.073,-2.1565,0.9739,-1.1826
1915,-9.4268,-0.1916,-1.1496,-2.1565,0.8348,-1.2522
1920,-9.4268,-0.3832,-0.9963,-2.2957,0.6957,-1.4609
1925,-9.3885,-0.3832,-1.0346,-2.4348,0.487,-1.5304
1930,-9.5418,-0.3066,-1.1113,-2.4348,0.4174,-1.4609
1935,-9.3885,-0.3832,-0.958,-2.6435,0.487,-1.3913
1940,-9.4268,-0.3449,-1.1496,-2.7826,0.5565,-1.3217
1945,-9.4268,-0.3066,-1.0346,-2.9217,0.5565,-1.3913
1950,-9.3118,-0.3832,-1.073,-2.8522,0.6261,-1.3217
1955,-9.3885,-0.3449,-1.073,-2.9913,0.5565,-1.3217
1960,-9.3885,-0.3832,-1.073,-2.713,0.5565,-1.3217
1965,-9.3885,-0.4215,-1.0346,-2.713,0.3478,-1.3217
1970,-9.3118,-0.3449,-1.073,-2.5043,0.2087,-1.1826
1975,-9.3118,-0.4598,-1.1879,-2.1565,0.2087,-1.1826
1980,-9.3118,-0.3832,-1.0346,-1.8087,0.2087,-1.113
1985,-9.3502,-0.4215,-0.9963,-1.5304,0.0696,-1.0435
1990,-9.4268,-0.3832,-1.073,-1.4609,0.0,-0.9043
1995,-9.3502,-0.3066,-0.9197,-1.1826,-0.2087,-0.9043
2000,-9.3885,-0.4215,-1.0346,-1.2522,-0.2087,-0.9043
2005,-9.3502,-0.2682,-1.0346,-1.3217,-0.2783,-0.8348
2010,-9.3502,-0.3832,-1.073,-1.3913,-0.2783,-0.8348
2015,-9.3502,-0.3449,-1.1879,-1.3913,-0.1391,-0.6957
2020,-9.3502,-0.3449,-1.1113,-1.3913,-0.0696,-0.6261
2025,-9.3118,-0.3449,-1.1496,-1.4609,-0.0696,-0.6261
2030,-9.4268,-0.3066,-0.958,-1.5304,-0.0696,-0.6261
2035,-9.3118,-0.3066,-1.0346,-1.5304,0.0,-0.5565
2040,-9.3502,-0.2299,-1.1113,-1.6696,-0.0696,-0.5565
2045,-9.4268,-0.3449,-1.1113,-1.8087,-0.2087,-0.5565
2050,-9.3502,-0.4215,-1.0346,-2.0174,-0.3478,-0.4174
2055,-9.3885,-0.3449,-1.0346,-2.2261,-0.3478,-0.487
2060,-9.3502,-0.3066,-0.9197,-2.2261,-0.487,-0.487
2065,-9.4268,-0.4215,-1.0346,-2.2957,-0.6957,-0.487
2070,-9.3885,-0.2299,-1.0346,-2.4348,-0.6261,-0.487
2075,-9.4268,-0.3832,-0.958,-2.2957,-0.6261,-0.5565
2080,-9.4268,-0.4598,-0.9963,-2.2957,-0.5565,-0.487
2085,-9.4268,-0.3832,-0.9197,-2.1565,-0.5565,-0.5565
2090,-9.4651,-0.4215,-0.8814,-2.087,-0.5565,-0.5565
2095,-9.5034,-0.3449,-1.1496,-1.8783,-0.487,-0.487
2100,-9.4651,-0.3066,-0.958,-1.8087,-0.6261,-0.4174
2105,-9.3118,-0.3449,-1.1113,-1.6696,-0.6261,-0.4174
2110,-9.4651,-0.2682,-0.9197,-1.7391,-0.6957,-0.487
2115,-9.3502,-0.3066,-0.958,-1.7391,-0.6261,-0.487
2120,-9.3885,-0.2299,-1.1113,-1.6696,-0.7652,-0.4174
2125,-9.3885,-0.3832,-0.9197,-1.7391,-0.8348,-0.3478
2130,-9.3885,-0.1916,-0.958,-1.7391,-0.8348,-0.3478
2135,-9.3502,-0.3066,-1.1113,-1.7391,-0.9043,-0.4174
2140,-9.3502,-0.3066,-1.073,-1.8087,-0.9739,-0.487
2145,-9.3118,-0.3832,-0.9963,-1.7391,-1.113,-0.487
2150,-9.3118,-0.3449,-1.0346,-1.8087,-1.2522,-0.4174
2155,-9.4268,-0.3066,-0.8814,-1.8087,-1.3217,-0.487
2160,-9.3885,-0.4215,-1.1113,-1.9478,-1.3913,-0.487
2165,-9.3885,-0.3066,-0.958,-2.0174,-1.3913,-0.6261
2170,-9.4651,-0.3066,-0.8814,-2.087,-1.3217,-0.5565
2175,-9.3502,-0.3449,-0.9963,-2.1565,-1.3913,-0.5565
2180,-9.5034,-0.2682,-0.8814,-2.1565,-1.2522,-0.6261
2185,-9.5418,-0.3066,-1.0346,-2.087,-1.0435,-0.6957
2190,-9.4651,-0.1916,-0.9197,-2.2261,-0.7652,-0.6957
2195,-9.4651,-0.2682,-1.073,-2.1565,-0.6261,-0.7652
2200,-9.5034,-0.3066,-1.0346,-2.0174,-0.4174,-0.7652
2205,-9.4651,-0.3449,-1.0346,-1.9478,-0.4174,-0.7652
2210,-9.5034,-0.3832,-0.958,-1.8783,-0.2783,-0.6957
2215,-9.4268,-0.3449,-0.958,-1.8087,-0.2783,-0.6957
2220,-9.5418,-0.2299,-1.1113,-1.6696,-0.3478,-0.7652
2225,-9.5418,-0.3066,-0.958,-1.3913,-0.4174,-0.7652
2230,-9.3502,-0.3832,-1.1113,-1.3913,-0.6261,-0.7652
2235,-9.3502,-0.3066,-1.0346,-1.2522,-0.6261,-0.7652
2240,-9.3885,-0.3832,-0.9963,-1.1826,-0.6261,-0.8348
2245,-9.4268,-0.2682,-0.9963,-1.113,-0.6261,-0.7652
2250,-9.4651,-0.3449,-1.073,-1.113,-0.5565,-0.7652
2255,-9.4268,-0.3066,-0.9963,-1.2522,-0.6261,-0.6261
2260,-9.5801,-0.2299,-0.9963,-0.9739,-0.6957,-0.5565
2265,-9.4651,-0.3832,-0.9197,-1.0435,-0.9043,-0.487
2270,-9.3885,-0.4598,-0.8814,-0.9043,-1.1826,-0.4174
2275,-9.5418,-0.3449,-1.073,-0.7652,-1.3217,-0.3478
2280,-9.3885,-0.4598,-1.0346,-0.6261,-1.6,-0.4174
2285,-9.3502,-0.3449,-0.9197,-0.6261,-1.8087,-0.3478
2290,-9.5418,-0.3832,-0.8814,-0.487,-2.2957,-0.3478
2295,-9.5034,-0.3832,-1.073,-0.487,-2.5043,-0.3478
2300,-9.4651,-0.4215,-0.9197,-0.3478,-2.5043,-0.2783
2305,-9.4651,-0.3449,-0.958,-0.487,-2.5043,-0.3478
2310,-9.3885,-0.3449,-0.958,-0.4174,-2.5739,-0.3478
2315,-9.4651,-0.3066,-0.9197,-0.5565,-2.7826,-0.2087
2320,-9.4268,-0.4598,-0.9197,-0.5565,-2.8522,-0.2087
2325,-9.5418,-0.4982,-0.958,-0.6261,-2.9913,-0.3478
2330,-9.5801,-0.4598,-1.1496,-0.487,-3.2,-0.3478
2335,-9.6184,-0.6131,-1.073,-0.1391,-3.4087,-0.2783
2340,-9.5418,-0.6514,-1.0346,0.4174,-3.5478,-0.2087
2345,-9.4651,-0.5748,-0.958,1.2522,-3.8957,0.0696
2350,-9.4268,-0.6898,-0.9197,2.2261,-4.313,0.2783
2355,-9.5801,-0.6514,-0.958,3.0609,-4.6609,0.5565
2360,-9.5418,-0.7664,-0.7281,4.3826,-4.9391,0.9739
2365,-9.5418,-0.8047,-0.958,5.8435,-5.287,1.2522
2370,-9.5801,-0.7664,-0.7664,7.2348,-5.4261,1.4609
2375,-9.6184,-0.6514,-0.843,8.6957,-5.4957,1.7391
2380,-9.4268,-0.5748,-0.8047,10.0174,-5.4957,1.8087
2385,-9.3885,-0.5365,-0.5365,11.2696,-5.4261,1.8783
2390,-9.4651,-0.4982,-0.7281,12.3826,-5.1478,1.8783
2395,-9.5034,-0.4982,-0.5365,13.2174,-5.0087,1.8783
2400,-9.4651,-0.3066,-0.4982,13.7739,-4.8696,1.6696
2405,-9.4268,-0.2682,-0.3066,13.913,-4.8696,1.6
2410,-9.5801,-0.1533,-0.3066,13.7739,-4.7304,1.6
2415,-9.3885,-0.1533,-0.4982,13.287,-5.0087,1.6696
2420,-9.5418,0.0,-0.3449,12.4522,-5.287,1.7391
2425,-9.5418,-0.2682,-0.3832,11.4783,-5.5652,1.7391
2430,-9.4651,-0.3066,-0.4982,10.3652,-5.8435,1.6696
2435,-9.5801,-0.2299,-0.5365,9.2522,-6.1217,1.7391
2440,-9.5034,-0.3449,-0.5365,8.3478,-6.5391,1.8783
2445,-9.5418,-0.4215,-0.4215,7.5826,-6.887,1.9478
2450,-9.5801,-0.4982,-0.3449,7.2348,-7.4435,2.087
2455,-9.6567,-0.4598,-0.3066,7.0261,-7.7217,2.2957
2460,-9.5418,-0.3832,-0.4598,6.9565,-7.7913,2.4348
2465,-9.5418,-0.5365,-0.5748,7.0957,-7.7913,2.5739
2470,-9.6567,-0.4215,-0.5365,7.4435,-7.9304,2.5739
2475,-9.6184,-0.5365,-0.4598,7.5826,-8.0,2.713
2480,-9.6567,-0.4215,-0.4598,7.7913,-8.2087,2.7826
2485,-9.6567,-0.4598,-0.4982,7.9304,-8.487,2.9913
2490,-9.7334,-0.3449,-0.4215,7.9304,-9.0435,2.9217
2495,-9.6567,-0.2682,-0.4598,7.7913,-9.8087,2.9913
2500,-9.6567,-0.2299,-0.5365,7.3043,-10.5739,2.9913
2505,-9.6184,-0.3066,-0.6898,6.8174,-11.4783,3.0609
2510,-9.7334,-0.1916,-0.4598,6.4,-12.5217,3.2
2515,-9.7717,-0.2682,-0.6131,5.7739,-13.4261,3.3391
2520,-9.7334,-0.2682,-0.6514,5.2174,-14.4,3.2
2525,-9.7717,-0.3832,-0.5748,4.313,-15.4435,3.1304
2530,-9.81,-0.3449,-0.6514,3.4783,-16.4174,3.1304
2535,-9.695,-0.4215,-0.6131,2.6435,-17.3217,3.1304
2540,-9.81,-0.4982,-0.5365,2.1565,-18.1565,3.1304
2545,-9.7334,-0.4598,-0.6514,1.9478,-18.9913,3.0609
2550,-9.5801,-0.4598,-0.6898,2.0174,-19.4783,2.9913
2555,-9.6567,-0.5748,-0.4215,2.4348,-19.7565,3.0609
2560,-9.6567,-0.7281,-0.4982,2.9913,-19.9652,2.8522
2565,-9.5801,-0.4598,-0.3832,3.8261,-20.1043,2.6435
2570,-9.6184,-0.4982,-0.3832,4.8,-20.1043,2.5043
2575,-9.5418,-0.5748,-0.2682,5.4261,-20.313,2.2261
2580,-9.5801,-0.4982,-0.5365,6.0522,-20.4522,2.0174
2585,-9.5034,-0.4598,-0.3449,6.7478,-20.6609,1.6696
2590,-9.5801,-0.3449,-0.4598,7.1652,-21.0087,1.2522
2595,-9.6184,-0.2682,-0.3832,7.513,-21.287,0.9043
2600,-9.5034,-0.2682,-0.3832,7.7217,-21.5652,0.6957
2605,-9.5418,-0.4215,-0.5365,7.6522,-21.7739,0.6957
2610,-9.5034,-0.2682,-0.4215,7.3043,-22.1217,0.7652
2615,-9.5418,-0.2299,-0.3832,6.8174,-22.4696,0.6957
2620,-9.5801,-0.1916,-0.6514,6.2609,-23.0261,0.7652
2625,-9.3885,-0.2682,-0.4215,5.7739,-23.4435,0.6957
2630,-9.4268,-0.0766,-0.3832,5.4957,-23.5826,0.6957
2635,-9.4268,-0.1916,-0.3832,5.1478,-23.7217,0.6957
2640,-9.5418,-0.1916,-0.4598,4.8,-23.8609,0.7652
2645,-9.4651,-0.2299,-0.4215,4.2435,-23.9304,0.9043
2650,-9.3885,-0.2682,-0.3449,3.4783,-24.2087,0.9739
2655,-9.3885,-0.1533,-0.3066,2.9913,-24.6261,0.8348
2660,-9.3502,-0.3066,-0.3832,2.713,-24.9043,0.487
2665,-9.3885,-0.2299,-0.2299,2.9913,-25.3217,-0.1391
2670,-9.4268,-0.2299,-0.1533,3.3391,-25.8087,-0.9043
2675,-9.3502,-0.2682,-0.2299,4.0348,-26.5043,-1.6696
2680,-9.5418,-0.1533,-0.2299,4.8,-27.2,-2.2957
2685,-9.5418,-0.0766,-0.0383,5.3565,-27.687,-2.7826
2690,-9.5034,-0.2682,-0.115,5.3565,-28.1043,-3.0609
2695,-9.4268,-0.1916,-0.0383,5.0783,-28.1043,-2.9913
2700,-9.4651,-0.1533,0.0383,5.0783,-28.2435,-2.8522
2705,-9.4651,-0.2299,0.0383,4.6609,-28.4522,-2.8522
2710,-9.5801,0.0,-0.115,4.1739,-29.0087,-2.8522
2715,-9.5034,-0.115,0.0766,3.4087,-29.7043,-2.7826
2720,-9.5034,-0.0766,0.0766,2.5043,-30.5391,-2.5739
2725,-9.5801,0.0,0.1533,1.7391,-31.4435,-2.6435
2730,-9.3885,0.0,0.1916,0.8348,-32.487,-2.5043
2735,-9.6567,-0.1533,0.0383,-0.0696,-33.6,-2.1565
2740,-9.6567,-0.0383,0.0383,-1.1826,-34.5739,-1.8087
2745,-9.6184,-0.115,0.2299,-2.1565,-35.5478,-1.6696
2750,-9.6567,-0.1916,0.1916,-2.7826,-36.7304,-1.5304
2755,-9.5034,-0.0766,0.0383,-3.3391,-37.7043,-1.3913
2760,-9.4268,-0.2299,0.2299,-3.8261,-38.7478,-1.113
2765,-9.4651,-0.115,0.1533,-4.313,-39.513,-0.9739
2770,-9.3502,-0.2682,0.115,-5.1478,-40.3478,-0.2783
2775,-9.3502,-0.2299,0.115,-5.7043,-40.9043,0.0696
2780,-9.1969,-0.2682,0.2682,-5.8435,-41.3913,0.2087
2785,-9.2352,-0.3449,0.2682,-5.4957,-41.5304,0.2087
2790,-9.0819,-0.3449,0.4215,-4.8,-41.6,0.3478
2795,-9.0436,-0.3066,0.4598,-4.1739,-41.4609,0.487
2800,-9.0053,-0.2682,0.4215,-3.4087,-41.5304,0.6957
2805,-8.9286,-0.2682,0.4598,-2.7826,-41.5304,0.9739
2810,-8.9286,-0.3066,0.5748,-2.1565,-41.6,1.3913
2815,-8.967,-0.0383,0.8047,-1.6696,-41.8783,1.7391
2820,-9.0436,0.0,0.6514,-1.3217,-42.2957,2.087
2825,-9.1202,-0.0383,0.6898,-1.0435,-43.0609,2.1565
2830,-9.1586,0.0,0.843,-0.7652,-43.8261,2.1565
2835,-9.3118,0.0,0.843,-0.8348,-44.8696,2.2957
2840,-9.2735,0.0,0.8814,-0.6957,-45.913,2.1565
2845,-9.2735,-0.0766,0.8047,-0.7652,-46.9565,1.8783
2850,-9.4651,-0.0383,1.0346,-0.9739,-48.2783,1.7391
2855,-9.5418,-0.115,0.958,-1.3913,-49.6696,1.6696
2860,-9.695,0.0,1.0346,-1.8087,-51.1304,1.5304
2865,-9.6184,-0.115,1.1113,-2.4348,-52.3826,1.6
2870,-9.5801,-0.1916,1.3029,-3.1304,-53.4957,1.6696
2875,-9.5801,-0.2682,1.1113,-3.7565,-54.4,1.8783
2880,-9.5034,-0.1533,1.2263,-4.5217,-55.0261,2.087
2885,-9.3885,-0.3449,1.073,-5.2174,-55.3043,2.2261
2890,-9.4268,-0.2682,1.2263,-5.4957,-55.3739,2.087
2895,-9.2352,-0.2682,1.4562,-5.7043,-55.3739,2.0174
2900,-9.2735,-0.2682,1.4945,-5.7043,-55.0957,1.8783
2905,-9.0819,-0.2682,1.5328,-5.5652,-55.0261,1.9478
2910,-9.0819,-0.1916,1.4945,-5.4261,-55.0261,1.8087
2915,-9.0053,-0.1533,1.6478,-5.287,-55.2348,1.6696
2920,-9.0819,-0.0383,1.7244,-5.287,-55.7913,1.6696
2925,-9.0819,0.0,1.6095,-5.2174,-56.6261,1.6
2930,-9.1586,0.0,1.8777,-5.2174,-57.5304,1.7391
2935,-9.0436,0.0,1.6861,-5.0087,-58.5043,1.6
2940,-9.0436,0.0383,1.8011,-4.8,-59.5478,1.3217
2945,-9.2352,0.0766,1.7627,-4.6609,-60.3826,0.8348
2950,-9.0819,-0.115,1.7627,-4.6609,-61.0783,0.6261
2955,-9.2735,0.0,1.8777,-4.5913,-61.2174,0.9043
2960,-9.1586,-0.0383,1.5711,-4.4522,-61.1478,1.6
2965,-9.1969,-0.0766,1.6095,-4.1739,-61.0087,2.2261
2970,-9.1202,-0.0766,1.8777,-3.8957,-60.8,2.713
2975,-9.0436,-0.115,1.7244,-2.7826,-60.2435,2.5739
2980,-9.0436,-0.1533,1.8011,-2.0174,-59.7565,2.3652
2985,-8.7754,-0.0766,2.1076,-2.087,-58.9913,2.3652
2990,-8.6987,-0.0766,2.1459,-2.4348,-58.2261,2.3652
2995,-8.5838,-0.0383,2.2609,-2.9913,-57.113,2.4348
