timestamp,accX,accY,accZ,gyroX,gyroY,gyroZ
0,-0.8814,4.7134,-8.6221,5.3565,5.7043,-4.313
5,-0.958,4.79,-8.737,5.7043,5.913,-4.4522
10,-0.7664,4.6751,-8.6604,5.913,6.2609,-4.3826
15,-0.6898,4.79,-8.7754,6.0522,6.5391,-4.3826
20,-0.8814,4.8284,-8.5838,5.7739,6.9565,-4.313
25,-0.6898,4.7517,-8.5838,5.5652,7.2348,-4.1043
30,-0.6514,4.7134,-8.6221,5.1478,7.7913,-3.8957
35,-0.4982,4.7134,-8.4305,4.8,8.2087,-3.687
40,-0.6898,4.8284,-8.5838,4.2435,8.487,-3.3391
45,-0.6514,4.7517,-8.4688,3.5478,8.7652,-3.2
50,-0.7281,4.6751,-8.3155,3.2696,9.0435,-3.0609
55,-0.6514,4.8284,-8.3538,2.9217,9.1826,-3.0609
60,-0.5748,4.7517,-8.2005,2.9913,9.3217,-2.9217
65,-0.6514,4.8284,-8.3921,3.2696,9.5304,-2.8522
70,-0.6514,4.6751,-8.2005,3.8261,9.6696,-3.0609
75,-0.6898,4.7517,-8.3921,4.5217,9.6,-2.9217
80,-0.5748,4.6751,-8.2005,5.3565,9.6,-2.9913
85,-0.7281,4.6751,-8.1239,6.1913,9.5304,-3.2
90,-0.4598,4.6368,-8.4305,7.0261,9.3217,-3.4087
95,-0.6898,4.7517,-8.2389,7.7217,9.0435,-3.4783
100,-0.5365,4.6751,-8.1622,8.2783,8.8348,-3.6174
105,-0.6131,4.7517,-8.2005,8.9043,8.6261,-3.7565
110,-0.6898,4.6368,-8.0473,9.4609,8.2087,-3.8261
115,-0.5748,4.7517,-8.1239,10.087,7.8609,-4.0348
120,-0.6131,4.6368,-8.2772,10.713,7.5826,-4.0348
125,-0.6131,4.7134,-8.2772,11.4087,7.3739,-4.1739
130,-0.5365,4.5984,-8.3155,11.8261,7.1652,-4.4522
135,-0.6131,4.6751,-8.1622,11.8957,7.0957,-4.5913
140,-0.6514,4.6751,-8.4688,11.687,6.9565,-4.7304
145,-0.7281,4.6368,-8.5071,11.2,6.9565,-4.7304
150,-0.5748,4.79,-8.3921,10.6435,6.887,-4.8696
155,-0.6514,4.8284,-8.5071,9.9478,6.8174,-4.8
160,-0.6131,4.8667,-8.3921,9.3217,6.8174,-5.0087
165,-0.5365,4.79,-8.3538,8.8348,6.6783,-4.8696
170,-0.5748,4.7517,-8.3921,8.3478,6.4696,-4.8
175,-0.7664,4.79,-8.2005,7.8609,6.4,-4.6609
180,-0.6514,4.5984,-8.3538,7.3043,6.3304,-4.5913
185,-0.4982,4.79,-8.2772,6.7478,6.2609,-4.4522
190,-0.6514,4.6368,-8.3155,6.2609,6.2609,-4.4522
195,-0.5365,4.6751,-8.4688,5.6348,6.4,-4.313
200,-0.5365,4.6751,-8.2005,4.8696,6.4,-4.2435
205,-0.6131,4.79,-8.1622,4.313,6.4,-4.1739
210,-0.6131,4.79,-8.2005,3.8261,6.1913,-4.2435
215,-0.5365,4.6751,-8.4305,3.4783,5.913,-4.1739
220,-0.5365,4.6368,-8.2389,3.2,5.5652,-4.1043
225,-0.5748,4.5601,-8.3538,3.1304,5.0783,-3.8957
230,-0.5748,4.6368,-8.3155,3.1304,4.5913,-3.687
235,-0.6514,4.7134,-8.0856,3.1304,4.1043,-3.4783
240,-0.6131,4.6751,-8.3155,3.2,3.6174,-3.2696
245,-0.5748,4.8284,-8.2772,3.4087,3.3391,-3.0609
250,-0.5748,4.6751,-8.3921,3.4783,2.9217,-2.9913
255,-0.4598,4.6368,-8.2389,3.5478,2.7826,-2.713
260,-0.5748,4.6751,-8.2772,3.5478,2.5739,-2.6435
265,-0.5365,4.6751,-8.2389,3.5478,2.5739,-2.5043
270,-0.4982,4.7134,-8.5071,3.5478,2.5739,-2.5043
275,-0.5748,4.79,-8.3921,3.5478,2.6435,-2.5043
280,-0.5748,4.7134,-8.4688,3.3391,2.9913,-2.5739
285,-0.5365,4.79,-8.5071,3.2,3.2696,-2.713
290,-0.4215,4.79,-8.5071,3.0609,3.7565,-2.7826
295,-0.5748,4.8284,-8.6987,2.9217,4.0348,-2.9217
300,-0.4982,4.8284,-8.7754,2.7826,4.2435,-3.0609
305,-0.5748,4.6368,-8.6987,2.713,4.313,-3.0609
310,-0.5748,4.8284,-8.5454,2.7826,4.3826,-3.2
315,-0.6131,4.79,-8.5838,2.9217,4.3826,-3.4783
320,-0.6898,4.8284,-8.5071,2.9913,4.5217,-3.5478
325,-0.6131,4.79,-8.5071,2.9217,4.5913,-3.5478
330,-0.7281,4.7517,-8.5071,2.8522,4.5913,-3.7565
335,-0.4982,4.6751,-8.6221,2.8522,4.6609,-3.5478
340,-0.5748,4.5984,-8.4688,2.8522,4.5913,-3.4087
345,-0.6131,4.6751,-8.6221,2.8522,4.5913,-3.2696
350,-0.6514,4.7134,-8.3538,2.9913,4.4522,-2.9913
355,-0.6898,4.7134,-8.6221,3.1304,4.4522,-2.713
360,-0.6131,4.5984,-8.4688,3.2696,4.2435,-2.4348
365,-0.6131,4.5984,-8.5454,3.2,4.0348,-2.2261
370,-0.5748,4.6751,-8.5838,3.2696,3.7565,-2.1565
375,-0.5748,4.6368,-8.4305,3.4087,3.4087,-2.087
380,-0.5365,4.5984,-8.4688,3.5478,2.9913,-2.0174
385,-0.6131,4.79,-8.5838,3.7565,2.5739,-2.0174
390,-0.5748,4.6368,-8.4305,4.0348,2.1565,-1.9478
395,-0.4215,4.4068,-8.4305,4.313,1.8783,-1.7391
400,-0.6131,4.7134,-8.3155,4.5913,1.5304,-1.6696
405,-0.6131,4.7134,-8.4305,4.7304,1.3217,-1.6
410,-0.5748,4.6368,-8.5838,4.8696,1.3217,-1.4609
415,-0.4982,4.6751,-8.1239,4.8696,1.2522,-1.5304
420,-0.4598,4.7134,-8.4688,4.8,1.3217,-1.4609
425,-0.4982,4.7517,-8.5071,4.7304,1.2522,-1.3217
430,-0.4982,4.6368,-8.5454,4.4522,1.5304,-1.3913
435,-0.5365,4.6751,-8.5454,4.1739,1.7391,-1.3913
440,-0.4982,4.6368,-8.4305,4.0348,1.9478,-1.5304
445,-0.4982,4.5984,-8.3538,3.8957,2.1565,-1.3217
450,-0.4598,4.5601,-8.4688,4.0348,2.4348,-1.1826
455,-0.5748,4.6751,-8.3921,4.0348,2.5739,-0.9043
460,-0.4982,4.79,-8.3921,4.0348,2.5739,-0.7652
465,-0.6131,4.7134,-8.3538,4.0348,2.713,-0.487
470,-0.5365,4.7134,-8.2389,4.0348,2.713,-0.4174
475,-0.4982,4.79,-8.3921,4.1043,2.713,-0.3478
480,-0.5365,4.7134,-8.3155,4.0348,2.6435,-0.3478
485,-0.6131,4.7134,-8.2772,4.0348,2.5043,-0.2783
490,-0.6131,4.6368,-8.4305,3.9652,2.2261,-0.3478
495,-0.6131,4.5984,-8.3155,4.1043,1.8783,-0.2783
500,-0.5365,4.7134,-8.4688,4.313,1.5304,-0.2783
505,-0.6514,4.6751,-8.2389,4.4522,1.113,-0.2783
510,-0.6514,4.7134,-8.2772,4.6609,0.9739,-0.2783
515,-0.7281,4.7134,-8.4688,4.6609,0.9043,-0.4174
520,-0.6514,4.6751,-8.3921,4.5913,0.9739,-0.487
525,-0.6131,4.6368,-8.5071,4.4522,1.1826,-0.6261
530,-0.6514,4.6368,-8.5454,4.2435,1.3217,-0.6957
535,-0.5748,4.5984,-8.3155,4.1043,1.5304,-0.6261
540,-0.5365,4.6751,-8.5454,3.8957,1.6,-0.6261
545,-0.5748,4.5601,-8.3921,3.9652,1.6,-0.7652
550,-0.5365,4.5601,-8.3921,4.1043,1.4609,-0.8348
555,-0.5748,4.7517,-8.2772,4.313,1.4609,-0.8348
560,-0.6131,4.6368,-8.3921,4.5913,1.3217,-0.6957
565,-0.6514,4.5984,-8.2389,4.6609,1.113,-0.5565
570,-0.6131,4.7134,-8.2772,4.5913,0.9739,-0.6261
575,-0.4215,4.6751,-8.1239,4.4522,0.7652,-0.6261
580,-0.6131,4.5984,-8.3538,4.1043,0.5565,-0.487
585,-0.6131,4.7517,-8.3921,4.1043,0.4174,-0.487
590,-0.5748,4.7134,-8.3155,3.8261,0.2783,-0.6261
595,-0.6131,4.7134,-8.4688,3.687,0.3478,-0.6261
600,-0.6131,4.7134,-8.3921,3.3391,0.487,-0.487
605,-0.5748,4.6368,-8.4305,3.2,0.6261,-0.6261
610,-0.5748,4.6368,-8.4688,3.0609,0.7652,-0.6957
615,-0.4982,4.5984,-8.2389,2.9913,0.8348,-0.7652
620,-0.7281,4.7517,-8.4688,2.9913,0.6957,-0.6957
625,-0.6131,4.6368,-8.4305,3.0609,0.7652,-0.6957
630,-0.4982,4.5984,-8.6221,3.2,0.7652,-0.6957
635,-0.5748,4.4068,-8.2005,3.1304,0.6261,-0.7652
640,-0.5748,4.7517,-8.3921,3.0609,0.5565,-0.6261
645,-0.4982,4.6368,-8.4688,3.0609,0.5565,-0.5565
650,-0.4215,4.5984,-8.5071,2.9913,0.487,-0.4174
655,-0.4598,4.6368,-8.3921,2.9217,0.4174,-0.4174
660,-0.5365,4.6751,-8.4305,2.8522,0.4174,-0.2087
665,-0.4215,4.5601,-8.2772,2.7826,0.3478,-0.2783
670,-0.4215,4.5984,-8.4305,2.5739,0.2087,-0.2087
675,-0.4598,4.5984,-8.5454,2.5043,0.0,-0.2087
680,-0.4598,4.6368,-8.2772,2.4348,0.0,-0.0696
685,-0.4982,4.5601,-8.3921,2.4348,-0.1391,-0.1391
690,-0.5748,4.6368,-8.4305,2.5739,-0.1391,-0.0696
695,-0.5365,4.6368,-8.5071,2.5739,-0.2087,-0.1391
700,-0.4982,4.5984,-8.3921,2.6435,-0.1391,-0.2783
705,-0.4215,4.6368,-8.5071,2.7826,0.0,-0.2783
710,-0.4598,4.6368,-8.5071,2.8522,0.2087,-0.4174
715,-0.4982,4.6751,-8.3921,2.9913,0.2783,-0.4174
720,-0.5748,4.6751,-8.3155,3.2,0.4174,-0.6261
725,-0.4982,4.7134,-8.5454,3.2696,0.4174,-0.8348
730,-0.6514,4.6751,-8.2005,3.4087,0.487,-0.9043
735,-0.5748,4.6751,-8.3921,3.4783,0.487,-1.113
740,-0.5365,4.6751,-8.2389,3.4783,0.487,-1.1826
745,-0.7281,4.6368,-8.2389,3.4087,0.5565,-1.113
750,-0.3449,4.4452,-8.4688,3.2696,0.5565,-1.3913
755,-0.6131,4.6751,-8.2389,3.2,0.5565,-1.5304
760,-0.4598,4.6751,-8.3538,3.0609,0.487,-1.7391
765,-0.4982,4.5984,-8.3921,2.8522,0.487,-2.0174
770,-0.4598,4.6751,-8.2772,2.713,0.4174,-2.0174
775,-0.5748,4.7517,-8.3921,2.713,0.2783,-2.2261
780,-0.4598,4.5601,-8.3155,2.713,0.2087,-2.5043
785,-0.6131,4.5984,-8.4305,2.7826,0.1391,-2.7826
790,-0.6131,4.6751,-8.3921,2.9913,0.0,-2.9217
795,-0.6514,4.5218,-8.3538,3.2,-0.1391,-2.9217
800,-0.4982,4.6368,-8.2389,3.4783,-0.1391,-3.2
805,-0.5748,4.7134,-8.3155,3.8957,-0.3478,-3.3391
810,-0.5365,4.5984,-8.2772,4.1739,-0.3478,-3.4783
815,-0.6131,4.6368,-8.2005,4.5913,-0.5565,-3.5478
820,-0.5748,4.6751,-8.3538,4.9391,-0.6957,-3.7565
825,-0.4982,4.7134,-8.3921,5.2174,-0.7652,-3.7565
830,-0.4598,4.5601,-8.3921,5.7043,-0.7652,-3.687
835,-0.5365,4.7134,-8.4688,5.9826,-0.9043,-3.7565
840,-0.5365,4.4835,-8.3538,6.1913,-0.9043,-3.7565
845,-0.3832,4.6368,-8.4688,6.3304,-0.7652,-3.8261
850,-0.2299,4.8284,-8.5454,6.3304,-0.7652,-3.8957
855,-0.5365,4.7134,-8.3921,6.1913,-0.6957,-3.8261
860,-0.4982,4.5601,-8.4305,6.0522,-0.487,-3.8957
865,-0.5365,4.5984,-8.5071,5.8435,-0.4174,-3.8957
870,-0.4982,4.6751,-8.4305,5.7043,-0.3478,-3.8261
875,-0.5365,4.6751,-8.3538,5.4261,-0.2087,-3.7565
880,-0.6131,4.7517,-8.3538,5.287,-0.1391,-3.6174
885,-0.5365,4.7134,-8.3921,5.0783,-0.2087,-3.6174
890,-0.5365,4.7134,-8.3538,4.9391,-0.3478,-3.6174
895,-0.4982,4.7134,-8.4688,4.5913,-0.4174,-3.6174
900,-0.7281,4.6751,-8.3538,4.5913,-0.6261,-3.687
905,-0.6514,4.4068,-8.3155,4.3826,-0.8348,-3.687
910,-0.4598,4.6368,-8.1622,4.313,-1.113,-3.7565
915,-0.5365,4.5218,-8.2772,4.4522,-1.3217,-3.8261
920,-0.6514,4.5984,-8.3538,4.6609,-1.6,-3.687
925,-0.6898,4.5984,-8.4305,5.1478,-1.9478,-3.8261
930,-0.7281,4.5984,-8.3538,5.5652,-2.1565,-3.8261
935,-0.6514,4.5218,-8.3538,5.7739,-2.4348,-4.1043
940,-0.7281,4.6751,-8.2772,5.9826,-2.713,-4.2435
945,-0.6131,4.5218,-8.5454,5.9826,-2.7826,-4.5217
950,-0.6898,4.7134,-8.4305,5.8435,-2.9217,-4.7304
955,-0.7281,4.6751,-8.3155,5.7739,-3.0609,-4.8696
960,-0.6131,4.5984,-8.5454,5.913,-3.2,-5.0783
965,-0.6514,4.5601,-8.3921,6.3304,-3.3391,-5.3565
970,-0.7664,4.6368,-8.4688,6.9565,-3.2696,-5.5652
975,-0.7664,4.6368,-8.4688,7.7217,-3.2,-5.8435
980,-0.7281,4.5984,-8.3921,8.2783,-2.9913,-5.7739
985,-0.6898,4.5984,-8.5454,8.6261,-2.713,-5.6348
990,-0.6514,4.6368,-8.5838,8.9043,-2.3652,-5.4957
995,-0.6131,4.5601,-8.5454,8.8348,-2.0174,-5.2174
1000,-0.7664,4.5984,-8.5454,8.7652,-1.7391,-5.1478
1005,-0.843,4.6751,-8.3921,8.7652,-1.6,-4.7304
1010,-0.7664,4.6368,-8.3921,8.5565,-1.3913,-4.4522
1015,-0.8814,4.4835,-8.4688,8.487,-1.113,-4.2435
1020,-0.6898,4.5984,-8.3538,8.3478,-1.0435,-4.0348
1025,-0.8047,4.6368,-8.5071,8.1391,-0.9739,-3.9652
1030,-0.7281,4.5984,-8.3155,8.0,-1.0435,-3.8957
1035,-0.7281,4.5601,-8.4305,7.8609,-1.113,-3.8261
1040,-0.6898,4.5218,-8.4305,7.5826,-1.2522,-3.7565
1045,-0.6514,4.5218,-8.4305,7.513,-1.5304,-3.9652
1050,-0.8047,4.6751,-8.3921,7.4435,-1.8087,-4.0348
1055,-0.843,4.5601,-8.2772,7.6522,-2.2261,-4.2435
1060,-0.6898,4.4835,-8.3921,8.0696,-2.4348,-4.3826
1065,-0.8047,4.4835,-8.5838,8.7652,-2.8522,-4.5913
1070,-0.7281,4.4068,-8.5454,9.6696,-3.0609,-4.8
1075,-0.8047,4.4835,-8.6221,10.6435,-3.2696,-4.8
1080,-0.6131,4.5218,-8.6221,11.4087,-3.4783,-4.8
1085,-0.6514,4.4835,-8.6604,12.0348,-3.2696,-4.5217
1090,-0.7281,4.6368,-8.6604,12.3826,-3.1304,-4.3826
1095,-0.6898,4.6368,-8.737,12.5217,-2.8522,-4.1739
1100,-0.7281,4.6751,-8.737,12.4522,-2.5739,-3.7565
1105,-0.7664,4.6751,-8.7754,12.1043,-2.4348,-3.4783
1110,-0.8047,4.5601,-8.7754,11.5478,-2.0174,-3.1304
1115,-0.7281,4.7134,-8.6604,10.7826,-1.7391,-2.9217
1120,-0.6898,4.7134,-8.5454,10.2261,-1.5304,-2.8522
1125,-0.7664,4.4835,-8.4305,9.8087,-1.1826,-2.713
1130,-0.9963,4.4835,-8.5454,9.6,-0.9043,-2.4348
1135,-0.843,4.3685,-8.6604,9.5304,-0.6261,-2.2957
1140,-0.8047,4.4452,-8.5838,9.6,-0.3478,-2.2957
1145,-0.843,4.5218,-8.5454,9.6696,-0.0696,-2.087
1150,-0.7664,4.3302,-8.4688,9.6696,0.0696,-2.087
1155,-0.6898,4.3302,-8.5838,9.7391,0.2087,-1.9478
1160,-0.843,4.5218,-8.5838,9.6696,0.2087,-1.8087
1165,-0.8047,4.3685,-8.5838,9.6696,0.2087,-1.6696
1170,-0.843,4.5218,-8.5454,9.4609,0.2783,-1.5304
1175,-0.7281,4.3302,-8.4305,9.1826,0.2087,-1.4609
1180,-0.8814,4.2536,-8.6604,9.0435,0.0,-1.2522
1185,-0.7281,4.3302,-8.3921,9.0435,-0.2783,-1.1826
1190,-0.7664,4.4068,-8.6221,9.1826,-0.487,-1.3217
1195,-0.8814,4.4068,-8.3921,9.3217,-0.7652,-1.2522
1200,-0.7281,4.2919,-8.5071,9.5304,-1.0435,-1.1826
1205,-0.7664,4.4068,-8.4305,9.8087,-1.1826,-1.113
1210,-0.6514,4.3302,-8.4305,10.0174,-1.3913,-1.2522
1215,-0.6514,4.2919,-8.3921,10.1565,-1.7391,-1.2522
1220,-0.6514,4.4835,-8.5071,10.2261,-1.8783,-1.3217
1225,-0.7664,4.2152,-8.3921,10.1565,-1.9478,-1.3913
1230,-0.8047,4.3302,-8.3538,10.1565,-1.8783,-1.2522
1235,-0.9963,4.1003,-8.3538,10.3652,-2.0174,-1.3913
1240,-0.843,4.2919,-8.4305,10.6435,-2.2957,-1.6696
1245,-0.958,4.2536,-8.3538,10.9217,-2.5043,-1.9478
1250,-0.9197,4.4452,-8.2772,11.4087,-2.6435,-2.087
1255,-0.7281,4.2536,-8.4305,12.0348,-2.6435,-2.2957
1260,-0.8047,4.1386,-8.5454,12.6609,-2.7826,-2.5739
1265,-0.843,4.2919,-8.5838,13.287,-2.713,-2.7826
1270,-0.7664,4.2152,-8.6221,13.7043,-2.5739,-2.8522
1275,-0.843,4.1386,-8.5071,13.8435,-2.3652,-3.0609
1280,-0.8047,4.3685,-8.5071,13.8435,-2.2957,-3.0609
1285,-0.8814,4.062,-8.6221,13.7739,-2.1565,-3.2696
1290,-0.8814,3.9087,-8.6987,13.5652,-2.2261,-3.2
1295,-0.8814,4.2536,-8.6221,13.5652,-2.087,-3.2
1300,-0.843,4.1769,-8.7754,13.4957,-1.9478,-3.0609
1305,-0.958,4.2919,-8.8137,13.4957,-1.8087,-2.8522
1310,-0.8047,4.2152,-8.6987,13.4261,-1.8087,-2.713
1315,-0.7281,4.1769,-8.8137,13.4261,-1.6696,-2.4348
1320,-0.9197,4.2152,-8.6221,13.2174,-1.5304,-2.2957
1325,-0.6898,4.2536,-8.6221,12.9391,-1.1826,-2.087
1330,-0.6898,4.3302,-8.737,12.5913,-0.9043,-1.6696
1335,-0.7664,4.1769,-8.6987,12.2435,-0.7652,-1.4609
1340,-1.073,4.3685,-8.737,12.1043,-0.6957,-1.0435
1345,-0.9197,4.2919,-8.737,11.9652,-0.487,-0.9043
1350,-0.8047,4.1386,-8.737,11.8261,-0.2087,-0.487
1355,-0.843,4.2919,-8.737,11.687,0.0696,-0.487
1360,-0.958,4.1769,-8.5454,11.5478,0.2783,-0.4174
1365,-0.843,4.1769,-8.6987,11.5478,0.4174,-0.487
1370,-0.843,4.2152,-8.852,11.5478,0.5565,-0.7652
1375,-0.958,4.2536,-8.5454,11.6174,0.5565,-1.1826
1380,-0.843,4.1003,-8.8137,11.5478,0.487,-1.3913
1385,-0.9197,4.0236,-8.7754,11.4087,0.487,-1.4609
1390,-0.8814,4.1003,-8.8137,11.2,0.4174,-1.6
1395,-0.843,3.9087,-8.7754,10.9913,0.2087,-1.8087
1400,-0.8814,4.1769,-8.7754,10.7826,0.1391,-1.8783
1405,-0.8047,4.1003,-8.6221,10.2957,0.0,-2.087
1410,-0.9197,4.2152,-8.6221,10.0174,-0.0696,-2.1565
1415,-0.8814,4.0236,-8.6604,9.9478,-0.0696,-2.2957
1420,-0.7664,4.1003,-8.6221,9.6696,-0.0696,-2.5043
1425,-0.843,4.062,-8.6221,9.6,0.0696,-2.713
1430,-0.8814,3.9853,-8.852,9.5304,0.2783,-2.7826
1435,-0.8814,4.1003,-8.5454,9.5304,0.487,-2.9913
1440,-0.958,4.1769,-8.5838,9.6696,0.6261,-3.1304
1445,-0.6131,3.8704,-8.6604,9.8087,0.7652,-3.2
1450,-0.7281,3.8704,-8.8137,9.9478,0.9739,-3.2
1455,-0.9197,4.062,-8.737,10.087,1.113,-3.2696
1460,-0.7664,3.947,-8.737,10.1565,1.2522,-3.2696
1465,-0.7664,3.9853,-8.6987,10.2261,1.3217,-3.0609
1470,-0.843,4.0236,-8.6987,10.2957,1.4609,-2.8522
1475,-0.843,3.947,-8.7754,10.5739,1.4609,-2.7826
1480,-0.7281,4.0236,-8.6987,10.6435,1.2522,-2.5739
1485,-0.8814,4.062,-8.737,10.5043,1.113,-2.2957
1490,-0.958,4.1769,-8.8903,10.1565,0.9739,-2.087
1495,-0.8047,4.2152,-8.7754,9.7391,0.9043,-2.0174
1500,-0.8047,4.1003,-8.6604,9.113,0.7652,-1.8087
1505,-0.843,4.0236,-8.8137,8.487,0.8348,-1.6
1510,-0.8814,4.1769,-8.852,8.0696,0.9043,-1.5304
1515,-0.9197,4.1003,-8.852,7.513,0.9739,-1.3913
1520,-0.8814,4.0236,-8.7754,7.1652,0.9739,-1.3217
1525,-0.8814,4.062,-8.852,6.8174,1.0435,-1.3217
1530,-0.843,3.9853,-8.6987,6.5391,1.2522,-1.2522
1535,-0.8814,4.1003,-8.8137,6.1913,1.2522,-1.113
1540,-0.9197,3.9853,-8.6604,5.7739,1.3913,-1.1826
1545,-0.9197,4.0236,-8.7754,5.5652,1.4609,-1.113
1550,-0.8814,4.1003,-8.6987,5.3565,1.6696,-1.113
1555,-0.843,3.9853,-8.8137,5.0783,1.8087,-0.9739
1560,-1.0346,3.9087,-8.852,4.9391,1.9478,-0.9739
1565,-0.843,3.947,-8.5838,4.8696,2.0174,-0.9739
1570,-0.8814,4.0236,-8.6604,4.8,1.8783,-1.113
1575,-0.843,3.947,-8.6604,4.7304,1.7391,-1.0435
1580,-0.7664,3.9087,-8.5838,4.7304,1.6696,-0.9739
1585,-0.8047,3.947,-8.6221,4.7304,1.5304,-0.9739
1590,-0.7281,3.9853,-8.6221,4.8696,1.4609,-0.8348
1595,-0.7664,3.9853,-8.6987,5.0087,1.3217,-0.9043
1600,-0.8047,3.947,-8.6987,5.0783,1.2522,-0.7652
1605,-0.7664,4.062,-8.6987,5.287,1.2522,-0.7652
1610,-0.958,4.1003,-8.852,5.3565,1.1826,-0.9043
1615,-0.8047,3.9087,-8.852,5.2174,1.113,-0.9739
1620,-0.8814,4.0236,-8.7754,5.1478,1.2522,-1.1826
1625,-0.9197,4.1003,-8.9286,5.0783,1.3913,-1.3217
1630,-0.9197,4.0236,-8.852,5.0087,1.4609,-1.4609
1635,-0.8047,3.9853,-8.737,4.8,1.6,-1.3217
1640,-0.958,4.0236,-8.852,4.5913,1.8087,-1.2522
1645,-1.0346,4.0236,-8.8137,4.1739,2.087,-1.113
1650,-0.8814,4.0236,-8.737,3.8957,2.2261,-1.0435
1655,-0.7664,4.0236,-8.8137,3.8261,2.5043,-1.0435
1660,-0.958,3.9853,-8.852,3.6174,2.7826,-0.9043
1665,-0.9197,4.1003,-8.7754,3.4087,3.0609,-0.7652
1670,-0.6898,3.947,-8.5838,3.0609,3.1304,-0.6957
1675,-0.9197,3.9853,-8.737,2.713,3.2,-0.6261
1680,-0.9197,4.0236,-8.8137,2.4348,3.2,-0.6261
1685,-0.7664,3.8704,-8.6604,2.2261,3.1304,-0.4174
1690,-0.8047,4.062,-8.6221,2.1565,3.1304,-0.4174
1695,-0.7664,3.9853,-8.6604,2.087,3.0609,-0.2783
1700,-0.8047,4.0236,-8.5838,2.0174,2.9217,-0.487
1705,-0.843,4.1386,-8.6987,1.6696,2.713,-0.487
1710,-0.7281,4.1386,-8.6221,1.3217,2.6435,-0.4174
1715,-0.8047,4.1769,-8.5071,0.8348,2.2957,-0.487
1720,-0.7664,3.947,-8.6604,0.4174,2.087,-0.5565
1725,-0.958,4.2152,-8.6604,0.1391,1.8087,-0.487
1730,-0.843,3.9853,-8.5454,-0.1391,1.7391,-0.5565
1735,-0.8814,4.1003,-8.6987,-0.2087,1.6696,-0.6261
1740,-0.7664,3.947,-8.7754,-0.1391,1.8783,-0.7652
1745,-0.9197,4.0236,-8.5838,0.0,2.1565,-0.6957
1750,-0.8047,3.9853,-8.737,0.2087,2.4348,-0.6957
1755,-0.8814,4.0236,-8.6604,0.4174,2.713,-0.6261
1760,-0.8814,4.062,-8.852,0.6261,2.9913,-0.5565
1765,-0.8047,3.947,-8.852,0.8348,3.1304,-0.5565
1770,-0.8047,4.0236,-8.7754,0.8348,3.3391,-0.4174
1775,-0.7664,3.9853,-8.6604,0.8348,3.4783,-0.3478
1780,-0.7281,3.947,-8.8137,0.9043,3.5478,-0.4174
1785,-0.6898,3.9853,-8.7754,0.9043,3.4087,-0.2783
1790,-0.7664,4.062,-8.737,1.0435,3.3391,-0.2087
1795,-0.7281,3.9853,-8.5838,1.0435,3.2,-0.2087
1800,-0.6514,3.8704,-8.5838,0.8348,3.0609,-0.3478
1805,-0.6898,4.062,-8.737,0.8348,2.9913,-0.5565
1810,-0.8814,4.1003,-8.6221,0.7652,2.8522,-0.487
1815,-0.843,4.1003,-8.7754,0.9043,2.713,-0.6261
1820,-0.843,3.9087,-8.6221,1.113,2.6435,-0.6261
1825,-0.843,3.9853,-8.6604,1.6,2.5043,-0.7652
1830,-0.7664,3.8704,-8.737,2.087,2.3652,-0.5565
1835,-0.7281,4.0236,-8.8137,2.5739,2.3652,-0.6261
1840,-0.843,4.1003,-8.7754,2.9217,2.5043,-0.5565
1845,-0.8814,4.1003,-8.6987,3.2,2.5739,-0.487
1850,-0.8047,4.1769,-8.7754,3.3391,2.713,-0.4174
1855,-0.7281,4.0236,-8.8137,3.2696,2.713,-0.2087
1860,-0.843,4.1003,-8.737,2.9913,2.8522,-0.2783
1865,-0.6514,3.9853,-8.6221,2.6435,2.8522,-0.2783
1870,-0.6898,4.062,-8.737,2.1565,2.713,-0.1391
1875,-0.9197,4.1386,-8.6987,1.6696,2.713,-0.1391
1880,-0.8814,4.1769,-8.852,1.113,2.6435,0.0
1885,-0.958,3.947,-8.6604,0.6261,2.5739,0.0696
1890,-0.843,4.062,-8.737,0.2783,2.8522,0.0696
1895,-0.843,3.9853,-8.6221,0.2087,2.8522,0.0696
1900,-0.843,4.1003,-8.7754,0.0,2.9913,0.0696
1905,-0.843,4.1003,-8.7754,0.0,3.0609,0.1391
1910,-0.8047,4.062,-8.8137,0.0,3.2696,0.1391
1915,-0.8047,4.1386,-8.6221,0.0,3.4087,0.2087
1920,-0.7281,4.1386,-8.6604,0.0,3.7565,0.1391
1925,-0.8814,4.062,-8.6987,-0.0696,3.8261,0.2783
1930,-0.9963,4.2919,-8.6221,-0.2087,3.9652,0.4174
1935,-0.6898,4.0236,-8.6604,-0.2087,3.9652,0.6261
1940,-0.8814,4.3302,-8.8137,-0.2783,3.9652,0.8348
1945,-0.7664,4.1769,-8.6987,-0.2087,3.7565,0.9043
1950,-0.7664,4.1769,-8.737,-0.1391,3.5478,0.9043
1955,-0.843,4.1769,-8.6987,-0.2087,3.2696,0.8348
1960,-0.8814,4.2152,-8.6221,-0.2087,2.9913,1.0435
1965,-0.7664,4.1386,-8.737,-0.3478,2.713,1.113
1970,-0.6898,4.2152,-8.6221,-0.4174,2.5043,1.0435
1975,-0.7664,4.1003,-8.8903,-0.6957,2.3652,1.1826
1980,-0.7664,4.3302,-8.5838,-0.9043,2.2261,1.1826
1985,-0.9197,4.1769,-8.6221,-0.9739,2.087,1.1826
1990,-0.6898,4.1769,-8.5838,-1.1826,1.9478,1.0435
1995,-0.6514,4.062,-8.5454,-1.3913,1.7391,1.0435
2000,-0.6514,4.1003,-8.6987,-1.4609,1.8087,0.9043
2005,-0.6514,4.0236,-8.7754,-1.5304,1.8783,0.7652
2010,-0.7664,4.1386,-8.737,-1.5304,1.9478,0.6957
2015,-0.7664,4.2152,-8.5071,-1.6,2.0174,0.6261
2020,-0.843,4.2536,-8.5838,-1.5304,2.1565,0.5565
2025,-0.8047,4.1769,-8.852,-1.3913,2.4348,0.5565
2030,-0.6898,4.2152,-8.6221,-1.2522,2.6435,0.487
2035,-0.7281,4.0236,-8.5071,-1.113,2.713,0.6261
2040,-0.958,4.3302,-8.4688,-1.0435,2.7826,0.6957
2045,-0.7281,4.2152,-8.5071,-0.9739,2.8522,0.7652
2050,-0.9197,4.1003,-8.4688,-1.113,2.6435,1.0435
2055,-0.7664,4.1003,-8.6221,-1.0435,2.5043,1.1826
2060,-0.7664,4.1386,-8.5838,-0.9739,2.3652,1.2522
2065,-0.958,4.2919,-8.5838,-0.9739,2.2957,1.3217
2070,-0.7664,4.0236,-8.5454,-0.7652,2.1565,1.3913
2075,-0.8047,4.1386,-8.6604,-0.487,2.2261,1.3217
2080,-0.6898,4.062,-8.6221,-0.2783,2.2957,1.3217
2085,-0.6898,4.2152,-8.5454,-0.1391,2.3652,1.3217
2090,-0.6514,4.2152,-8.6604,0.0,2.4348,1.3217
2095,-0.6898,4.2152,-8.6987,0.0696,2.6435,1.3913
2100,-0.6898,4.2152,-8.737,0.2087,2.8522,1.3217
2105,-0.7664,4.1386,-8.3921,0.3478,2.9217,1.3913
2110,-0.6131,4.2536,-8.4305,0.4174,2.8522,1.3217
2115,-0.7281,4.0236,-8.5071,0.5565,2.7826,1.5304
2120,-0.6514,4.1769,-8.5838,0.7652,2.713,1.3913
2125,-0.7664,4.2919,-8.5838,1.1826,2.4348,1.3913
2130,-0.7281,4.1769,-8.5838,1.4609,2.2957,1.3217
2135,-0.6898,4.2536,-8.4688,1.6696,2.1565,1.3217
2140,-0.6898,4.3302,-8.6604,1.7391,2.2261,1.2522
2145,-0.7281,4.1769,-8.5454,1.7391,2.2957,1.2522
2150,-0.6898,4.2536,-8.5838,1.4609,2.3652,1.1826
2155,-0.7664,4.1769,-8.852,1.113,2.5043,1.0435
2160,-0.6898,4.062,-8.6987,0.7652,2.6435,0.9739
2165,-0.7281,4.2919,-8.6987,0.3478,2.7826,0.7652
2170,-0.7281,4.2919,-8.6604,0.0,2.9913,0.6261
2175,-0.6514,4.2152,-8.5454,-0.487,3.0609,0.5565
2180,-0.6514,4.3302,-8.6604,-0.7652,3.1304,0.5565
2185,-0.6898,4.2536,-8.6604,-0.9739,3.1304,0.487
2190,-0.6131,4.2536,-8.4688,-1.0435,3.2696,0.5565
2195,-0.6514,4.1386,-8.6604,-1.0435,3.2,0.4174
2200,-0.5748,4.1769,-8.737,-0.9043,3.2696,0.4174
2205,-0.6514,4.3302,-8.5838,-0.7652,3.3391,0.487
2210,-0.6131,4.2919,-8.5838,-0.7652,3.4783,0.3478
2215,-0.6514,4.2919,-8.5838,-0.6957,3.4783,0.4174
2220,-0.6514,4.3302,-8.5454,-0.7652,3.4783,0.4174
2225,-0.6131,4.2919,-8.6987,-0.9043,3.3391,0.2087
2230,-0.6514,4.4068,-8.6604,-0.9739,3.3391,0.2087
2235,-0.5748,4.3685,-8.5454,-1.0435,3.4087,0.2087
2240,-0.4982,4.2152,-8.5838,-1.113,3.3391,0.1391
2245,-0.6131,4.3685,-8.5838,-1.0435,3.4087,0.0696
2250,-0.5365,4.2919,-8.5071,-0.9043,3.3391,0.1391
2255,-0.7281,4.4068,-8.6604,-0.8348,3.4087,-0.0696
2260,-0.6131,4.2919,-8.6221,-0.6957,3.4783,-0.0696
2265,-0.4215,4.1769,-8.6604,-0.5565,3.5478,0.0
2270,-0.4982,4.2536,-8.6221,-0.4174,3.6174,-0.0696
2275,-0.5748,4.2919,-8.5454,-0.2783,3.7565,-0.1391
2280,-0.5748,4.2919,-8.737,-0.0696,3.7565,-0.2087
2285,-0.5748,4.3302,-8.5838,0.2087,3.687,-0.1391
2290,-0.6131,4.3685,-8.6987,0.2783,3.7565,-0.2783
2295,-0.5748,4.3685,-8.6987,0.4174,3.7565,-0.3478
2300,-0.6514,4.2536,-8.5071,0.6261,3.7565,-0.5565
2305,-0.6131,4.2919,-8.6987,0.6261,3.8261,-0.6261
2310,-0.6898,4.3302,-8.6221,0.5565,3.8261,-0.7652
2315,-0.6131,4.2152,-8.6604,0.487,3.6174,-0.8348
2320,-0.5748,4.3685,-8.4688,0.4174,3.5478,-0.7652
2325,-0.5365,4.2152,-8.5071,0.2783,3.4087,-0.8348
2330,-0.6514,4.4068,-8.5838,0.1391,3.2696,-0.8348
2335,-0.5365,4.3685,-8.5071,0.0,3.2696,-0.7652
2340,-0.5748,4.4452,-8.4688,0.0,3.1304,-0.8348
2345,-0.6514,4.3302,-8.6221,-0.1391,3.0609,-0.8348
2350,-0.4598,4.4068,-8.737,-0.2087,2.9913,-0.7652
2355,-0.6514,4.4452,-8.6604,-0.487,2.7826,-0.7652
2360,-0.5365,4.2919,-8.8137,-0.6261,2.5739,-0.8348
2365,-0.5365,4.4452,-8.6987,-0.9739,2.5043,-0.6957
2370,-0.6131,4.4068,-8.6221,-1.2522,2.5043,-0.6957
2375,-0.5748,4.3302,-8.737,-1.5304,2.6435,-0.8348
2380,-0.5748,4.4452,-8.5838,-1.6696,2.713,-1.0435
2385,-0.5748,4.3302,-8.737,-1.6,2.7826,-1.113
2390,-0.5748,4.4068,-8.737,-1.4609,3.0609,-1.113
2395,-0.5748,4.4068,-8.6604,-1.4609,3.1304,-1.1826
2400,-0.5365,4.5218,-8.737,-1.3913,3.4087,-1.2522
2405,-0.5748,4.4835,-8.6987,-1.3217,3.7565,-1.3217
2410,-0.4215,4.4452,-8.6221,-1.3913,4.0348,-1.2522
2415,-0.5748,4.4452,-8.6221,-1.6,4.3826,-1.113
2420,-0.6514,4.3302,-8.6604,-1.8087,4.6609,-1.113
2425,-0.6131,4.4068,-8.5838,-2.0174,4.8696,-1.0435
2430,-0.5365,4.4452,-8.6987,-2.1565,5.0783,-0.9739
2435,-0.5748,4.4068,-8.5454,-2.2957,5.0783,-0.9739
2440,-0.6131,4.4068,-8.5838,-2.3652,5.1478,-0.9043
2445,-0.4598,4.2919,-8.5454,-2.3652,5.1478,-0.8348
2450,-0.5365,4.4452,-8.4688,-2.1565,5.0087,-0.9043
2455,-0.5748,4.3685,-8.3921,-1.9478,4.8696,-0.9043
2460,-0.5748,4.4452,-8.4305,-1.6696,4.7304,-0.9043
2465,-0.4982,4.3685,-8.3538,-1.2522,4.5913,-0.7652
2470,-0.4982,4.3685,-8.6221,-0.6957,4.4522,-0.8348
2475,-0.5748,4.3685,-8.4305,-0.1391,4.2435,-0.8348
2480,-0.5365,4.2919,-8.6221,0.4174,4.0348,-0.7652
2485,-0.5365,4.4452,-8.3921,0.9043,3.8957,-0.8348
2490,-0.5365,4.3685,-8.5071,1.2522,3.9652,-0.7652
2495,-0.4215,4.5601,-8.5838,1.5304,3.8957,-0.7652
2500,-0.5365,4.4452,-8.4688,1.4609,3.8261,-0.9043
2505,-0.4982,4.4452,-8.5071,1.2522,3.8261,-1.0435
2510,-0.4215,4.4835,-8.7754,0.9043,3.8261,-1.1826
2515,-0.4598,4.4452,-8.5838,0.5565,3.8957,-1.3913
2520,-0.4982,4.4835,-8.5071,0.3478,3.9652,-1.6696
2525,-0.4598,4.2919,-8.3155,0.2087,4.0348,-1.8087
2530,-0.4598,4.4452,-8.5071,0.2087,4.0348,-1.9478
2535,-0.3832,4.4452,-8.5071,0.3478,3.9652,-1.8783
2540,-0.5365,4.5218,-8.7754,0.5565,3.8957,-2.0174
2545,-0.4598,4.5601,-8.5454,0.8348,3.8261,-1.9478
2550,-0.4598,4.4835,-8.4688,0.9739,3.7565,-1.8783
2555,-0.5748,4.5218,-8.5071,0.9739,3.8261,-1.8087
2560,-0.4982,4.5218,-8.5838,0.9043,3.8261,-1.8087
2565,-0.5365,4.4452,-8.5071,0.7652,3.8957,-1.6
2570,-0.4215,4.4835,-8.6221,0.487,3.8957,-1.4609
2575,-0.4598,4.4835,-8.4305,0.2783,3.9652,-1.3913
2580,-0.5365,4.4835,-8.5838,0.0696,3.8957,-1.2522
2585,-0.5365,4.4835,-8.3155,0.0696,3.8261,-1.0435
2590,-0.5365,4.5218,-8.4688,0.0,3.6174,-0.9739
2595,-0.4598,4.4835,-8.5454,-0.1391,3.3391,-0.9739
2600,-0.4598,4.4068,-8.4688,-0.3478,3.0609,-0.7652
2605,-0.5365,4.4068,-8.5454,-0.3478,2.7826,-0.5565
2610,-0.4598,4.5218,-8.5454,-0.3478,2.5043,-0.487
2615,-0.5365,4.5218,-8.4688,-0.1391,2.3652,-0.4174
2620,-0.4982,4.3685,-8.4688,0.2087,2.3652,-0.4174
2625,-0.4598,4.4068,-8.4305,0.6261,2.4348,-0.3478
2630,-0.3066,4.2152,-8.4305,0.8348,2.5739,-0.3478
2635,-0.5748,4.3685,-8.5838,0.9739,2.7826,-0.3478
2640,-0.4215,4.3302,-8.737,1.113,2.8522,-0.487
2645,-0.4215,4.4452,-8.5071,1.2522,2.9913,-0.4174
2650,-0.4215,4.4068,-8.2005,1.5304,3.0609,-0.5565
2655,-0.4982,4.4068,-8.4688,1.7391,3.0609,-0.5565
2660,-0.4982,4.4452,-8.5838,1.8087,2.9913,-0.6261
2665,-0.4598,4.4835,-8.6221,1.9478,3.0609,-0.6261
2670,-0.3449,4.3302,-8.5454,1.9478,3.0609,-0.6261
2675,-0.4598,4.5984,-8.6221,2.0174,3.1304,-0.6261
2680,-0.4598,4.4835,-8.4688,2.0174,3.2,-0.6261
2685,-0.4215,4.5601,-8.5838,2.0174,3.2,-0.487
2690,-0.3449,4.5601,-8.3155,2.087,3.2696,-0.4174
2695,-0.3066,4.5601,-8.5838,2.087,3.1304,-0.3478
2700,-0.2682,4.4835,-8.4688,2.0174,3.0609,-0.2087
2705,-0.1916,4.6368,-8.6221,1.9478,3.1304,-0.2783
2710,-0.5365,4.5601,-8.4305,1.8087,3.2,-0.2087
2715,-0.3832,4.4835,-8.4688,1.7391,3.1304,-0.2783
2720,-0.4598,4.5984,-8.4688,1.6696,3.1304,-0.2783
2725,-0.4215,4.5218,-8.5454,1.7391,3.1304,-0.1391
2730,-0.4598,4.5984,-8.5071,1.7391,3.0609,-0.0696
2735,-0.4598,4.5984,-8.4688,1.8087,2.9217,-0.2087
2740,-0.2682,4.4068,-8.3538,1.9478,2.9217,-0.1391
2745,-0.4982,4.5218,-8.4688,1.9478,2.9217,0.0
2750,-0.3449,4.4835,-8.5454,2.0174,2.9913,0.0696
2755,-0.4982,4.5984,-8.3921,1.9478,3.0609,0.2087
2760,-0.4598,4.6751,-8.737,1.8783,3.0609,0.1391
2765,-0.4215,4.4452,-8.3921,1.9478,2.9913,0.2783
2770,-0.4982,4.5984,-8.4305,1.8783,2.8522,0.3478
2775,-0.3832,4.4452,-8.3538,1.7391,2.713,0.3478
2780,-0.3832,4.4452,-8.5071,1.6,2.6435,0.2087
2785,-0.3832,4.5984,-8.4688,1.6696,2.5043,0.2087
2790,-0.3832,4.3685,-8.3921,1.6696,2.4348,0.2087
2795,-0.3832,4.5984,-8.4305,1.6696,2.2957,0.1391
2800,-0.4982,4.5601,-8.5454,1.7391,2.2261,0.2087
2805,-0.5365,4.6368,-8.4305,1.6,2.3652,0.0696
2810,-0.3066,4.6368,-8.4688,1.4609,2.3652,0.1391
2815,-0.6514,4.5601,-8.3921,1.4609,2.3652,0.0696
2820,-0.3832,4.5984,-8.5454,1.1826,2.2957,0.0
2825,-0.4598,4.6751,-8.4305,1.113,2.2957,0.0696
2830,-0.3832,4.5984,-8.5454,1.0435,2.2261,0.0
2835,-0.3832,4.5218,-8.5071,1.3217,2.2261,0.0696
2840,-0.4982,4.6751,-8.5071,1.5304,2.1565,0.0696
2845,-0.4215,4.5218,-8.5838,1.8783,2.0174,0.0
2850,-0.4215,4.5218,-8.3921,2.1565,1.8783,-0.0696
2855,-0.4215,4.6751,-8.5838,2.3652,1.6696,0.0
2860,-0.4598,4.5601,-8.4688,2.4348,1.6,0.0
2865,-0.3832,4.5218,-8.3921,2.5739,1.4609,0.0
2870,-0.3832,4.5218,-8.4305,2.713,1.3913,-0.0696
2875,-0.3066,4.5984,-8.5838,2.713,1.2522,-0.1391
2880,-0.3066,4.6368,-8.6221,2.5739,1.2522,-0.2087
2885,-0.4598,4.6368,-8.5838,2.2957,1.1826,-0.3478
2890,-0.4982,4.5984,-8.5071,2.087,1.2522,-0.3478
2895,-0.3832,4.7134,-8.2005,1.8783,1.2522,-0.487
2900,-0.2299,4.6368,-8.5071,1.9478,1.3217,-0.487
2905,-0.4598,4.5601,-8.2389,1.9478,1.3913,-0.6261
2910,-0.4982,4.5984,-8.3538,2.087,1.4609,-0.6957
2915,-0.1533,4.5984,-8.3921,2.2261,1.3913,-0.6261
2920,-0.5365,4.79,-8.4688,2.5043,1.3217,-0.7652
2925,-0.3832,4.5218,-8.3921,2.7826,1.1826,-0.7652
2930,-0.3449,4.5601,-8.4688,3.1304,1.1826,-0.6957
2935,-0.4598,4.7134,-8.5071,3.3391,1.1826,-0.6261
2940,-0.4215,4.6368,-8.5838,3.3391,1.2522,-0.5565
2945,-0.3832,4.6751,-8.3538,3.4783,1.3913,-0.487
2950,-0.1533,4.7134,-8.4688,3.3391,1.6696,-0.3478
2955,-0.3449,4.6368,-8.5071,3.1304,1.8087,-0.2783
2960,-0.3449,4.7517,-8.5071,2.9217,1.9478,-0.2783
2965,-0.3066,4.5984,-8.6987,2.713,2.1565,-0.3478
2970,-0.3832,4.5601,-8.3921,2.5739,2.1565,-0.2783
2975,-0.1916,4.5601,-8.3155,2.4348,2.087,-0.487
2980,-0.2682,4.6751,-8.4305,2.4348,1.9478,-0.487
2985,-0.3066,4.5218,-8.3921,2.5043,1.8087,-0.5565
2990,-0.4598,4.6751,-8.4688,2.5739,1.5304,-0.6261
2995,-0.4215,4.6368,-8.3538,2.6435,1.3913,-0.6261
