timestamp,accX,accY,accZ,gyroX,gyroY,gyroZ
0,8.6987,-2.0693,2.9123,8.4174,-37.0087,-13.6348
5,9.2352,-1.6861,2.9123,7.513,-35.3391,-16.0696
10,9.2352,-2.1459,2.2609,6.7478,-33.5304,-18.2261
15,9.1202,-1.916,2.5675,5.1478,-31.513,-19.9652
20,9.2735,-2.1843,2.7591,3.4087,-29.6348,-21.5652
25,9.1586,-1.916,2.2992,1.5304,-27.7565,-22.9565
30,9.1586,-1.916,2.6058,-0.1391,-25.6696,-24.0696
35,9.2735,-1.916,2.6058,-1.4609,-23.7913,-25.1826
40,9.4268,-1.8394,2.4525,-2.6435,-22.5391,-26.1565
45,9.4268,-1.4179,2.989,-3.8957,-21.9826,-27.2
50,9.6184,-1.6861,2.9123,-5.0087,-22.0522,-28.1043
55,9.9633,-1.6095,2.4525,-6.1217,-21.913,-28.5913
60,10.2315,-1.5328,3.0656,-6.9565,-21.4261,-28.9391
65,10.6147,-1.7627,3.1039,-7.7217,-20.4522,-29.1478
70,10.4614,-1.6861,2.9123,-8.1391,-19.4783,-29.3565
75,10.653,-1.2263,2.7591,-8.7652,-18.8522,-29.7043
80,10.6914,-1.1113,2.7591,-10.0174,-18.9913,-30.7478
85,11.1129,-0.958,3.1039,-12.0348,-20.4522,-32.487
90,11.3428,-1.3029,3.1039,-15.1652,-23.3739,-34.5739
95,10.6914,-1.1113,2.5675,-19.2,-27.4783,-36.8
100,10.4998,-0.5365,2.6824,-23.9304,-32.5565,-39.0261
105,10.0399,-0.843,2.9123,-29.287,-38.6783,-41.113
110,9.7334,-0.8047,2.5675,-35.0609,-45.5652,-43.0609
115,9.3885,-1.073,2.2609,-41.3217,-52.9391,-45.1478
120,9.2352,-0.9963,2.2226,-47.1652,-60.8696,-47.1652
125,9.3118,-1.6478,1.6478,-52.0348,-68.8,-49.4609
130,9.1586,-1.7627,1.916,-55.1652,-76.313,-52.0348
135,9.2352,-2.1076,1.9543,-56.4174,-82.6435,-54.3304
140,9.1586,-2.1459,1.5711,-56.1391,-87.3043,-56.6957
145,8.967,-2.1076,1.4945,-55.0957,-90.3652,-58.713
150,8.852,-2.2992,1.4945,-53.913,-91.9652,-60.313
155,8.5838,-2.1076,0.958,-52.8696,-92.4522,-61.7739
160,8.2772,-2.1076,0.4598,-52.0348,-92.3826,-62.9565
165,8.3538,-1.7244,0.2299,-51.2,-91.7565,-63.9304
170,7.9323,-1.7244,-0.1533,-50.1565,-90.6435,-64.9043
175,7.9323,-1.6095,-0.1533,-49.5304,-89.7391,-65.7391
180,7.4725,-1.4179,-0.1533,-49.1826,-89.1826,-66.5739
185,7.3575,-1.1496,-0.1533,-49.4609,-88.7652,-67.6174
190,7.3192,-1.0346,-0.1916,-50.0174,-88.487,-69.0087
195,7.3192,-1.073,-0.0766,-50.4348,-87.8609,-70.3304
200,7.3192,-1.073,0.2299,-50.7826,-87.4435,-71.7217
205,7.2042,-1.073,0.3066,-51.0609,-87.5826,-73.113
210,7.3575,-0.7281,0.2682,-51.8261,-88.6261,-74.4348
215,7.3192,-0.5365,-0.2299,-53.0087,-90.0174,-75.4087
220,7.3192,-0.7281,0.0766,-54.7478,-91.4087,-76.1739
225,7.9323,-0.8814,0.0766,-56.9043,-92.1043,-76.6609
230,7.5874,-0.6898,0.2299,-59.2,-92.0348,-76.6609
235,7.9323,-0.7281,-0.5748,-61.0783,-91.687,-76.313
240,8.3921,-1.073,-0.0383,-62.4,-91.6174,-75.8957
245,8.1622,-1.1113,-0.6514,-63.0261,-91.6174,-75.3391
250,8.852,-1.1496,-0.6131,-63.2348,-91.5478,-74.5739
255,8.6221,-1.1113,-0.4598,-62.7478,-90.9913,-73.6696
260,8.737,-1.1113,-0.3449,-61.6348,-90.087,-72.6261
265,8.7754,-1.073,-0.3832,-60.5913,-89.0435,-71.5826
270,8.8903,-0.8047,-0.3832,-59.9652,-88.0696,-70.4696
275,9.2735,-0.843,-0.3449,-59.7565,-87.0261,-69.287
280,8.3538,0.0383,-0.4215,-60.1739,-86.3304,-68.1043
285,8.8903,0.1916,-0.6514,-60.4522,-85.7043,-66.9217
290,8.5071,0.2682,-0.9197,-60.2435,-85.1478,-65.9478
295,8.3538,0.5365,-0.8047,-59.8261,-84.313,-65.1826
300,8.5071,0.7664,-0.4982,-59.4783,-83.687,-64.6261
305,8.2772,1.2646,-0.6898,-59.687,-83.687,-64.487
310,8.0089,1.6478,-0.958,-60.8696,-84.0348,-64.7652
315,7.9323,1.916,-0.9197,-63.1652,-83.9652,-64.9043
320,7.894,2.2609,-0.7664,-66.0174,-83.4783,-64.6957
325,8.0473,2.3759,-0.843,-68.5217,-83.0609,-64.0696
330,8.1622,2.4525,-0.843,-70.3304,-82.8522,-63.0261
335,8.3155,2.2226,-1.3029,-71.0261,-82.7826,-62.1217
340,8.6987,2.4142,-1.4945,-71.1652,-82.6435,-61.3565
345,9.0819,2.2992,-1.5711,-71.4435,-82.0174,-60.3826
350,9.5034,2.2992,-1.4945,-71.8609,-80.2783,-58.9217
355,9.81,2.1459,-1.0346,-72.3478,-77.9826,-56.6957
360,10.3082,1.7627,-0.3832,-72.3478,-75.4783,-53.5652
365,10.9213,1.3029,0.0766,-71.6522,-72.487,-49.0435
370,11.3045,0.9197,0.5748,-70.7478,-69.0087,-43.7565
375,11.8793,0.5748,0.4598,-69.913,-65.4609,-37.7739
380,12.7607,0.958,0.3449,-69.4261,-61.7043,-31.2348
385,13.3355,0.0383,-0.1916,-68.3826,-57.6,-24.5565
390,14.0252,-0.1533,-0.4598,-65.6696,-53.0087,-18.1565
395,14.5234,-0.5365,-0.7281,-60.313,-47.2348,-11.8957
400,14.715,-0.5748,-1.1113,-51.3391,-39.3739,-5.287
405,14.6384,-1.1113,-1.4562,-39.4435,-29.4261,1.2522
410,14.6767,-0.8047,-1.4562,-26.0174,-18.713,7.0957
415,14.715,-0.7281,-1.5328,-13.1478,-7.9304,11.9652
420,14.6767,-0.4982,-1.4945,-2.3652,2.2957,15.7913
425,14.83,-0.2682,-1.4179,6.1913,11.8261,19.1304
430,14.3318,0.1916,-1.2646,12.1739,20.7304,22.6087
435,14.715,0.4982,-0.8814,16.2087,29.1478,26.5043
440,14.4468,0.8814,-0.9197,18.087,36.5217,30.7478
445,14.0252,1.2646,-0.7664,19.3391,42.5043,35.5478
450,13.5271,1.4945,-0.3066,20.2435,46.1217,39.7913
455,12.799,1.916,-0.1533,22.0522,47.0261,42.9913
460,12.1859,2.2226,0.0766,25.2522,45.0783,44.4522
465,11.3428,2.4908,0.0383,29.0783,40.4174,44.0348
470,10.653,2.5675,0.0383,33.113,34.2261,42.0174
475,9.8866,2.7591,0.0766,36.7304,27.5478,39.8609
480,9.1202,2.7207,0.0,39.8609,21.4957,36.7304
485,8.6987,2.4908,0.1916,42.4348,16.9043,33.3913
490,8.2005,2.3375,-0.0383,44.8,13.8435,30.3304
495,7.779,2.1459,-0.3832,46.7478,11.6174,27.4783
500,7.5491,2.1076,-0.4982,48.1391,9.9478,25.113
505,7.4725,1.8011,-0.7664,48.7652,8.8348,23.0957
510,7.5108,1.4945,-1.1113,48.3478,8.0696,21.7739
515,7.6257,1.4179,-1.3412,46.7478,7.4435,20.8696
520,7.9706,1.2263,-1.3412,44.1043,7.0957,20.313
525,8.2389,0.9963,-1.6861,40.5565,7.0957,20.0348
530,8.4305,0.7281,-1.916,36.5217,7.1652,19.687
535,8.6987,0.5748,-2.1076,32.1391,7.513,19.0609
540,8.8903,0.3449,-2.1076,27.9652,8.2087,18.087
545,9.1969,0.3066,-2.3759,24.1391,9.3217,17.0435
550,9.5418,0.0766,-2.3759,21.0783,10.9217,16.3478
555,9.7717,-0.115,-2.3375,18.9913,12.8696,16.0
560,9.81,-0.3066,-2.1459,17.6696,14.7478,16.0
565,10.1166,-0.3449,-1.9927,17.1826,16.2783,15.9304
570,10.1549,-0.4215,-1.9543,16.7652,17.5304,15.7913
575,10.3465,-0.3449,-1.916,16.4174,18.713,15.4435
580,10.3082,-0.2682,-1.7244,16.0,19.687,14.6783
585,10.3465,-0.2299,-1.4945,15.7217,20.313,14.1217
590,10.3465,-0.3066,-1.3412,15.9304,20.7304,13.5652
595,10.3848,-0.3066,-1.2263,16.3478,21.3565,12.8
600,10.2315,-0.1916,-1.073,17.1826,22.4,12.1739
605,10.2315,-0.1533,-0.958,18.087,23.6522,11.8957
610,10.1932,-0.0766,-0.8047,18.8522,24.8348,11.7565
615,10.1549,-0.115,-0.958,19.4087,25.8087,11.9652
620,9.925,0.0383,-0.7281,19.6174,26.6435,12.3826
625,9.9633,0.0,-0.5748,19.4783,27.4087,12.9391
630,9.8483,0.1533,-0.7281,19.1304,27.9652,13.4957
635,9.81,0.1916,-0.8047,18.5739,28.6609,14.0522
640,9.8483,0.1533,-0.8814,18.087,29.287,14.6087
645,9.81,0.0766,-0.7664,17.5304,29.6348,15.1652
650,10.0782,-0.115,-1.0346,17.1826,29.4957,15.5826
655,9.925,-0.0383,-1.1113,16.7652,29.0087,15.6522
660,10.0399,-0.2299,-1.1496,16.2783,28.1739,15.5826
665,10.1166,-0.4215,-1.2263,15.6522,26.8522,15.2348
670,10.0399,-0.4215,-1.1496,14.9565,24.9739,14.6087
675,10.0399,-0.6898,-1.4179,14.3304,22.6087,13.913
680,10.1549,-0.8047,-1.3412,14.1913,20.1043,13.0783
685,9.8483,-0.8047,-1.4179,14.3304,17.4609,12.1043
690,9.7717,-0.9197,-1.2646,14.9565,14.9565,11.2
695,9.81,-1.1113,-1.3795,16.0,12.7304,10.3652
700,9.6567,-1.073,-1.1879,17.3913,11.0609,9.5304
705,9.6184,-1.1879,-1.1496,18.8522,10.2957,8.7652
710,9.4268,-0.9963,-1.073,19.8957,9.8783,7.8609
715,9.4268,-0.958,-0.8047,20.4522,9.8087,6.9565
720,9.5034,-1.073,-0.7664,20.5217,9.8783,6.1217
725,9.4268,-0.8814,-0.7664,20.2435,10.087,5.1478
730,9.6567,-0.7664,-0.9197,19.6174,10.0174,4.1043
735,9.6567,-0.4982,-1.0346,18.6435,9.8783,3.4087
740,9.695,-0.3449,-0.843,17.3217,9.7391,2.9217
745,9.7334,-0.115,-0.9963,15.5826,9.6,2.5043
750,9.925,-0.0383,-1.1113,13.4957,9.3217,2.2957
755,10.1166,0.115,-1.1496,11.2696,9.113,2.3652
760,10.0399,0.2682,-1.3795,9.2522,9.113,2.2957
765,10.1166,0.3832,-1.4179,7.3739,9.2522,2.087
770,10.1932,0.3066,-1.6095,5.3565,9.4609,1.8087
775,10.1549,0.3066,-1.5328,3.3391,9.8087,1.6
780,10.1549,0.3066,-1.6095,1.3913,10.5739,1.4609
785,10.0016,0.3066,-1.5711,-0.487,11.5478,1.113
790,9.8866,0.3066,-1.3795,-2.2261,12.4522,0.7652
795,9.8483,0.1916,-1.4945,-3.6174,13.4261,0.2783
800,9.81,0.0,-1.4945,-4.5913,13.9826,-0.0696
805,9.81,-0.0383,-1.2646,-5.4957,14.2609,-0.3478
810,9.6567,-0.115,-1.2646,-6.0522,14.4696,-0.487
815,9.6184,-0.3066,-1.1113,-6.4,14.4696,-0.6957
820,9.5801,-0.3832,-1.073,-6.6087,14.6087,-0.6261
825,9.5801,-0.5365,-1.1879,-6.6087,14.5391,-0.6261
830,9.5034,-0.5748,-0.958,-6.5391,14.3304,-0.487
835,9.5034,-0.5748,-0.8047,-6.1217,14.4,-0.2783
840,9.5801,-0.4598,-0.7664,-5.4261,14.2609,0.0
845,9.7717,-0.6131,-0.7281,-4.4522,13.913,0.2783
850,9.695,-0.6131,-0.6898,-3.3391,13.6348,0.5565
855,9.695,-0.3832,-0.6898,-1.9478,13.4957,0.487
860,9.695,-0.5365,-0.6898,-0.5565,13.0087,0.487
865,9.8483,-0.2299,-0.6131,0.5565,12.1739,0.3478
870,9.8866,-0.2299,-0.3832,1.6,11.1304,0.0696
875,9.8866,0.0,-0.4982,2.1565,10.087,-0.2087
880,9.9633,0.1916,-0.4215,2.5043,8.8348,-0.5565
885,9.925,0.2682,-0.1533,2.5739,7.6522,-0.9043
890,10.0016,0.3066,-0.2682,2.2957,6.0522,-1.5304
895,9.9633,0.3832,-0.1533,1.3913,4.313,-2.2261
900,9.8483,0.4982,-0.1916,0.0696,2.2261,-2.7826
905,9.8483,0.5365,-0.1533,-1.3913,0.2783,-3.0609
910,9.925,0.5748,-0.115,-2.5739,-1.5304,-3.6174
915,9.8866,0.5365,-0.115,-3.6174,-2.9913,-3.8261
920,9.7717,0.8047,-0.1533,-4.5217,-4.313,-3.9652
925,9.81,0.5748,-0.2682,-5.287,-5.1478,-4.1739
930,9.8483,0.5365,-0.2299,-5.913,-5.7043,-4.1739
935,9.7717,0.4982,-0.1916,-6.0522,-6.1217,-4.4522
940,9.8483,0.4215,-0.3449,-5.7043,-6.6783,-4.4522
945,9.81,0.3066,-0.4598,-4.7304,-6.8174,-4.1739
950,9.81,0.3449,-0.5748,-3.4783,-7.0957,-3.8261
955,9.8866,-0.0766,-0.5365,-1.8087,-6.887,-3.687
960,9.81,0.115,-0.6131,0.0,-6.4696,-3.5478
965,9.8483,-0.0383,-0.6131,2.0174,-5.8435,-3.3391
970,9.81,-0.0383,-0.7281,4.0348,-5.3565,-3.2
975,9.6184,-0.0383,-0.7281,6.1913,-4.8,-3.2696
980,9.6567,0.0,-0.7664,7.9304,-4.3826,-3.5478
985,9.6567,0.115,-0.8047,9.3913,-4.1043,-3.8957
990,9.7717,0.2682,-0.7664,10.087,-3.8957,-4.313
995,9.6567,0.2299,-0.8047,10.2261,-4.0348,-4.7304
1000,9.6184,0.4598,-0.6898,10.0174,-4.313,-5.0087
1005,9.6567,0.5365,-0.7281,9.3913,-4.8,-5.1478
1010,9.6567,0.6514,-0.7664,8.6957,-5.4957,-5.2174
1015,9.6184,0.7281,-0.6898,7.8609,-5.9826,-5.1478
1020,9.5418,0.7281,-0.6514,7.3739,-6.4,-5.0783
1025,9.5801,0.8814,-0.6514,7.1652,-6.6087,-4.9391
1030,9.4651,0.843,-0.6898,7.1652,-6.5391,-5.0783
1035,9.4268,0.8814,-0.6131,7.5826,-6.4696,-5.2174
1040,9.3885,0.7664,-0.6898,8.2087,-6.0522,-5.4957
1045,9.3885,0.8047,-0.4982,9.113,-5.7739,-6.0522
1050,9.4651,0.8047,-0.5365,10.2261,-5.4957,-6.7478
1055,9.3118,0.7664,-0.4215,11.2696,-5.1478,-7.5826
1060,9.3118,0.7664,-0.4598,11.9652,-5.0087,-8.487
1065,9.1969,0.8047,-0.4598,11.9652,-5.1478,-9.4609
1070,9.4268,0.6898,-0.5748,11.4087,-5.4957,-10.2957
1075,9.4651,0.7664,-0.4215,10.5043,-6.1913,-11.2
1080,9.5034,0.4598,-0.4598,9.5304,-7.3739,-11.9652
1085,9.3885,0.5748,-0.7281,8.487,-8.6261,-12.5913
1090,9.5418,0.4215,-0.7664,7.1652,-10.2261,-12.8696
1095,9.4651,0.4982,-0.9963,5.6348,-11.687,-13.0087
1100,9.5034,0.4215,-1.0346,4.4522,-12.8696,-13.0783
1105,9.5034,0.4598,-1.2263,3.9652,-13.4957,-13.0783
1110,9.5801,0.3832,-1.3029,4.2435,-13.7043,-12.8
1115,9.6567,0.4598,-1.3029,4.9391,-13.3565,-12.5217
1120,9.6184,0.5748,-1.4179,6.1217,-12.5913,-11.9652
1125,9.6567,0.7664,-1.4562,7.0261,-11.7565,-11.4783
1130,9.7717,0.6514,-1.3795,7.5826,-10.6435,-10.9913
1135,9.81,0.8047,-1.4562,7.7217,-9.7391,-10.4348
1140,10.0016,0.7664,-1.3412,7.513,-8.8348,-9.8783
1145,10.0016,0.6898,-1.3795,6.8174,-7.9304,-9.113
1150,10.1549,0.7281,-1.3029,5.9826,-7.0261,-8.4174
1155,10.3082,0.7281,-1.2263,5.2174,-6.2609,-7.6522
1160,10.3465,0.6898,-1.3412,4.4522,-5.5652,-6.8174
1165,10.3465,0.6898,-1.4562,4.0348,-4.8696,-6.0522
1170,10.2698,0.5365,-1.5711,4.0348,-4.313,-5.3565
1175,10.2315,0.5748,-1.6095,4.5913,-3.7565,-4.8
1180,10.2698,0.5365,-1.6478,5.4261,-3.2696,-4.313
1185,10.2698,0.5365,-1.7627,6.4,-2.5043,-3.687
1190,10.3082,0.4598,-1.8394,7.3739,-1.6696,-3.1304
1195,10.2698,0.4982,-1.7627,8.1391,-0.9739,-2.6435
1200,10.2698,0.4598,-1.7244,8.6957,-0.1391,-2.087
1205,10.1166,0.5365,-1.6478,8.8348,0.6957,-1.4609
1210,10.1549,0.5365,-1.7244,8.7652,1.7391,-0.9043
1215,10.1166,0.4982,-1.6861,8.5565,2.713,-0.3478
1220,9.9633,0.4215,-1.4179,8.487,3.7565,0.0696
1225,10.0399,0.3832,-1.4562,8.4174,4.6609,0.5565
1230,9.8866,0.3449,-1.3795,8.3478,5.4261,0.8348
1235,9.695,0.4982,-1.2646,8.0696,6.1913,1.2522
1240,9.6567,0.3832,-0.958,7.8609,6.7478,1.3913
1245,9.6184,0.4215,-1.1113,7.5826,7.2348,1.5304
1250,9.6567,0.3066,-1.073,7.0261,7.513,1.6
1255,9.4268,0.3832,-1.0346,6.3304,7.7217,1.5304
1260,9.5801,0.3449,-0.9963,5.3565,7.513,1.3217
1265,9.4651,0.3066,-1.1113,4.1043,7.4435,1.113
1270,9.3885,0.4598,-1.073,2.6435,7.1652,0.8348
1275,9.3885,0.3832,-1.073,1.3913,7.1652,0.6261
1280,9.3502,0.4598,-1.3412,0.487,6.887,0.487
1285,9.4651,0.3832,-1.2263,-0.487,6.6783,0.4174
1290,9.3885,0.3066,-1.2646,-1.2522,6.6783,0.3478
1295,9.5034,0.3066,-1.2646,-1.8087,6.6783,0.2087
1300,9.5418,0.2299,-1.2646,-2.0174,6.7478,0.2087
1305,9.5418,0.3066,-1.2263,-2.0174,6.7478,0.2783
1310,9.5801,0.3066,-1.3795,-1.6696,6.7478,0.2087
1315,9.5034,0.3449,-1.2263,-1.2522,6.887,0.0
1320,9.5418,0.3066,-1.1496,-0.9739,6.4696,-0.2087
1325,9.695,0.3066,-1.1496,-0.8348,6.0522,-0.487
1330,9.7717,0.3449,-0.843,-0.9739,5.7043,-0.9043
1335,9.6567,0.2299,-0.9197,-1.3913,4.9391,-1.3217
1340,9.81,0.2682,-0.7664,-2.1565,4.0348,-1.6696
1345,9.8483,0.3066,-0.7281,-2.5739,3.0609,-2.0174
1350,9.8866,0.3066,-0.7281,-2.713,2.1565,-2.2957
1355,9.8866,0.115,-0.7664,-2.5739,1.4609,-2.5739
1360,9.9633,0.1916,-0.7281,-2.0174,1.1826,-2.7826
1365,9.925,0.2299,-0.6514,-1.5304,0.9043,-2.8522
1370,10.0016,0.1916,-0.7664,-1.0435,0.2783,-2.8522
1375,9.925,0.2299,-0.7664,-0.9043,-0.487,-2.7826
1380,10.0016,0.1533,-0.843,-0.9739,-1.6,-2.7826
1385,10.0782,0.115,-0.9197,-1.1826,-2.6435,-2.7826
1390,9.81,0.0383,-0.9963,-1.3913,-3.6174,-2.6435
1395,10.0016,0.2299,-1.1113,-1.7391,-4.5217,-2.3652
1400,10.1166,0.2682,-1.1496,-2.0174,-5.0783,-2.087
1405,9.9633,0.3832,-1.3412,-1.9478,-5.4957,-1.7391
1410,9.9633,0.3066,-1.4562,-1.9478,-5.7739,-1.4609
1415,10.0399,0.3066,-1.6861,-1.9478,-5.7043,-1.2522
1420,9.8866,0.3066,-1.6478,-1.7391,-5.3565,-1.113
1425,9.81,0.3449,-1.4562,-1.1826,-4.6609,-0.9739
1430,9.8483,0.3449,-1.3795,-0.3478,-3.8957,-0.8348
1435,9.695,0.4215,-1.4562,0.487,-2.9217,-0.9043
1440,9.6567,0.4215,-1.4179,1.113,-2.0174,-0.9043
1445,9.6567,0.6131,-1.4562,1.4609,-1.113,-1.0435
1450,9.6567,0.6131,-1.3795,1.3217,-0.2783,-1.1826
1455,9.695,0.6898,-1.3412,0.8348,0.487,-1.3217
1460,9.6184,0.7281,-1.2263,0.1391,1.3217,-1.2522
1465,9.6567,0.6131,-1.1496,-0.6957,1.8087,-1.113
1470,9.6567,0.5748,-1.2646,-1.4609,2.2957,-0.8348
1475,9.7334,0.6131,-1.3412,-2.1565,2.9913,-0.6261
1480,9.7334,0.5365,-1.3029,-2.4348,3.4087,-0.2783
1485,9.7717,0.5365,-1.2646,-2.7826,3.7565,0.1391
1490,9.695,0.5748,-1.2646,-2.9913,4.1043,0.487
1495,9.8483,0.4215,-1.3795,-3.3391,4.3826,0.6957
1500,9.925,0.4598,-1.4562,-3.8957,4.5913,0.8348
1505,9.81,0.4982,-1.5328,-4.4522,4.7304,1.113
1510,9.7717,0.4215,-1.4562,-4.9391,5.0087,1.2522
1515,9.925,0.3449,-1.5328,-5.3565,5.0087,1.3217
1520,9.9633,0.3066,-1.5711,-5.6348,5.1478,1.3913
1525,9.9633,0.3066,-1.5711,-5.4957,5.287,1.3913
1530,10.1166,0.2682,-1.7244,-5.287,5.7043,1.5304
1535,10.0399,0.1916,-1.6478,-4.9391,5.9826,1.6
1540,9.9633,0.3066,-1.4945,-4.6609,6.4,1.6
1545,9.925,0.4215,-1.4945,-4.313,7.0261,1.6696
1550,10.0782,0.3066,-1.4562,-3.8261,7.7913,1.8783
1555,10.0399,0.3066,-1.8011,-3.4087,8.6261,2.0174
1560,10.0016,0.3066,-1.6861,-3.0609,9.6,2.2261
1565,9.9633,0.3066,-1.5328,-2.7826,10.4348,2.4348
1570,9.925,0.4598,-1.5328,-2.4348,11.3391,2.5739
1575,9.9633,0.3832,-1.5328,-2.0174,12.1043,2.8522
1580,9.8866,0.5365,-1.4562,-1.6696,12.9391,3.1304
1585,9.8483,0.5748,-1.5328,-1.3217,13.7739,3.4783
1590,9.8866,0.5365,-1.4945,-1.0435,14.4696,3.7565
1595,9.9633,0.5365,-1.4562,-0.7652,15.2348,4.0348
1600,9.81,0.5365,-1.3412,-0.5565,15.7913,4.2435
1605,10.0782,0.4598,-1.3029,-0.487,16.3478,4.3826
1610,9.81,0.6131,-1.3029,-0.6261,16.7652,4.4522
1615,9.81,0.5365,-1.2646,-0.6261,16.9043,4.3826
1620,9.5801,0.6898,-1.2646,-0.9043,16.9739,4.3826
1625,9.7717,0.4598,-1.2263,-1.3913,17.113,4.313
1630,9.6567,0.4598,-0.9963,-1.9478,17.1826,4.2435
1635,9.6567,0.6131,-1.0346,-2.6435,17.3913,4.1739
1640,9.6184,0.4215,-0.9963,-3.4087,17.5304,4.2435
1645,9.6567,0.4215,-1.073,-4.313,17.6,4.1043
1650,9.6184,0.4598,-0.8814,-5.287,17.7391,4.1043
1655,9.6567,0.4982,-0.843,-6.0522,17.9478,4.0348
1660,9.695,0.3449,-1.1113,-6.8174,18.0174,3.9652
1665,9.695,0.4982,-0.843,-7.7217,18.087,3.8957
1670,9.7334,0.3449,-0.8814,-8.5565,18.0174,3.7565
1675,9.695,0.3449,-0.9963,-9.4609,17.9478,3.7565
1680,9.8483,0.3832,-1.073,-10.3652,17.6,3.4783
1685,9.7334,0.3066,-0.9197,-11.3391,17.1826,3.4087
1690,9.7334,0.3066,-0.8814,-12.3826,16.8348,3.4087
1695,9.81,0.1916,-0.8814,-13.0783,16.5565,3.3391
1700,9.9633,0.3066,-0.958,-13.913,16.2783,3.3391
1705,9.9633,0.3066,-0.843,-14.8174,16.0,3.2696
1710,9.9633,0.2299,-0.9963,-15.8609,15.7217,3.2
1715,10.0016,0.3066,-1.2263,-16.9043,15.6522,3.0609
1720,9.925,0.2682,-1.0346,-17.8783,15.513,2.9913
1725,9.925,0.1916,-0.8814,-18.2261,15.1652,2.9217
1730,9.8483,0.0383,-1.0346,-17.6,14.6783,2.8522
1735,9.8866,0.0383,-0.9963,-16.2087,14.0522,2.6435
1740,9.8866,-0.0766,-1.0346,-14.1913,13.287,2.5739
1745,9.8483,-0.0766,-0.9963,-11.9652,12.6609,2.1565
1750,9.7334,0.0,-1.073,-9.6696,12.1739,1.6696
1755,9.8483,0.0,-0.9963,-7.7217,11.6174,1.1826
1760,9.7334,0.2682,-1.1496,-6.1913,11.2,0.5565
1765,9.81,0.115,-1.0346,-5.287,10.8522,-0.2087
1770,9.7717,0.1916,-1.1496,-5.1478,10.7826,-0.487
1775,9.8483,0.0383,-1.1496,-5.3565,10.7826,-0.8348
1780,9.8483,0.1916,-0.8814,-5.7739,10.7826,-1.0435
1785,9.8866,0.3066,-1.0346,-6.4696,10.5739,-1.0435
1790,9.8866,0.2682,-0.9197,-7.3739,10.5043,-1.0435
1795,9.8866,0.1916,-1.073,-8.0,10.4348,-1.0435
1800,9.8483,0.0,-0.9197,-8.6957,10.2261,-0.6957
1805,9.8483,-0.0766,-0.9963,-9.113,10.087,-0.3478
1810,9.7717,-0.0383,-0.958,-9.3217,10.0174,0.0
1815,9.81,-0.0766,-0.843,-9.113,9.7391,0.4174
1820,9.81,-0.3449,-0.9197,-8.487,9.4609,0.7652
1825,9.7334,-0.2682,-0.9963,-7.3739,9.1826,1.1826
1830,9.7717,-0.3066,-0.7664,-6.0522,8.5565,1.3217
1835,9.7334,-0.2682,-0.7664,-4.5217,7.9304,1.2522
1840,9.7334,-0.3066,-0.5748,-3.2696,7.2348,0.9739
1845,9.7717,-0.1533,-0.6898,-2.3652,6.4696,0.6957
1850,9.5418,-0.0383,-0.6514,-1.6,5.4261,0.2087
1855,9.5034,0.115,-0.7281,-0.9739,4.3826,-0.3478
1860,9.5801,0.115,-0.7664,-0.5565,3.2,-0.9043
1865,9.5418,0.2299,-0.5365,-0.4174,2.2957,-1.4609
1870,9.5034,0.2299,-0.6514,-0.5565,1.5304,-1.7391
1875,9.3502,0.1533,-0.6514,-0.9739,1.113,-2.2957
1880,9.3502,0.115,-0.4215,-1.4609,0.8348,-2.8522
1885,9.3885,0.2299,-0.6898,-2.087,0.6957,-3.6174
1890,9.3885,0.2299,-0.6131,-2.7826,0.487,-4.4522
1895,9.3885,0.1533,-0.6514,-3.7565,0.487,-5.4261
1900,9.4651,0.1916,-0.3449,-5.0783,0.4174,-6.3304
1905,9.4268,0.115,-0.5365,-6.6783,0.3478,-7.4435
1910,9.5801,0.1916,-0.6131,-8.2087,0.2087,-8.3478
1915,9.5418,0.2682,-0.6514,-9.8783,-0.0696,-9.0435
1920,9.5801,0.2682,-0.6898,-10.9913,-0.4174,-9.5304
1925,9.6567,0.3066,-0.7281,-11.8957,-0.9043,-9.7391
1930,9.695,0.3832,-0.7664,-12.5913,-1.2522,-9.7391
1935,9.8866,0.4598,-0.9197,-13.0783,-1.3913,-9.4609
1940,9.7334,0.3832,-0.7664,-13.4261,-1.6,-9.113
1945,9.81,0.4215,-1.0346,-13.5652,-1.4609,-8.6261
1950,9.81,0.3832,-1.073,-13.4957,-1.3217,-8.0
1955,9.81,0.3832,-1.073,-12.9391,-1.113,-7.513
1960,9.8483,0.4982,-1.1879,-12.313,-0.9739,-7.0957
1965,9.8866,0.3832,-1.1496,-11.8261,-0.7652,-6.7478
1970,9.925,0.5748,-1.2646,-11.2696,-0.5565,-6.4
1975,10.0399,0.4982,-1.3412,-10.5043,-0.0696,-6.1217
1980,9.925,0.4982,-1.4179,-9.5304,0.0,-5.8435
1985,9.9633,0.4982,-1.2263,-8.1391,0.0696,-5.4261
1990,9.8866,0.4215,-1.3029,-6.7478,0.2087,-5.1478
1995,9.8866,0.4215,-1.1879,-5.3565,0.487,-4.6609
2000,9.81,0.4215,-1.2263,-4.5217,0.9043,-4.313
2005,9.81,0.3449,-0.9197,-3.8957,1.3913,-4.1739
2010,9.695,0.3449,-0.9197,-3.8261,1.8087,-4.1739
2015,9.7334,0.3449,-0.8047,-4.2435,1.8783,-4.5217
2020,9.6567,0.3832,-0.9197,-5.2174,1.9478,-5.0783
2025,9.7334,0.4215,-0.7664,-6.4696,1.6696,-5.8435
2030,9.7334,0.4982,-0.7664,-8.0,1.1826,-6.5391
2035,9.81,0.5365,-0.7664,-9.6,0.6261,-7.2348
2040,9.9633,0.6131,-0.6898,-11.2,-0.0696,-7.7217
2045,10.1166,0.4598,-0.5748,-12.6609,-0.9043,-7.9304
2050,9.9633,0.6898,-0.7664,-13.7739,-1.6,-7.9304
2055,9.925,0.8047,-0.8047,-14.6783,-2.087,-7.7217
2060,9.8866,0.6898,-0.843,-15.3739,-2.6435,-7.513
2065,9.9633,0.6514,-0.9963,-15.8609,-3.2,-7.1652
2070,10.0016,0.7664,-0.7664,-16.2783,-3.7565,-7.0261
2075,10.0399,0.6131,-0.8814,-16.3478,-4.1739,-6.7478
2080,10.0782,0.5748,-0.8814,-16.2783,-4.4522,-6.3304
2085,10.0399,0.5748,-1.1113,-16.0,-4.7304,-6.0522
2090,9.8866,0.5748,-1.1113,-15.7217,-4.7304,-5.913
2095,9.9633,0.6898,-1.1496,-15.3739,-4.7304,-5.5652
2100,10.0782,0.6514,-1.1496,-14.5391,-4.5217,-5.1478
2105,9.925,0.5748,-1.2646,-13.4957,-4.313,-4.7304
2110,10.0016,0.7281,-1.3795,-12.2435,-4.0348,-4.2435
2115,10.0399,0.6131,-1.3795,-10.9217,-3.7565,-3.8261
2120,10.0399,0.5748,-1.4945,-9.6,-3.4783,-3.2696
2125,9.925,0.6514,-1.4945,-8.3478,-3.3391,-3.0609
2130,10.0782,0.4982,-1.5328,-7.2348,-2.9913,-2.7826
2135,9.9633,0.6131,-1.7244,-6.2609,-2.713,-2.5043
2140,9.925,0.4598,-1.6095,-5.4957,-2.5043,-2.2957
2145,9.9633,0.4598,-1.4562,-5.1478,-2.2261,-2.087
2150,9.7334,0.5365,-1.2263,-4.8696,-1.9478,-1.9478
2155,9.8483,0.4982,-1.5711,-4.8696,-1.6,-1.8087
2160,9.8483,0.5365,-1.4179,-5.0087,-1.3217,-1.8087
2165,9.8866,0.4215,-1.3029,-5.287,-0.9739,-1.8087
2170,9.81,0.5748,-1.2263,-5.5652,-0.6261,-1.8087
2175,9.81,0.5365,-1.2263,-6.0522,-0.2783,-1.7391
2180,9.81,0.6514,-1.2263,-6.4,0.1391,-1.7391
2185,9.7717,0.5365,-1.3029,-6.7478,0.4174,-1.9478
2190,9.7717,0.6131,-1.2263,-7.0261,0.487,-1.8087
2195,9.7717,0.7281,-1.1879,-7.2348,0.6957,-1.8087
2200,9.8483,0.6514,-1.2263,-7.3739,1.0435,-1.7391
2205,9.81,0.6131,-0.958,-7.513,1.2522,-1.6696
2210,9.81,0.6514,-1.1113,-7.513,1.4609,-1.5304
2215,9.81,0.6898,-1.1879,-7.513,1.6696,-1.4609
2220,9.8483,0.6514,-1.0346,-7.3739,1.8087,-1.2522
2225,9.81,0.6131,-1.1113,-7.2348,1.9478,-1.113
2230,9.8483,0.6131,-1.2646,-7.0261,2.1565,-0.9739
2235,9.8866,0.6514,-1.3029,-6.7478,2.3652,-0.6261
2240,9.8483,0.6131,-1.2646,-6.4,2.4348,-0.5565
2245,9.9633,0.4982,-1.3412,-5.913,2.5739,-0.3478
2250,9.8866,0.5748,-1.2646,-5.4261,2.5043,-0.1391
2255,9.9633,0.5365,-1.4562,-4.9391,2.2957,0.0696
2260,9.8866,0.6514,-1.1879,-4.4522,2.087,0.2087
2265,9.8866,0.5365,-1.3412,-3.8957,2.0174,0.3478
2270,9.9633,0.3832,-1.5328,-3.4087,1.5304,0.4174
2275,10.0399,0.4598,-1.5328,-2.9217,1.3217,0.487
2280,10.0016,0.5748,-1.4945,-2.5043,1.0435,0.4174
2285,9.925,0.4598,-1.4179,-2.1565,0.8348,0.4174
2290,10.0782,0.4982,-1.3029,-1.8783,0.5565,0.2087
2295,9.8483,0.4598,-1.4562,-1.6696,0.2783,0.0696
2300,9.9633,0.4598,-1.2263,-1.4609,0.0696,-0.1391
2305,9.9633,0.4598,-1.3412,-1.2522,-0.0696,-0.3478
2310,9.8866,0.4598,-1.3412,-1.113,-0.2783,-0.5565
2315,9.8483,0.4982,-1.1879,-1.0435,-0.4174,-0.7652
2320,9.81,0.6131,-1.3029,-1.0435,-0.487,-0.9043
2325,9.8483,0.5365,-1.1879,-1.1826,-0.7652,-1.0435
2330,9.81,0.4982,-1.1879,-1.3217,-0.9043,-1.1826
2335,9.7717,0.6131,-1.2263,-1.5304,-1.0435,-1.3217
2340,9.81,0.4982,-1.2646,-1.7391,-1.1826,-1.2522
2345,9.695,0.6898,-1.1113,-1.8783,-1.3217,-1.3217
2350,9.7717,0.5365,-1.1496,-1.9478,-1.4609,-1.2522
2355,9.7717,0.6514,-1.1496,-1.7391,-1.5304,-1.3217
2360,9.7334,0.4598,-1.2263,-1.7391,-1.6,-1.3217
2365,9.7717,0.4215,-1.2263,-1.5304,-1.5304,-1.1826
2370,9.8483,0.4598,-1.2263,-1.1826,-1.2522,-1.0435
2375,9.7717,0.5748,-1.2263,-0.7652,-1.113,-0.9739
2380,9.7717,0.5365,-1.4179,-0.2783,-1.0435,-1.0435
2385,9.6567,0.4982,-1.3795,0.2783,-0.9739,-0.9739
2390,9.7717,0.6131,-1.3412,0.5565,-0.9043,-0.9043
2395,9.7334,0.5365,-1.4562,0.6957,-0.7652,-0.8348
2400,9.7334,0.6898,-1.3412,0.9043,-0.7652,-0.8348
2405,9.7334,0.6898,-1.3795,0.7652,-0.6957,-0.8348
2410,9.81,0.6131,-1.3795,0.6261,-0.5565,-0.6261
2415,9.7334,0.6131,-1.3795,0.487,-0.5565,-0.5565
2420,9.695,0.6898,-1.4179,0.0696,-0.487,-0.6261
2425,9.8483,0.5748,-1.3412,-0.2783,-0.4174,-0.6261
2430,9.8483,0.5748,-1.5328,-0.7652,-0.3478,-0.6957
2435,9.81,0.5748,-1.4179,-1.1826,-0.3478,-0.7652
2440,9.7334,0.6898,-1.2646,-1.5304,-0.3478,-0.7652
2445,9.7717,0.5748,-1.4179,-1.7391,-0.4174,-0.7652
2450,9.7717,0.6898,-1.4562,-1.8783,-0.3478,-0.9739
2455,9.81,0.5748,-1.2263,-2.0174,-0.487,-1.113
2460,9.7334,0.5748,-1.3029,-1.9478,-0.487,-1.1826
2465,9.81,0.5365,-1.3029,-1.8783,-0.6261,-1.2522
2470,9.7717,0.5748,-1.2646,-1.7391,-0.8348,-1.3913
2475,9.81,0.5748,-1.4562,-1.6696,-1.113,-1.4609
2480,9.6567,0.7664,-1.2646,-1.5304,-1.2522,-1.3913
2485,9.7334,0.6131,-1.3412,-1.4609,-1.5304,-1.3217
2490,9.81,0.5365,-1.2263,-1.1826,-1.8087,-1.3913
2495,9.81,0.3832,-1.1879,-1.0435,-1.8783,-1.3913
2500,9.6567,0.5748,-1.1113,-0.6957,-2.087,-1.3217
2505,9.695,0.5365,-1.3029,-0.2783,-2.2957,-1.3913
2510,9.5801,0.6514,-1.3029,0.2087,-2.4348,-1.3913
2515,9.6567,0.6131,-1.3029,0.6261,-2.5739,-1.4609
2520,9.6567,0.4982,-1.2646,1.0435,-2.6435,-1.3913
2525,9.7717,0.4598,-1.2646,1.6696,-2.6435,-1.3913
2530,9.81,0.5365,-1.4179,2.087,-2.8522,-1.3913
2535,9.7334,0.5748,-1.4562,2.713,-2.8522,-1.5304
2540,9.695,0.4982,-1.5328,3.2696,-2.7826,-1.7391
2545,9.7717,0.6131,-1.4945,3.687,-2.713,-1.6696
2550,9.81,0.5365,-1.6478,4.1043,-2.6435,-1.6696
2555,9.695,0.5748,-1.5328,4.5217,-2.5043,-1.7391
2560,9.7717,0.5365,-1.6861,4.9391,-2.4348,-1.7391
2565,9.7717,0.6131,-1.6478,5.287,-2.3652,-1.7391
2570,9.7717,0.6514,-1.7244,5.5652,-2.2261,-1.8783
2575,9.7334,0.6514,-1.6861,5.5652,-2.087,-1.9478
2580,9.81,0.8047,-1.8011,5.4261,-2.0174,-1.9478
2585,9.7334,0.7664,-1.5711,5.2174,-1.9478,-1.9478
2590,9.6184,0.7664,-2.1076,4.7304,-1.8783,-1.9478
2595,9.7334,0.843,-1.6095,4.1043,-1.7391,-1.9478
2600,9.8483,0.7664,-1.7627,3.4783,-1.5304,-1.8783
2605,9.8866,0.7281,-1.6861,2.9217,-1.3913,-1.9478
2610,9.8483,0.7281,-1.8777,2.2261,-1.2522,-1.8783
2615,9.81,0.8047,-1.6861,1.6696,-1.1826,-1.8087
2620,9.81,0.8047,-1.7244,1.2522,-0.9739,-1.6696
2625,9.81,0.5748,-1.6095,0.8348,-1.0435,-1.7391
2630,9.81,0.6514,-1.6095,0.6261,-1.113,-1.7391
2635,9.8483,0.6514,-1.4945,0.3478,-1.3217,-1.8087
2640,9.695,0.6898,-1.6861,0.1391,-1.4609,-1.7391
2645,9.7334,0.5748,-1.8011,0.0696,-1.6,-1.8087
2650,9.7717,0.7281,-1.7244,0.1391,-1.8783,-1.7391
2655,9.81,0.4598,-1.7627,0.3478,-2.087,-1.8087
2660,9.81,0.5748,-1.7244,0.7652,-2.3652,-1.8087
2665,9.7334,0.5748,-1.7244,1.2522,-2.2957,-1.8783
2670,9.7334,0.6514,-1.6861,1.8087,-2.4348,-1.9478
2675,9.7717,0.5365,-1.6861,2.1565,-2.5043,-1.9478
2680,9.7334,0.5365,-1.7244,2.4348,-2.5739,-2.087
2685,9.7334,0.6131,-1.8777,2.5739,-2.4348,-1.8783
2690,9.6567,0.7281,-1.7244,2.713,-2.087,-1.7391
2695,9.3885,0.6514,-2.1843,2.7826,-1.6696,-1.6696
2700,9.695,0.6131,-1.6861,2.7826,-1.1826,-1.5304
2705,9.7334,0.6131,-1.8011,2.9217,-0.7652,-1.5304
2710,9.6184,0.8047,-1.6095,3.2,-0.4174,-1.5304
2715,9.7334,0.6514,-1.7627,3.4087,0.0696,-1.5304
2720,9.6567,0.6131,-1.8394,3.687,0.3478,-1.5304
2725,9.7334,0.5365,-1.6478,3.8957,0.6261,-1.3913
2730,9.81,0.6131,-1.7244,3.8261,0.6957,-1.3913
2735,9.7717,0.5365,-1.8011,3.687,0.6957,-1.2522
2740,9.81,0.6514,-1.6095,3.6174,0.6957,-1.2522
2745,9.81,0.5365,-1.8394,3.3391,0.7652,-1.3217
2750,9.695,0.6131,-1.6861,2.8522,0.8348,-1.2522
2755,9.7334,0.5748,-1.7627,2.5043,0.8348,-1.1826
2760,9.7717,0.7281,-1.8394,2.087,0.9043,-1.2522
2765,9.7717,0.5748,-1.8011,1.8087,0.9739,-1.3217
2770,9.7334,0.6131,-1.916,1.5304,0.9043,-1.2522
2775,9.7717,0.5748,-1.8011,1.6,0.8348,-1.1826
2780,9.7717,0.7664,-1.8777,1.6696,0.9043,-1.113
2785,9.7717,0.7281,-1.916,1.8783,0.8348,-1.1826
2790,9.6184,0.7281,-1.7627,2.0174,0.7652,-1.1826
2795,9.7717,0.6514,-1.8011,2.1565,0.6957,-1.3217
2800,9.695,0.7664,-1.8394,2.2957,0.8348,-1.3217
2805,9.695,0.7664,-2.031,2.4348,1.0435,-1.3217
2810,9.695,0.5748,-1.8011,2.6435,1.113,-1.1826
2815,9.7334,0.6514,-1.8777,2.9913,1.3913,-1.0435
2820,9.695,0.6898,-1.6861,3.0609,1.5304,-1.0435
2825,9.695,0.7281,-1.916,3.2,1.8087,-0.9043
2830,9.6567,0.7281,-1.7627,3.2,1.8783,-0.6261
2835,9.695,0.7281,-1.8394,3.2696,2.1565,-0.5565
2840,9.7334,0.6514,-1.8011,3.2696,2.3652,-0.487
2845,9.695,0.6514,-1.8394,3.4087,2.5739,-0.4174
2850,9.7334,0.5748,-1.8011,3.3391,2.713,-0.3478
2855,9.81,0.5365,-1.8011,3.4783,2.8522,-0.3478
2860,9.7717,0.6514,-1.7627,3.4783,2.9217,-0.2087
2865,9.695,0.6898,-1.6861,3.4087,2.9217,-0.3478
2870,9.7334,0.6131,-1.8011,3.687,2.7826,-0.3478
2875,9.81,0.5748,-1.8394,3.7565,2.6435,-0.3478
2880,9.7334,0.6514,-1.8011,3.7565,2.5043,-0.2783
2885,9.8483,0.6514,-1.916,3.8957,2.2957,-0.3478
2890,9.7717,0.6514,-1.9543,3.9652,2.087,-0.3478
2895,9.81,0.7664,-1.8777,3.8957,1.8783,-0.4174
2900,9.7717,0.6514,-1.9543,3.687,1.8783,-0.487
2905,9.7334,0.6898,-1.8011,3.4783,1.8783,-0.487
2910,9.81,0.6131,-1.916,3.0609,2.0174,-0.4174
2915,9.7334,0.7664,-1.8777,2.7826,2.087,-0.487
2920,9.695,0.8047,-1.9543,2.2957,2.2261,-0.4174
2925,9.7334,0.7281,-1.7627,1.8087,2.1565,-0.2783
2930,9.7334,0.7281,-1.916,1.1826,2.2261,-0.1391
2935,9.695,0.6898,-1.8777,0.6957,2.2261,0.0696
2940,9.81,0.6898,-1.9927,0.5565,2.2957,0.2087
2945,9.7334,0.7281,-1.8394,0.2087,2.4348,0.2783
2950,9.7717,0.6898,-1.9543,0.0,2.5043,0.2087
2955,9.7717,0.8047,-2.031,-0.0696,2.5739,0.2783
2960,9.7717,0.7664,-1.9543,-0.0696,2.713,0.3478
2965,9.7717,0.6898,-2.031,0.0,2.8522,0.6261
2970,9.695,0.8047,-1.9927,0.0696,2.9217,0.6261
2975,9.695,0.7281,-1.9543,0.0696,3.0609,0.6261
2980,9.7334,0.7664,-1.916,0.2087,3.1304,0.6957
2985,9.7334,0.8047,-2.1076,0.2087,3.2696,0.6957
2990,9.7717,0.6131,-1.8777,0.0,3.4087,0.8348
2995,9.6567,0.7664,-1.9927,-0.1391,3.687,0.9043
