timestamp,accX,accY,accZ,gyroX,gyroY,gyroZ
0,1.1496,-9.1586,3.4871,-77.9826,-8.6261,-0.4174
5,1.3412,-9.0819,3.5638,-79.0261,-9.0435,-0.3478
10,1.3412,-9.2735,3.4871,-80.1391,-9.3913,-0.6957
15,1.4179,-9.0819,3.5638,-81.3913,-9.5304,-0.9739
20,1.4562,-9.1969,3.4871,-82.8522,-9.7391,-1.3217
25,1.6478,-9.1586,3.5255,-84.313,-9.9478,-1.8783
30,1.6861,-9.1969,3.4871,-85.913,-10.1565,-2.3652
35,1.7627,-9.2735,3.1806,-87.6522,-10.3652,-2.9217
40,1.8394,-9.2735,3.2955,-89.1826,-10.5739,-3.4783
45,1.6478,-9.4268,3.1806,-90.9217,-10.8522,-3.8261
50,1.8011,-9.3885,3.0273,-92.5217,-11.4087,-4.1739
55,1.8011,-9.3885,3.1423,-93.9826,-12.313,-4.3826
60,1.5711,-9.4268,2.874,-95.3043,-13.0783,-4.5217
65,1.5711,-9.4651,2.9507,-96.3478,-13.913,-4.3826
70,1.3795,-9.6184,2.7974,-96.8348,-14.5391,-3.8957
75,1.4179,-9.6567,2.7974,-96.8348,-15.3043,-2.9913
80,1.2646,-9.5801,2.9123,-96.487,-16.2087,-2.0174
85,1.1113,-9.6184,2.6441,-95.7217,-16.8348,-0.6957
90,0.9963,-9.5801,2.6058,-94.6783,-17.3217,0.8348
95,0.9197,-9.4651,2.6441,-93.3565,-17.4609,2.5739
100,0.8814,-9.4651,2.6824,-91.6174,-17.6,4.0348
105,0.958,-9.6184,2.6824,-89.6696,-17.2522,5.7043
110,0.9963,-9.6184,2.6441,-87.4435,-16.487,7.0261
115,1.073,-9.5801,2.6441,-84.8696,-15.7913,8.1391
120,1.073,-9.4651,2.5291,-82.087,-14.6783,8.9043
125,1.2646,-9.6567,2.3375,-79.3739,-13.5652,9.2522
130,1.3029,-9.7334,2.2992,-76.7304,-12.313,9.1826
135,1.5328,-9.7334,2.1843,-74.1565,-10.9217,8.8348
140,1.8394,-9.6184,2.1076,-71.6522,-9.5304,8.0
145,1.8011,-9.6567,1.9927,-69.4261,-8.0,6.7478
150,2.0693,-9.6567,1.5711,-67.7565,-6.6087,5.1478
155,2.1459,-9.6567,1.5328,-66.6435,-5.4957,3.4087
160,2.2226,-9.6184,1.2263,-65.9478,-4.6609,1.6696
165,2.2609,-9.5034,1.1496,-65.7391,-3.8957,-0.2087
170,2.1843,-9.5034,0.9963,-65.8087,-3.3391,-2.0174
175,2.1843,-9.4268,0.958,-65.8783,-2.9217,-3.5478
180,2.2226,-9.3885,0.958,-65.6,-2.713,-4.8
185,2.2992,-9.5801,0.8047,-65.3217,-2.713,-5.9826
190,2.031,-9.4651,0.9963,-64.7652,-2.8522,-6.887
195,1.9543,-9.7334,0.958,-64.2087,-3.1304,-7.2348
200,1.7244,-9.3885,1.1113,-63.4435,-3.4783,-7.3739
205,1.4562,-9.5418,0.958,-62.6087,-4.1043,-7.1652
210,1.2646,-9.6184,1.073,-61.5652,-4.8696,-6.6783
215,1.1879,-9.695,1.073,-60.3826,-5.7739,-6.0522
220,0.9197,-9.7717,0.8814,-59.2696,-6.6783,-5.287
225,0.6898,-9.925,0.8047,-58.0174,-7.513,-4.5217
230,0.5748,-9.8483,0.6898,-56.6957,-8.2087,-3.687
235,0.4215,-10.0399,0.6514,-55.4435,-8.5565,-2.9217
240,0.3832,-10.0782,0.7281,-53.9826,-8.5565,-2.2957
245,0.3066,-10.2698,0.2682,-52.3826,-8.4174,-1.7391
250,0.4982,-10.5381,0.6514,-50.7826,-8.0696,-1.1826
255,0.3832,-10.3465,0.3449,-49.1826,-7.8609,-0.9043
260,0.4598,-10.1932,0.115,-47.8609,-7.4435,-0.4174
265,0.7664,-10.1932,0.1916,-46.4696,-7.0261,0.0
270,0.7281,-10.1166,0.0383,-45.2174,-6.8174,0.4174
275,0.958,-9.8483,0.0383,-44.3826,-6.4696,0.7652
280,1.1879,-9.8483,0.0383,-43.8957,-6.1913,0.5565
285,1.3795,-9.695,0.0766,-43.6174,-5.7739,0.1391
290,1.5328,-9.7334,-0.0766,-43.3391,-5.1478,0.0
295,1.7627,-9.6184,0.0,-42.9913,-4.5217,-0.0696
300,1.6095,-9.5801,-0.2682,-42.8522,-4.0348,-0.4174
305,1.7627,-9.5801,-0.1533,-42.8522,-4.0348,-0.6261
310,1.8011,-9.5801,-0.2682,-42.9217,-4.3826,-0.9739
315,1.8394,-9.695,-0.3066,-42.9217,-4.8,-1.6
320,1.7244,-9.7717,-0.2682,-42.8522,-5.6348,-1.7391
325,1.7244,-9.8483,-0.4598,-42.7826,-6.3304,-1.9478
330,1.5711,-9.7334,-0.3449,-42.713,-6.9565,-1.9478
335,1.4179,-9.8483,-0.2682,-42.2957,-7.2348,-2.1565
340,1.2646,-9.81,-0.2299,-41.8087,-7.2348,-2.8522
345,1.0346,-9.81,-0.1533,-41.113,-7.0957,-3.2
350,0.8814,-9.8866,-0.0766,-40.0696,-7.0261,-2.9217
355,0.8814,-9.9633,-0.0383,-38.8174,-6.8174,-2.2957
360,0.8814,-9.8483,0.0,-37.5652,-6.4,-2.087
365,0.7281,-9.81,-0.0766,-36.3826,-5.8435,-1.8087
370,0.7281,-9.925,-0.115,-34.9217,-5.3565,-1.0435
375,0.8047,-10.0016,-0.115,-33.7391,-4.5217,0.0696
380,0.843,-10.1549,-0.1533,-32.7652,-3.687,0.7652
385,0.8814,-10.1549,-0.1533,-31.513,-2.7826,0.8348
390,1.0346,-10.1549,-0.1916,-30.4,-1.9478,0.5565
395,1.1113,-10.2315,0.0,-29.3565,-1.1826,0.0696
400,1.1879,-10.2698,-0.0383,-28.1043,-0.487,-0.2783
405,1.2646,-10.4614,-0.1533,-26.2261,-0.2087,-0.2087
410,1.4562,-10.4998,-0.1533,-23.8609,0.1391,-0.2783
415,1.4562,-10.5381,-0.0766,-21.287,0.487,-0.3478
420,1.5711,-10.5764,-0.0766,-18.5739,0.7652,-0.7652
425,1.6478,-10.4231,-0.0766,-15.7217,0.7652,-1.3217
430,1.4179,-10.1932,-0.3449,-13.287,0.9043,-2.0174
435,1.8394,-9.925,-0.1533,-12.1043,0.7652,-1.8783
440,1.7244,-9.7334,-0.0383,-10.5739,-0.0696,-1.6
445,1.8011,-9.7334,-0.4215,-9.5304,-1.113,-1.3217
450,1.916,-9.6567,-0.5365,-9.2522,-1.9478,-1.3217
455,1.5711,-9.3502,-0.4982,-9.8783,-2.5043,-1.6696
460,1.6478,-9.4268,-0.7281,-10.7826,-3.0609,-0.9739
465,1.5711,-9.5034,-0.7664,-11.6174,-3.7565,-0.2783
470,1.4945,-9.4268,-0.7281,-12.5913,-3.8261,0.0
475,1.5711,-9.5034,-0.6898,-13.5652,-3.687,0.1391
480,1.5328,-9.6184,-0.6514,-14.3304,-3.1304,0.0696
485,1.4945,-9.695,-0.5748,-15.3043,-2.4348,0.0696
490,1.3412,-9.7717,-0.4598,-16.2783,-2.0174,-0.1391
495,1.3412,-9.81,-0.3449,-16.7652,-1.6,-0.3478
500,1.5711,-9.9633,-0.1916,-17.0435,-1.2522,-0.6261
505,1.1879,-10.0016,-0.0766,-17.3913,-0.8348,-1.6
510,1.2263,-10.0016,-0.1916,-17.4609,-0.5565,-1.2522
515,1.3795,-9.9633,-0.115,-17.3913,-0.6261,-0.6957
520,1.5711,-10.1166,0.0766,-18.0174,-0.6957,0.8348
525,1.5711,-10.0782,0.0766,-19.2,-0.5565,1.4609
530,1.4179,-10.1549,0.115,-19.6174,-0.1391,1.2522
535,1.4945,-10.2315,0.0766,-20.0348,0.2087,1.3217
540,1.7244,-10.3848,0.1916,-20.5217,0.487,1.6
545,1.6861,-10.5764,0.1533,-21.287,0.6261,2.0174
550,1.8777,-10.9213,0.3449,-21.913,0.6957,2.2957
555,1.8011,-11.1512,0.3832,-22.1913,0.487,2.6435
560,1.8394,-11.2279,0.4982,-22.4696,0.1391,3.0609
565,1.8777,-11.6494,0.3832,-22.5391,-0.487,3.3391
570,1.8777,-11.726,0.4982,-22.4696,-0.7652,3.4087
575,1.916,-11.841,0.5365,-22.4696,-0.5565,3.5478
580,1.916,-12.1475,0.7281,-22.6783,-0.0696,3.4783
585,1.7244,-12.0709,0.7664,-23.3043,0.6261,3.7565
590,1.9543,-12.2625,0.7281,-24.487,1.4609,4.313
595,1.8394,-12.2625,0.6514,-25.7391,2.1565,4.3826
600,1.7627,-12.3008,0.7281,-27.3391,2.5043,4.1043
605,1.8394,-12.2625,0.8814,-28.0348,2.4348,5.7739
610,1.916,-12.3775,1.0346,-28.3826,1.9478,7.3739
615,1.7627,-12.3775,0.9963,-29.0783,1.9478,9.9478
620,1.916,-12.3391,1.3412,-29.4957,2.1565,11.1304
625,1.8777,-12.5307,1.4179,-28.4522,2.0174,10.5043
630,1.9543,-12.4924,1.2646,-26.713,1.8087,10.3652
635,2.031,-12.6457,1.3412,-25.0435,1.6,10.5043
640,2.2226,-12.5691,1.2646,-23.4435,1.6696,10.2957
645,2.2992,-12.5691,1.2646,-21.9826,1.8783,10.0174
650,2.2609,-12.5307,1.0346,-19.8261,2.1565,10.2261
655,2.3759,-12.6074,0.9963,-17.3217,2.4348,10.2957
660,2.3759,-12.5691,1.0346,-14.5391,2.9217,10.5043
665,2.031,-12.799,0.4215,-11.5478,3.1304,10.5739
670,2.4142,-12.4924,0.4982,-9.8087,3.3391,12.8
675,2.2609,-12.2242,0.4598,-7.2348,3.2,11.8957
680,2.1076,-12.2242,0.2299,-4.313,3.0609,10.5043
685,1.8777,-11.9559,0.1533,-1.7391,2.5739,10.4348
690,1.7627,-12.0326,-0.0383,0.6261,1.8087,10.9913
695,1.6861,-11.8027,-0.0383,2.6435,0.9739,11.4087
700,1.3795,-11.6111,-0.3449,3.9652,0.2783,11.8261
705,1.3412,-11.8027,-0.2299,5.287,-0.487,12.313
710,1.2646,-11.7643,-0.4598,7.2348,-1.5304,12.8
715,0.9963,-11.4961,-0.3066,9.6696,-2.5739,12.5217
720,0.8047,-11.3428,-0.4598,13.1478,-3.8957,12.8696
725,0.8047,-11.2662,-0.6898,17.6,-5.1478,13.3565
730,0.6898,-10.9979,-0.6514,22.2609,-6.2609,13.7043
735,0.6898,-10.768,-0.9197,26.713,-7.0261,14.0522
740,0.5365,-10.5381,-1.0346,31.3739,-8.0,14.3304
745,0.4982,-10.3082,-1.4562,35.3391,-8.9043,14.2609
750,0.5365,-10.1932,-1.9543,37.4261,-9.7391,16.6957
755,0.5365,-9.6567,-1.9927,38.887,-10.3652,16.9043
760,0.5365,-9.5034,-2.3759,41.3217,-11.3391,15.3739
765,0.4982,-9.1969,-2.6441,42.3652,-12.313,14.4
770,0.4598,-8.967,-2.874,41.3913,-13.0783,14.1217
775,0.4215,-8.6221,-2.989,38.9565,-14.3304,14.0522
780,0.4598,-8.6221,-3.2572,35.4087,-15.6522,14.1217
785,0.1916,-8.3538,-3.2189,31.0261,-16.9739,14.1913
790,0.2299,-8.2005,-3.3339,26.1565,-18.2261,14.4
795,0.1916,-8.2772,-3.2955,21.4957,-19.2696,14.4696
800,0.0766,-8.0856,-3.2572,16.6957,-20.313,13.9826
805,0.0766,-8.0473,-3.0656,12.6609,-21.0087,13.6348
810,0.0,-7.9323,-2.9507,9.9478,-22.0522,13.6348
815,0.115,-7.7407,-2.6824,8.4174,-22.9565,13.6348
820,0.0,-7.6257,-2.4525,7.6522,-23.4435,13.5652
825,0.0,-7.6257,-2.4525,7.513,-23.513,13.7043
830,0.0766,-7.5108,-2.4142,7.8609,-23.1652,13.3565
835,0.115,-7.3575,-2.2226,8.5565,-22.6087,13.1478
840,0.3066,-7.4725,-2.3759,9.6696,-21.6348,12.8696
845,0.0766,-7.2042,-2.2992,10.5043,-20.1043,12.7304
850,0.0,-7.2809,-2.7974,10.5043,-18.1565,13.4261
855,0.6898,-7.0509,-2.3375,8.4174,-16.0696,15.8609
860,0.5365,-7.0126,-2.6824,8.2783,-13.8435,14.0522
865,0.5748,-6.9743,-2.874,8.5565,-11.7565,12.3826
870,0.6898,-7.0509,-2.9507,7.8609,-9.5304,11.6174
875,0.6131,-6.936,-2.9507,6.3304,-7.5826,10.9217
880,0.7664,-6.936,-2.9123,4.313,-5.9826,10.2957
885,0.9963,-6.8977,-2.874,1.9478,-4.4522,9.4609
890,1.0346,-6.8977,-2.874,-0.1391,-3.2,8.487
895,0.958,-6.3995,-2.7974,-1.6696,-2.0174,7.4435
900,1.3795,-6.821,-2.7591,-2.9217,-0.6261,6.1217
905,1.4562,-6.8977,-2.6441,-4.1739,0.8348,4.6609
910,1.6095,-6.9743,-2.5291,-5.3565,2.2261,3.0609
915,1.5711,-7.1659,-2.5675,-6.3304,3.4087,1.3913
920,1.5711,-7.3192,-2.6441,-6.9565,4.3826,0.0
925,1.4562,-7.4725,-2.3759,-7.3043,5.0087,-0.9739
930,1.3412,-7.6257,-2.2992,-6.887,5.1478,-1.5304
935,1.2646,-7.9323,-2.2609,-6.1217,4.9391,-1.8783
940,1.3029,-8.1622,-2.1843,-5.0087,4.3826,-1.9478
945,1.0346,-8.2389,-1.9927,-3.5478,3.7565,-1.9478
950,0.9963,-8.6221,-2.2226,-2.087,3.2,-1.7391
955,0.843,-8.5454,-2.031,-0.3478,3.0609,-1.6
960,0.7664,-8.6604,-1.8011,1.8087,3.3391,-1.6696
965,0.7281,-8.737,-1.7627,4.0348,4.2435,-1.6696
970,0.6514,-8.6987,-1.5711,6.7478,5.8435,-1.8087
975,0.6514,-8.5071,-1.4562,9.7391,7.513,-1.9478
980,0.7664,-8.5454,-1.5711,13.0783,9.5304,-2.2957
985,0.5748,-8.3155,-1.5711,16.2783,11.7565,-3.2696
990,0.5748,-8.0473,-1.6095,19.687,14.1913,-4.0348
995,0.5365,-7.7024,-1.6478,23.5826,16.0,-3.8957
1000,0.8047,-7.4725,-1.6861,27.3391,17.3913,-4.1739
1005,0.6131,-7.1659,-1.9543,30.4696,18.5739,-4.313
1010,0.7281,-6.936,-1.9927,32.9043,19.6174,-4.5913
1015,0.8047,-6.6677,-2.1843,34.4348,20.3826,-4.5217
1020,0.7281,-6.4761,-2.3759,34.7826,20.9391,-4.7304
1025,0.7281,-6.3612,-2.3375,33.9478,21.4957,-5.1478
1030,0.5748,-6.3612,-2.4525,31.8609,22.1217,-5.7043
1035,0.6514,-6.3612,-2.5675,28.8696,22.887,-6.3304
1040,0.6514,-6.5528,-2.5675,25.113,23.6522,-7.3739
1045,0.6131,-6.7444,-2.6824,21.0783,24.5565,-8.3478
1050,0.4598,-7.0509,-2.4142,16.9739,25.3913,-9.5304
1055,0.4982,-7.4725,-2.1843,13.4957,26.2261,-10.7826
1060,0.5748,-7.8173,-1.8777,10.5739,26.9217,-11.9652
1065,0.3449,-8.1622,-1.6095,8.487,27.4087,-13.0783
1070,0.2299,-8.8137,-1.3412,7.5826,27.687,-13.9826
1075,0.1916,-8.967,-0.9963,7.8609,27.5478,-14.4696
1080,0.0766,-9.5034,-0.6514,9.2522,27.0609,-14.5391
1085,0.1533,-9.7717,-0.6131,11.9652,26.2261,-13.913
1090,0.0,-10.0016,-0.4215,15.9304,25.2522,-12.8
1095,0.0,-10.0399,-0.3066,20.5913,24.1391,-10.9913
1100,-0.1533,-10.2315,-0.4598,25.9478,22.887,-8.6957
1105,-0.1533,-10.1932,-0.4215,31.513,21.287,-5.913
1110,-0.1533,-10.0782,-0.3832,37.0783,19.687,-2.9217
1115,-0.1916,-9.925,-0.4982,41.9478,18.2261,0.2087
1120,-0.0383,-9.8483,-0.7281,45.913,17.0435,3.2
1125,-0.1533,-9.6567,-0.6514,48.7652,16.1391,5.7739
1130,0.0,-9.695,-0.6131,50.5043,15.5826,7.7913
1135,-0.1533,-9.3885,-0.7281,51.7565,15.2348,9.113
1140,-0.0383,-9.3502,-0.6131,52.3826,15.2348,9.8087
1145,0.0,-9.5418,-0.2682,53.1478,15.4435,10.0174
1150,0.0,-9.5034,-0.0766,54.3304,15.6522,9.5304
1155,0.0,-9.6184,0.0766,55.8609,15.8609,8.3478
1160,0.2682,-9.7334,0.4215,58.2957,16.1391,6.8174
1165,0.2299,-9.8866,0.7664,61.6348,16.5565,4.9391
1170,0.2299,-10.0016,0.9963,65.8783,16.6261,2.7826
1175,0.3449,-10.2698,1.1879,71.3043,16.5565,0.9043
1180,0.6131,-10.4998,1.4562,77.7043,16.0696,-1.0435
1185,0.6514,-10.5764,1.6478,84.9391,15.1652,-2.8522
1190,0.8047,-10.768,1.7244,92.6609,14.1217,-4.4522
1195,0.8814,-10.768,1.916,100.6609,13.0783,-5.7739
1200,0.843,-10.6147,2.031,108.5913,12.2435,-6.9565
1205,0.8814,-10.4231,2.1843,116.1043,11.8261,-7.8609
1210,1.073,-10.2315,2.4525,122.9913,11.9652,-8.3478
1215,1.1113,-10.0016,2.6824,130.2261,12.7304,-8.6261
1220,1.1879,-9.8483,3.0656,137.8783,14.0522,-9.113
1225,1.4562,-9.695,3.3722,146.713,15.7913,-9.8087
1230,1.7244,-9.6567,4.1386,157.287,18.1565,-10.713
1235,1.8777,-9.7717,5.0583,170.2957,20.9391,-11.8957
1240,1.916,-9.7717,6.2079,186.7826,24.2783,-12.9391
1245,2.1076,-9.7717,7.5108,207.4435,27.687,-13.7043
1250,2.1843,-10.0399,9.2735,233.3913,31.3739,-14.4
1255,2.6441,-10.3465,11.6111,264.9739,35.6174,-14.9565
1260,3.1423,-10.7297,14.2552,303.5826,40.0696,-15.8609
1265,4.062,-11.9943,16.1329,349.0087,44.8,-17.0435
1270,4.7517,-14.4851,17.0142,396.2435,48.5565,-21.0087
1275,4.2919,-17.704,18.7386,446.5391,48.9739,-28.7304
1280,2.5675,-21.1528,19.505,506.0174,43.7565,-38.887
1285,1.9927,-23.452,12.3391,564.1739,33.6,-48.3478
1290,2.5291,-23.2988,-0.8047,582.7478,29.3565,-55.513
1295,1.5711,-20.1182,-12.2242,531.2,34.713,-61.1478
1300,-0.3449,-15.7496,-18.3171,411.9652,40.4174,-62.4
1305,-2.3759,-10.8063,-14.9449,250.4348,39.1652,-54.6087
1310,1.3412,-8.6987,-5.2882,92.8696,27.2,-35.9652
1315,2.6441,-9.4268,4.5218,-20.6609,13.0783,-24.9043
1320,2.6058,-11.0746,10.883,-79.5826,2.6435,-22.7478
1325,2.1076,-12.7607,14.0252,-99.2696,-4.9391,-23.6522
1330,1.6478,-14.2168,14.83,-99.2696,-10.2261,-22.4
1335,1.5328,-14.4851,14.9066,-88.5565,-15.5826,-17.113
1340,1.6478,-13.5654,14.8683,-69.0783,-22.9565,-8.1391
1345,1.6478,-11.4578,13.9103,-41.3913,-32.0,2.1565
1350,1.4179,-8.7754,12.1475,-11.3391,-40.487,11.2696
1355,1.3795,-5.8247,10.4998,13.6348,-46.4696,18.1565
1360,1.3795,-2.7207,8.5838,29.0783,-48.2087,21.7043
1365,1.0346,-0.0383,6.821,32.8348,-46.1217,22.6783
1370,0.8814,1.7627,5.5564,25.6696,-42.1565,22.1913
1375,0.8047,2.7207,4.7134,9.1826,-37.4957,22.1217
1380,0.4982,3.2572,4.4068,-13.4957,-32.2783,23.0957
1385,0.2682,3.0273,4.6368,-38.0522,-26.9913,24.6957
1390,0.3449,2.3375,5.2116,-59.4087,-21.5652,27.2696
1395,0.3832,1.4945,6.0546,-74.5739,-16.2783,29.4261
1400,0.9197,0.4982,6.7061,-81.4609,-11.3391,30.887
1405,0.843,-0.2682,7.3192,-80.0696,-6.3304,30.7478
1410,1.073,-1.1113,7.5491,-71.3739,-1.8783,30.3304
1415,0.9963,-1.8394,7.8173,-57.5304,1.9478,28.8696
1420,0.9197,-2.4908,7.5491,-40.4174,4.8,27.4783
1425,0.958,-3.1423,7.5874,-21.7739,6.3304,26.2261
1430,0.8047,-3.5255,7.5874,-3.1304,6.5391,24.7652
1435,0.9197,-3.9853,7.2809,14.7478,6.0522,23.0957
1440,0.8814,-4.1386,7.1659,31.3043,5.4261,21.1478
1445,0.8814,-4.2536,6.936,45.5652,4.9391,19.1304
1450,0.7664,-4.2152,6.7061,57.1826,5.1478,16.9043
1455,0.5748,-4.1386,6.3995,65.7391,6.0522,14.6783
1460,0.4215,-4.1003,6.1696,71.5826,7.4435,12.5217
1465,0.5365,-4.1769,6.1696,74.2957,9.1826,10.4348
1470,0.6514,-4.2152,6.2079,74.6435,11.0609,8.6261
1475,0.6514,-4.3685,6.3612,73.1826,13.0087,7.0957
1480,0.6514,-4.3302,6.6294,70.6087,14.6087,6.0522
1485,0.6514,-4.5601,6.8977,67.4087,15.7217,5.6348
1490,0.6131,-4.7134,7.2425,64.2783,16.2087,5.7739
1495,0.7664,-5.1349,7.0509,61.3565,16.0696,6.2609
1500,0.5748,-5.3648,7.1659,58.5739,15.7217,7.0957
1505,0.6131,-5.5948,6.8977,55.513,15.1652,7.7913
1510,0.4598,-6.0163,6.4761,51.4087,14.8174,8.2783
1515,0.3449,-6.3995,5.863,46.0522,14.8174,8.7652
1520,0.2299,-6.6677,5.6714,38.7478,15.0957,8.9043
1525,0.0383,-7.2425,5.1732,29.7739,15.4435,8.6261
1530,0.0,-7.4725,5.2499,19.7565,16.0696,8.2783
1535,-0.2299,-8.0473,5.2116,9.7391,16.6957,7.5826
1540,-0.2299,-8.4688,5.5948,1.3913,17.2522,6.6087
1545,-0.2299,-9.1202,6.1313,-4.1043,17.7391,5.6348
1550,-0.3832,-9.2735,5.9396,-6.4696,17.8087,4.4522
1555,-0.3066,-9.3885,6.2462,-5.8435,16.9739,3.4087
1560,-0.4982,-9.4268,6.3229,-2.9913,15.3043,2.8522
1565,-0.3449,-9.3118,6.2462,0.5565,13.7739,2.6435
1570,-0.3449,-8.8903,6.1313,4.6609,11.5478,1.8783
1575,-0.1916,-8.5071,5.9396,8.0696,8.9043,1.2522
1580,-0.115,-7.8557,5.6331,10.3652,6.6783,1.6
1585,-0.0766,-7.3192,5.2499,11.1304,4.8696,2.4348
1590,0.0383,-6.7827,5.02,10.2261,3.5478,3.6174
1595,0.115,-6.2845,4.8667,7.9304,2.5043,5.287
1600,0.7664,-5.5564,4.9816,4.9391,1.8087,7.0261
1605,0.3066,-5.6714,4.79,1.6,1.3217,8.6957
1610,0.4982,-5.5181,4.79,-1.8783,0.9739,10.8522
1615,0.5365,-5.1732,4.7517,-4.9391,0.3478,12.1043
1620,0.5365,-5.0966,4.8284,-6.9565,0.0,13.0783
1625,0.6898,-5.0966,4.7517,-8.0,-0.3478,13.5652
1630,0.3449,-4.905,4.9433,-8.6957,-0.3478,13.287
1635,0.5365,-4.9816,5.0583,-8.0,-0.4174,13.7739
1640,0.5748,-4.9816,5.1349,-6.8174,-0.487,13.5652
1645,0.7664,-5.0583,5.3265,-4.8,-0.2087,12.6609
1650,0.4215,-5.1732,5.3648,-2.6435,0.2783,11.4087
1655,1.2646,-5.2882,5.7864,-0.9739,0.7652,10.713
1660,0.8814,-5.1349,5.7864,1.8783,1.7391,7.3043
1665,0.9197,-5.2499,5.9013,5.2174,2.713,4.6609
1670,0.958,-5.3265,5.978,8.0,3.8261,2.3652
1675,1.1113,-5.4798,6.0546,10.5739,4.9391,0.3478
1680,1.1113,-5.4798,6.2462,12.313,6.3304,-1.6696
1685,1.1879,-5.6714,6.0546,13.5652,7.7913,-3.4087
1690,1.1113,-5.6331,6.0546,14.2609,9.113,-4.7304
1695,0.9963,-5.3648,6.0163,14.5391,10.3652,-5.9826
1700,1.3029,-6.1696,6.821,14.6087,11.1304,-6.887
1705,1.0346,-5.7864,6.1696,14.3304,11.4783,-7.6522
1710,1.073,-5.9013,6.2079,14.1913,11.4783,-8.1391
1715,0.8814,-6.0163,6.3229,14.0522,11.1304,-8.3478
1720,0.8814,-5.978,6.2462,14.2609,10.6435,-8.487
1725,0.7281,-6.1696,6.2079,14.6087,9.8087,-8.6261
1730,0.4598,-6.0929,6.3229,15.3739,8.8348,-8.8348
1735,0.4598,-6.1313,6.4378,16.2087,7.9304,-8.9043
1740,0.2299,-6.0546,6.3229,16.9043,7.3739,-8.9739
1745,0.0766,-6.2079,6.5145,17.6,6.4,-9.3913
1750,0.115,-6.1696,6.5911,18.2261,5.0087,-9.6696
1755,-0.0383,-6.0546,6.5528,18.4348,3.687,-9.8087
1760,0.0,-6.0163,6.4378,18.1565,2.5739,-9.7391
1765,-0.0766,-5.9396,6.5145,17.0435,1.8783,-9.3217
1770,-0.0766,-5.9396,6.5911,15.6522,1.2522,-8.9043
1775,0.0,-5.9013,6.6294,14.0522,0.9043,-8.2783
1780,-0.0766,-5.9396,6.5528,12.5913,0.6261,-7.513
1785,-0.0383,-5.9013,6.7061,11.4087,0.6261,-6.7478
1790,-0.0383,-5.9396,6.6677,10.5043,0.7652,-6.0522
1795,0.0,-5.978,6.6677,10.087,0.9739,-5.3565
1800,-0.0766,-5.9013,6.4378,9.9478,1.0435,-4.5217
1805,-0.115,-5.9013,6.5528,10.1565,1.3217,-3.8261
1810,0.0,-5.7864,6.2462,10.3652,1.7391,-3.0609
1815,0.0383,-5.748,6.3229,10.5739,2.1565,-2.5043
1820,0.0383,-5.6331,6.3229,10.5043,2.7826,-2.087
1825,0.0766,-5.5181,6.2845,10.3652,3.2696,-1.8087
1830,0.115,-5.5181,6.2462,9.9478,3.5478,-1.4609
1835,0.115,-5.2882,6.2079,9.6,3.6174,-1.1826
1840,0.3066,-5.4415,6.1313,8.9043,3.3391,-0.9043
1845,0.2682,-5.2499,6.1696,8.0,2.9217,-0.487
1850,0.4215,-5.0966,6.1313,7.3739,2.2261,-0.2783
1855,0.4598,-5.2499,6.1313,6.7478,1.3913,-0.0696
1860,0.6131,-5.2116,6.2079,6.0522,0.5565,0.3478
1865,0.7281,-5.1732,6.1313,5.5652,-0.487,0.5565
1870,0.6514,-5.0583,6.3229,5.2174,-1.2522,0.9043
1875,0.8047,-5.0583,6.3995,5.0783,-1.9478,1.1826
1880,0.8047,-5.1732,6.2845,5.3565,-2.6435,1.1826
1885,0.6898,-5.0583,6.4761,5.5652,-3.1304,1.2522
1890,0.7281,-5.2116,6.4378,6.1913,-3.687,1.3913
1895,0.6514,-5.1349,6.4761,6.7478,-4.1739,1.5304
1900,0.4982,-5.1349,6.5911,7.3739,-4.5913,1.2522
1905,0.4982,-5.2499,6.5145,8.0,-5.0783,1.3217
1910,0.5365,-5.2116,6.4761,8.8348,-6.0522,1.8783
1915,0.6131,-5.2116,6.4761,9.4609,-6.8174,2.087
1920,0.5365,-5.2882,6.2462,9.6696,-7.6522,2.087
1925,0.4215,-5.3265,6.2462,9.4609,-8.3478,1.8783
1930,0.4598,-5.1732,6.6677,8.8348,-8.6957,1.6
1935,0.4598,-5.3265,6.6294,8.2783,-8.9043,1.3217
1940,0.4215,-5.2116,6.6294,7.4435,-8.8348,1.0435
1945,0.5365,-5.3265,6.5528,6.9565,-8.7652,0.5565
1950,0.5365,-5.3648,6.5145,6.3304,-8.4174,0.0
1955,0.4982,-5.3648,6.5528,6.1913,-7.9304,-0.4174
1960,0.4598,-5.2499,6.7444,6.1913,-8.0696,-0.2783
1965,0.5748,-5.3648,6.7444,6.2609,-8.1391,-0.2087
1970,0.4598,-5.3648,6.8977,6.4,-8.0696,-0.2783
1975,0.5365,-5.4415,6.7444,6.5391,-7.9304,-0.4174
1980,0.4982,-5.4032,6.821,6.7478,-7.7913,-0.3478
1985,0.5748,-5.5181,6.7444,6.7478,-7.6522,-0.3478
1990,0.6131,-5.5181,6.7827,6.887,-7.5826,-0.3478
1995,0.5365,-5.4798,6.7061,6.8174,-7.3043,-0.4174
2000,0.5748,-5.4798,6.821,7.0261,-7.1652,-0.5565
2005,0.6131,-5.3265,6.5911,7.0957,-6.7478,-0.7652
2010,0.4982,-5.3648,6.6294,6.9565,-6.4,-0.7652
2015,0.4598,-5.3265,6.3995,6.6087,-5.913,-0.8348
2020,0.5365,-5.3265,6.3995,5.913,-5.4957,-0.7652
2025,0.8047,-5.4032,6.3995,4.9391,-5.1478,-0.9043
2030,0.3449,-5.1732,6.5145,3.6174,-4.5913,-1.3913
2035,0.5365,-5.1349,6.5145,2.8522,-4.3826,-0.9739
2040,0.5365,-5.2499,6.5145,2.1565,-4.4522,-0.6957
2045,0.5748,-5.2116,6.5145,1.6696,-4.5217,-0.7652
2050,0.5365,-5.2882,6.5528,1.3913,-4.5913,-1.0435
2055,0.3449,-5.2116,6.2845,1.1826,-4.5913,-1.3913
2060,0.8814,-5.1732,6.5911,0.6957,-4.9391,-0.7652
2065,0.6898,-5.1349,6.5528,0.7652,-5.0087,-1.8087
2070,0.6514,-5.0583,6.4378,0.7652,-4.9391,-2.2957
2075,0.6898,-5.0583,6.5528,0.6957,-5.0087,-2.6435
2080,0.6131,-5.0583,6.5145,0.7652,-5.287,-2.8522
2085,0.6131,-5.0966,6.5528,0.8348,-5.4261,-3.2
2090,0.6898,-5.1732,6.5528,0.8348,-5.4261,-3.4783
2095,0.6898,-5.1349,6.5145,0.6261,-5.3565,-3.8957
2100,0.6514,-5.1349,6.5528,0.6261,-5.3565,-3.8957
2105,0.843,-5.0583,6.5528,0.4174,-5.3565,-4.0348
2110,0.6898,-5.1349,6.5145,0.487,-5.3565,-4.1739
2115,0.843,-5.1732,6.7061,0.4174,-5.287,-4.3826
2120,0.7281,-5.2116,6.7061,0.2087,-4.9391,-4.5217
2125,0.6514,-5.2499,6.5145,0.1391,-4.7304,-4.6609
2130,0.8047,-5.1732,6.5911,0.2087,-4.5913,-4.8
2135,0.843,-5.1732,6.7827,0.2087,-4.4522,-4.8696
2140,0.7664,-5.2499,6.6677,0.2783,-4.4522,-4.7304
2145,0.7664,-5.2882,6.6294,0.3478,-4.4522,-4.5217
2150,0.8047,-5.2882,6.6677,0.6957,-4.6609,-4.3826
2155,0.843,-5.2882,6.5911,0.9043,-4.8,-4.1739
2160,0.7664,-5.2116,6.7061,1.0435,-5.0087,-3.9652
2165,0.7281,-5.2882,6.5911,1.113,-5.287,-3.8957
2170,0.8047,-5.1349,6.7444,1.113,-5.3565,-3.687
2175,0.7281,-5.1732,6.6677,1.113,-5.4261,-3.5478
2180,0.843,-5.1349,6.5911,0.9043,-5.6348,-3.4783
2185,0.9197,-5.1732,6.5528,0.7652,-5.6348,-3.4087
2190,0.8047,-5.2116,6.6677,0.487,-5.5652,-3.3391
2195,0.8047,-5.1349,6.7061,0.2087,-5.3565,-3.3391
2200,0.8047,-4.7517,6.2079,-0.0696,-5.3565,-3.4087
2205,0.8814,-5.0583,6.7827,-0.2783,-5.287,-3.4087
2210,0.958,-5.0583,6.6294,-0.7652,-5.0087,-3.3391
2215,0.843,-5.1349,6.5911,-1.1826,-4.8696,-3.3391
2220,0.9197,-5.0583,6.5528,-1.7391,-4.6609,-3.2696
2225,0.958,-5.0966,6.6294,-2.2957,-4.4522,-3.2696
2230,0.8814,-5.0583,6.7061,-2.9913,-4.1739,-3.4087
2235,0.8814,-5.1732,6.7061,-3.7565,-3.8261,-3.5478
2240,0.958,-5.1732,6.6677,-3.9652,-3.8957,-3.1304
2245,0.9197,-5.1732,6.7827,-4.0348,-4.1043,-2.9217
2250,0.9197,-5.0966,6.7444,-3.9652,-4.1739,-2.8522
2255,0.7664,-4.9816,7.0126,-3.687,-4.1739,-2.8522
2260,0.958,-5.1349,6.7827,-3.3391,-4.1739,-2.8522
2265,1.0346,-5.0966,6.6294,-2.9913,-4.1043,-2.7826
2270,0.8814,-4.9433,6.7827,-2.7826,-4.1739,-2.9217
2275,1.073,-5.1349,6.7444,-2.6435,-4.0348,-2.8522
2280,0.9197,-5.1349,6.7444,-2.5739,-4.1043,-2.8522
2285,0.9197,-4.9816,6.6677,-2.713,-4.1043,-2.8522
2290,0.8814,-5.0966,6.7061,-2.9217,-4.1043,-2.7826
2295,0.958,-5.0583,6.6677,-3.3391,-4.1043,-2.7826
2300,0.958,-5.0583,6.6294,-3.7565,-3.9652,-2.7826
2305,1.073,-5.0966,6.6294,-4.313,-3.8261,-2.713
2310,0.9963,-5.1349,6.5911,-4.6609,-3.5478,-2.713
2315,1.073,-5.1349,6.5145,-5.2174,-3.3391,-2.5739
2320,1.0346,-5.1349,6.6294,-5.6348,-3.1304,-2.4348
2325,1.0346,-5.1732,6.6677,-5.7739,-3.2,-2.2957
2330,0.958,-5.0966,6.7061,-5.913,-3.2696,-2.0174
2335,1.0346,-5.0966,6.6294,-6.0522,-3.2696,-1.8783
2340,1.073,-5.1732,6.5911,-6.1913,-3.4087,-1.8087
2345,0.958,-5.2882,6.7061,-6.2609,-3.5478,-1.6
2350,0.9963,-5.3265,6.5145,-6.6087,-3.6174,-1.3913
2355,1.0346,-5.2882,6.5145,-7.0261,-3.6174,-1.4609
2360,1.1496,-5.4415,6.3995,-7.2348,-3.3391,-1.6
2365,1.0346,-5.4032,6.5145,-7.5826,-3.0609,-1.8087
2370,0.9963,-5.4415,6.5145,-7.7913,-2.713,-1.8783
2375,1.1113,-5.5564,6.4761,-7.7217,-2.3652,-2.0174
2380,1.0346,-5.5181,6.7061,-7.6522,-2.087,-2.2261
2385,1.1113,-5.4798,6.821,-7.3043,-1.8783,-2.2957
2390,1.2263,-5.5181,6.6677,-6.7478,-1.8087,-2.3652
2395,1.1113,-5.4415,6.7827,-6.1217,-1.7391,-2.2261
2400,1.1879,-5.4415,6.6294,-5.287,-1.7391,-2.087
2405,1.1113,-5.4032,6.7444,-4.5217,-1.8783,-1.9478
2410,1.1113,-5.3648,6.7444,-4.0348,-2.0174,-1.6696
2415,1.1113,-5.2882,6.6294,-3.5478,-2.2957,-1.6
2420,1.1113,-5.1732,6.7827,-3.2,-2.5043,-1.3217
2425,1.0346,-5.1732,6.5145,-3.3391,-2.713,-1.113
2430,1.1113,-5.2882,6.4378,-3.5478,-2.9217,-0.9043
2435,1.1113,-5.2499,6.5145,-3.9652,-2.9217,-0.6957
2440,1.1496,-5.2882,6.5145,-4.4522,-2.9913,-0.6261
2445,1.1496,-5.2116,6.4378,-5.1478,-2.8522,-0.5565
2450,1.1113,-5.3648,6.5911,-5.5652,-2.713,-0.487
2455,1.1496,-5.2499,6.6294,-5.9826,-2.5043,-0.3478
2460,1.1496,-5.1732,6.6677,-6.0522,-2.3652,-0.2783
2465,1.1496,-5.3648,6.6294,-6.1913,-2.2261,-0.2783
2470,1.1879,-5.2882,6.6294,-6.0522,-2.087,-0.2783
2475,1.1113,-5.2882,6.5911,-5.8435,-2.087,0.0
2480,1.1879,-5.4798,6.6677,-5.4261,-1.8783,0.0696
2485,1.1496,-5.3265,6.5911,-5.2174,-1.7391,0.1391
2490,1.073,-5.2882,6.4761,-4.8696,-1.6696,0.2087
2495,1.1113,-5.2116,6.5528,-4.8,-1.5304,0.3478
2500,1.1113,-5.3265,6.5145,-4.5913,-1.3913,0.487
2505,1.1496,-5.3265,6.5145,-4.5913,-1.3217,0.487
2510,1.1879,-5.2882,6.4761,-4.5217,-1.2522,0.4174
2515,1.1496,-5.3265,6.5145,-4.6609,-1.3913,0.6261
2520,1.2263,-5.3648,6.4761,-4.8,-1.2522,0.6261
2525,1.1496,-5.3648,6.5145,-5.287,-1.2522,0.7652
2530,1.1113,-5.4032,6.5528,-5.8435,-1.113,0.7652
2535,1.1113,-5.3648,6.5528,-6.2609,-0.9739,0.8348
2540,1.1113,-5.3265,6.2845,-6.5391,-0.7652,0.9043
2545,1.1113,-5.3648,6.5145,-6.6783,-0.6957,0.9043
2550,1.1113,-5.4032,6.4378,-6.8174,-0.5565,0.7652
2555,1.073,-5.4415,6.3995,-6.9565,-0.3478,0.6261
2560,1.1113,-5.4798,6.3995,-7.0957,-0.2087,0.487
2565,1.1879,-5.5948,6.4761,-7.0957,-0.0696,0.3478
2570,1.1113,-5.4798,6.4761,-7.0261,0.2087,0.0696
2575,1.1879,-5.5181,6.5528,-6.887,0.2783,-0.0696
2580,1.0346,-5.4798,6.4761,-6.5391,0.6957,-0.2783
2585,1.2646,-5.5564,6.5145,-6.1913,0.9043,-0.487
2590,1.2646,-5.4798,6.6294,-5.6348,1.1826,-0.6261
2595,1.2263,-5.4415,6.4761,-5.1478,1.3217,-0.6957
2600,1.2263,-5.4032,6.5145,-4.5217,1.5304,-0.7652
2605,1.1879,-5.4032,6.3995,-4.1043,1.6,-0.9043
2610,1.1496,-5.4032,6.4378,-3.8261,1.7391,-0.8348
2615,1.1879,-5.2882,6.6677,-3.8261,1.7391,-0.7652
2620,1.1496,-5.2499,6.4378,-3.6174,1.7391,-0.8348
2625,1.1879,-5.3648,6.5145,-3.687,1.8783,-0.8348
2630,1.1879,-5.2882,6.7444,-3.9652,2.0174,-0.7652
2635,1.073,-5.2882,6.6294,-4.1739,2.1565,-0.7652
2640,1.1496,-5.2882,6.4378,-4.313,2.3652,-0.7652
2645,1.1879,-5.4415,6.5528,-4.7304,2.5043,-0.8348
2650,1.1113,-5.3648,6.7444,-4.8696,2.5739,-0.6957
2655,1.073,-5.3265,6.5145,-4.8696,2.713,-0.6957
2660,1.1496,-5.3265,6.7444,-4.8696,2.7826,-0.6261
2665,1.2263,-5.4798,6.5911,-4.5913,2.713,-0.6957
2670,1.2263,-5.4798,6.5528,-4.3826,2.7826,-0.6261
2675,1.1496,-5.4032,6.4761,-4.313,2.713,-0.5565
2680,1.2646,-5.4032,6.6677,-4.1739,2.713,-0.487
2685,1.3029,-5.4415,6.5911,-4.1739,2.5739,-0.2783
2690,1.1879,-5.4798,6.4378,-4.1043,2.5043,-0.2087
2695,1.2263,-5.3265,6.6294,-4.1043,2.4348,-0.1391
2700,1.073,-5.4032,6.5528,-4.0348,2.4348,-0.2087
2705,1.2263,-5.3648,6.4761,-3.9652,2.4348,-0.0696
2710,1.073,-5.4032,6.5911,-3.687,2.4348,-0.0696
2715,1.1879,-5.4032,6.6294,-3.4783,2.5043,0.0696
2720,1.1113,-5.2882,6.7061,-3.2,2.5043,0.0696
2725,0.958,-5.2499,6.7061,-3.2696,2.4348,0.0696
2730,1.0346,-5.2882,6.5528,-3.4783,2.3652,0.3478
2735,1.073,-5.3265,6.5145,-3.7565,2.4348,0.3478
2740,1.1496,-5.2116,6.3995,-4.1043,2.2957,0.6261
2745,1.1113,-5.3265,6.4378,-4.6609,2.2261,0.7652
2750,0.9197,-5.2882,6.2845,-5.3565,2.2261,1.0435
2755,1.1496,-5.4798,6.3612,-6.0522,2.2957,1.1826
2760,0.9963,-5.4798,6.5911,-6.6087,2.3652,1.3217
2765,1.1496,-5.5181,6.4761,-6.9565,2.2957,1.6
2770,0.958,-5.4798,6.4761,-7.0957,2.2957,1.6
2775,1.073,-5.4798,6.4378,-6.8174,2.3652,1.8783
2780,1.1113,-5.4798,6.5911,-6.4,2.3652,2.0174
2785,1.1113,-5.5564,6.5528,-5.8435,2.4348,2.087
2790,1.1496,-5.5948,6.4761,-5.1478,2.5043,2.0174
2795,1.1113,-5.4798,6.6294,-4.4522,2.5739,2.0174
2800,0.9963,-5.748,6.4761,-3.7565,2.6435,2.087
2805,1.1496,-5.5564,6.5528,-3.2696,2.8522,2.0174
2810,1.0346,-5.5181,6.4761,-2.9217,2.9217,1.8783
2815,1.0346,-5.3648,6.6294,-2.9217,3.0609,1.6
2820,1.1113,-5.4032,6.5145,-2.8522,3.2,1.6
2825,1.073,-5.3648,6.5145,-3.0609,3.2696,1.4609
2830,1.073,-5.4415,6.5145,-3.3391,3.5478,1.1826
2835,1.073,-5.3648,6.5911,-3.5478,3.7565,1.0435
2840,1.0346,-5.3648,6.3612,-3.8261,3.8957,0.9739
2845,0.9963,-5.4415,6.4761,-4.0348,3.9652,0.8348
2850,1.073,-5.4032,6.5145,-4.1739,3.9652,0.6957
2855,1.1113,-5.02,5.978,-4.2435,3.8957,0.6957
2860,1.1113,-5.5181,6.6294,-4.2435,4.0348,0.6957
2865,1.0346,-5.4415,6.6294,-4.1739,3.9652,0.6957
2870,0.843,-5.3648,6.5528,-4.0348,3.8261,0.7652
2875,0.9963,-5.4415,6.5145,-4.1739,3.8261,0.6957
2880,1.073,-5.4798,6.6294,-4.2435,3.687,0.6261
2885,0.9963,-5.3265,6.4761,-4.5913,3.5478,0.8348
2890,1.0346,-5.4798,6.5145,-4.8,3.4783,0.7652
2895,0.9197,-5.4415,6.5145,-5.1478,3.4783,0.6261
2900,0.958,-5.4032,6.5145,-5.6348,3.5478,0.6261
2905,0.958,-5.4798,6.9743,-5.8435,3.6174,0.487
2910,0.9963,-5.4415,6.4761,-5.7739,3.7565,0.2783
2915,0.8814,-5.3265,6.6294,-5.7739,3.8957,0.1391
2920,0.9197,-5.4415,6.7444,-5.4957,4.1043,0.0
2925,0.9963,-5.5564,6.4761,-5.2174,4.313,-0.0696
2930,0.8814,-5.3265,6.5911,-5.0087,4.3826,-0.1391
2935,0.8814,-5.4798,6.7444,-4.7304,4.4522,-0.1391
2940,0.9963,-5.5181,6.7444,-4.4522,4.3826,-0.2087
2945,0.8814,-5.4032,6.5145,-4.4522,4.2435,-0.0696
2950,0.9197,-5.4798,6.4761,-4.4522,4.1739,0.0696
2955,0.843,-5.5181,6.5528,-4.5217,4.0348,0.0696
2960,0.8047,-5.3265,6.4378,-4.8696,4.0348,0.2087
2965,0.9197,-5.2499,6.4378,-5.0783,3.8957,0.2783
2970,0.843,-5.4032,6.3612,-5.4261,3.7565,0.4174
2975,0.8814,-5.4032,6.4761,-5.7043,3.4783,0.5565
2980,0.843,-5.4415,6.3995,-6.2609,3.3391,0.6261
2985,0.7664,-5.3648,6.5528,-6.7478,3.2,0.6261
2990,0.843,-5.5948,6.5145,-7.1652,2.9217,0.6957
2995,0.8814,-5.4032,6.5528,-7.4435,2.713,0.8348
