timestamp,accX,accY,accZ,gyroX,gyroY,gyroZ
0,0.115,-7.5491,-1.6478,-24.8348,2.1565,36.8
5,0.3066,-7.7407,-1.3795,-25.8783,5.5652,33.4609
10,0.3832,-8.1239,-1.1879,-25.1826,8.2087,29.913
15,0.7281,-8.3155,-0.843,-22.3304,10.5739,25.8087
20,1.073,-8.6987,-0.6131,-16.7652,13.2174,21.1478
25,1.1496,-8.8137,-0.4215,-8.9739,16.1391,15.3739
30,1.4945,-8.8903,-0.115,0.6261,19.1304,8.9739
35,1.3412,-8.5454,-0.2299,11.1304,21.2174,1.9478
40,1.1113,-7.9323,-0.3832,21.913,21.2174,-6.4
45,0.8814,-7.4725,-0.6514,33.5304,18.5739,-13.0783
50,0.6514,-6.8977,-0.7664,42.087,14.4,-18.9217
55,0.4215,-6.3229,-1.1496,49.6,9.4609,-23.8609
60,0.3066,-5.5181,-1.6478,55.513,4.8,-27.8261
65,0.0383,-4.79,-1.9927,60.5913,0.9043,-30.4
70,-0.1533,-4.062,-2.3375,64.0,-1.6696,-31.5826
75,-0.3832,-3.2189,-2.6824,65.8087,-1.9478,-31.7913
80,-0.4598,-2.4525,-2.989,66.8522,-0.2783,-30.2609
85,-0.3449,-1.7244,-3.0656,66.713,3.2696,-27.8957
90,-0.3832,-1.3412,-3.1039,65.7391,8.2783,-23.3043
95,-0.3832,-1.0346,-3.0656,63.6522,15.8609,-18.7826
100,-0.4598,-0.7664,-3.1423,61.287,22.1217,-13.9826
105,-0.7664,-0.6131,-2.8357,59.0609,26.6435,-9.8783
110,-1.2263,-0.2299,-2.7974,57.6,27.8261,-6.1913
115,-0.6514,-0.1533,-3.1423,56.9043,24.7652,-2.7826
120,0.2682,0.4215,-4.1003,55.6522,17.5304,-0.1391
125,0.6514,0.9197,-5.7097,51.4087,7.1652,0.6261
130,-0.4215,1.4562,-7.2425,40.2087,-6.887,2.5739
135,-2.3759,1.4945,-9.4651,18.2957,-28.7304,7.513
140,-4.2152,0.4982,-11.5727,-16.6957,-60.5217,16.2783
145,-5.3648,-1.916,-12.3008,-61.1478,-99.4783,28.3826
150,-5.4415,-5.7097,-11.6494,-112.487,-141.0783,37.913
155,-4.3685,-10.2698,-10.0782,-139.1304,-158.3304,45.6348
160,-2.7207,-14.4468,-7.894,-141.913,-157.913,51.6174
165,-1.3795,-17.5124,-5.7864,-121.6,-146.2261,54.6783
170,-1.073,-18.662,-4.5218,-90.2261,-132.5913,55.3043
175,-0.4982,-19.3518,-3.6021,-62.1913,-123.2,54.7478
180,0.0766,-19.6583,-3.832,-46.0522,-120.0,55.3043
185,1.1496,-19.8499,-4.4835,-41.7391,-119.5826,56.487
190,2.5291,-21.0379,-5.4415,-43.3391,-117.3565,58.713
195,3.2955,-22.8772,-7.0126,-42.4348,-109.287,59.8261
200,3.5638,-24.9465,-8.852,-33.8783,-90.0174,58.4348
205,3.6787,-26.7093,-9.695,-16.2783,-69.6348,52.5217
210,3.8704,-26.9775,-9.81,1.3217,-49.0435,41.8087
215,3.6021,-26.2877,-9.2735,19.9652,-29.4261,27.6174
220,2.7207,-24.4484,-7.6641,36.9391,-11.3391,13.0087
225,1.9927,-22.2258,-5.8247,51.0609,3.2,0.1391
230,1.5328,-19.62,-4.3685,63.2348,13.5652,-9.4609
235,1.2646,-17.2058,-3.3722,72.3478,20.8696,-16.6261
240,1.1879,-14.715,-2.9123,75.4783,26.3652,-21.4957
245,1.073,-12.7223,-2.874,72.7652,30.4696,-25.3913
250,1.1879,-11.4578,-3.1423,65.2522,34.5043,-27.8261
255,1.1113,-10.3465,-3.6404,54.1217,39.513,-29.5652
260,1.073,-9.9633,-3.947,38.6783,44.1043,-30.2609
265,1.073,-9.5801,-4.062,24.9739,48.8348,-31.7217
270,1.073,-9.4651,-4.0236,12.1043,54.0522,-33.0435
275,0.958,-9.2735,-3.7171,0.6957,59.2696,-35.0609
280,0.7664,-8.8903,-3.1039,-9.2522,63.7217,-37.287
285,0.6131,-8.6604,-2.2609,-17.9478,67.6174,-39.7217
290,0.4215,-8.5071,-2.1459,-24.2783,70.8174,-41.8087
295,0.1916,-8.6604,-1.8777,-30.9565,72.487,-43.4783
300,0.0383,-8.9286,-1.6478,-37.4957,72.2783,-44.8696
305,-0.0766,-9.3885,-2.0693,-43.687,69.8435,-47.5826
310,-0.0766,-9.81,-2.031,-51.3391,64.8348,-50.713
315,-0.1916,-9.8866,-2.031,-54.6087,60.0348,-54.6087
320,-0.3832,-9.8866,-2.1459,-55.0261,54.8174,-57.7391
325,-0.7281,-9.7334,-2.3375,-53.6348,50.087,-59.4783
330,-1.3029,-9.3885,-2.4525,-51.9652,46.2609,-57.4609
335,-1.6095,-9.3885,-2.3375,-50.1565,42.9217,-53.0783
340,-2.0693,-9.1202,-2.031,-47.1652,38.4696,-46.7478
345,-2.3375,-8.9286,-1.7244,-41.8783,32.9043,-39.7913
350,-2.3375,-8.852,-1.2646,-35.8261,26.3652,-32.5565
355,-2.1843,-8.9286,-1.1496,-28.8,20.1739,-25.9478
360,-1.8777,-9.0819,-1.3029,-20.8696,15.7217,-18.713
365,-1.4179,-8.8903,-1.2263,-10.2957,13.913,-13.4261
370,-1.1113,-8.7754,-1.4179,-0.7652,15.2348,-9.2522
375,-0.8047,-8.4305,-1.5328,8.9043,18.0174,-6.4
380,-0.4982,-7.9323,-1.6095,18.4348,21.1478,-4.2435
385,-0.3066,-7.4725,-1.6095,27.4783,24.2087,-2.7826
390,0.0383,-6.7827,-1.6478,35.5478,27.0609,-1.0435
395,0.2299,-6.1313,-1.4945,42.4348,30.1217,0.4174
400,0.5365,-5.2116,-1.5711,48.6957,33.2522,2.3652
405,0.6514,-4.3302,-1.4562,54.6783,36.1739,4.9391
410,0.843,-3.3722,-1.4562,59.4087,38.3304,7.6522
415,0.8814,-2.6441,-1.3412,62.6087,39.0957,10.4348
420,1.1496,-1.8011,-1.1113,64.3478,37.7043,12.6609
425,1.073,-0.958,-1.073,64.6261,34.0174,13.8435
430,1.073,-0.1533,-1.1879,63.4435,28.313,14.1217
435,1.0346,0.4215,-1.6478,60.1739,20.2435,13.4957
440,0.9963,0.8814,-1.7244,54.4,10.9217,11.7565
445,0.7281,1.2263,-1.6861,47.513,1.1826,8.8348
450,0.1916,1.4179,-1.5328,39.7913,-8.5565,5.4957
455,-0.1916,1.3412,-1.3412,31.9304,-18.0174,2.3652
460,-0.5748,0.9197,-1.2646,25.4609,-27.1304,0.0696
465,-1.1879,0.5748,-0.958,21.4957,-35.2,-1.3217
470,-1.5328,0.0383,-0.958,20.8,-42.2261,-2.1565
475,-2.031,-0.4982,-0.8047,23.5826,-45.4957,-2.2957
480,-2.6824,-1.1496,-1.0346,28.1043,-45.7043,-2.3652
485,-3.4871,-1.8011,-1.7244,33.1826,-43.2,-2.3652
490,-3.832,-1.6861,-2.4908,37.4957,-39.0957,-2.9217
495,-3.4871,-1.3795,-3.947,38.1217,-31.7217,-2.6435
500,-2.1843,-0.958,-6.8593,32.6957,-17.7391,-1.9478
505,-0.4215,-0.3066,-10.768,22.8174,2.7826,-2.2957
510,1.2646,-0.1533,-15.3281,4.8696,23.5826,-4.9391
515,2.4525,-1.2263,-19.0452,-26.0174,39.513,-10.4348
520,3.6404,-4.3685,-19.3518,-65.6,52.313,-19.4783
525,5.3648,-9.1586,-17.7423,-108.5913,69.3565,-32.9043
530,6.3229,-14.6,-13.6804,-159.0957,86.2609,-45.8435
535,5.863,-18.5087,-9.925,-183.7913,99.8261,-58.4348
540,5.1732,-22.1491,-5.6331,-182.1913,104.0696,-67.7565
545,4.3685,-24.2951,-3.5255,-162.8522,99.4087,-69.287
550,2.4142,-25.7896,-2.5291,-140.2435,90.3652,-65.3217
555,0.3066,-26.7859,-2.3375,-121.4609,78.8174,-56.4174
560,-0.3832,-28.2804,-2.3759,-102.6087,64.0,-44.1739
565,0.0,-29.7366,-3.0656,-73.7391,46.5391,-31.0261
570,1.073,-30.3497,-4.4452,-32.3478,28.8696,-20.5217
575,1.5711,-29.8132,-5.2499,16.9043,16.0,-13.5652
580,1.3412,-27.3607,-5.3648,68.8,9.8087,-8.1391
585,0.6131,-23.7969,-4.5218,122.2957,9.1826,-3.3391
590,0.7281,-20.3864,-3.7171,150.6087,7.3043,1.7391
595,0.5365,-17.3208,-3.3339,167.3739,2.3652,6.0522
600,0.6131,-14.2935,-2.8357,175.7217,-3.2696,8.9739
605,1.1496,-11.3428,-2.5291,174.6087,-6.6783,11.687
610,1.3795,-8.967,-2.2992,163.6174,-6.6783,14.0522
615,1.4945,-7.3958,-2.1843,145.3217,-4.5217,16.9043
620,1.2263,-6.4761,-2.1459,124.3826,-2.4348,19.6174
625,0.9963,-5.5564,-2.2609,103.9304,-0.8348,22.887
630,0.9197,-5.2499,-2.2226,82.2957,-0.487,25.4609
635,0.8047,-5.1349,-1.916,58.6435,-1.8783,28.3826
640,0.4598,-5.1349,-1.6861,31.3739,-3.4087,30.8174
645,0.3066,-5.4415,-2.2226,10.2261,-3.5478,34.2957
650,0.3066,-6.1696,-2.3759,-12.313,-1.8783,37.4261
655,0.3832,-7.2042,-2.4142,-35.9652,0.9043,40.4174
660,0.2682,-7.8557,-2.4525,-55.7217,4.7304,42.713
665,0.0383,-8.4688,-1.9927,-71.2348,8.5565,45.4957
670,-0.4215,-8.8137,-1.6478,-81.3913,11.1304,48.6261
675,-0.5365,-8.9286,-1.6478,-85.8435,11.3391,53.2174
680,-0.4982,-9.3502,-1.6861,-87.0957,8.9739,58.1565
685,-0.5748,-9.6184,-2.1843,-87.0957,5.0087,64.8348
690,-0.3832,-10.2698,-1.9927,-87.5826,0.2783,69.2174
695,-0.0766,-10.5764,-2.1843,-83.2696,-2.5739,72.6261
700,0.115,-10.768,-2.5675,-74.6435,-3.7565,74.3652
705,0.4215,-10.9596,-2.8357,-66.0174,-3.2696,74.2957
710,0.3449,-10.883,-3.0656,-57.8087,-1.8783,72.0
715,0.4982,-10.883,-3.1039,-50.4348,0.0,68.8
720,0.6131,-10.6147,-3.3339,-45.0087,1.8783,63.5826
725,0.5748,-10.3465,-3.2189,-40.6957,3.8261,57.6696
730,0.7281,-10.0399,-3.2572,-37.0783,6.3304,51.8261
735,0.8047,-10.2698,-2.7974,-34.8522,9.3913,46.5391
740,0.843,-10.1549,-2.4525,-32.2783,12.9391,40.3478
745,1.073,-9.8483,-2.031,-25.3913,16.6957,36.7304
750,0.9197,-9.5418,-1.7244,-17.7391,19.2,34.0174
755,1.073,-9.2352,-2.1076,-10.087,20.4522,32.4174
760,1.073,-9.0819,-1.9543,-5.2174,20.5217,30.4696
765,0.9963,-8.5454,-1.7627,-1.113,19.2696,28.5217
770,0.8814,-8.4305,-1.4562,3.5478,17.7391,26.3652
775,0.8047,-8.2389,-1.1113,9.4609,16.5565,24.2783
780,0.843,-7.9706,-0.7281,16.9043,15.6522,21.287
785,0.5365,-7.5491,-0.4215,25.4609,14.4696,18.087
790,0.0383,-7.2425,-0.3449,35.0609,12.8696,15.2348
795,-0.2682,-6.3612,-0.3832,44.313,11.3391,10.2261
800,-0.4598,-5.6714,-0.1916,53.913,9.3913,6.2609
805,-1.0346,-4.905,-0.115,60.4522,6.2609,2.6435
810,-1.3412,-3.947,-0.3066,64.7652,2.3652,-1.9478
815,-1.5711,-2.9507,-0.7281,66.8522,-1.5304,-5.4957
820,-1.916,-2.2992,-0.958,66.5043,-4.9391,-8.6261
825,-2.1459,-1.4562,-1.4945,64.2783,-6.6783,-11.1304
830,-1.9927,-0.7281,-1.9543,60.3826,-6.5391,-12.8696
835,-1.9927,-0.1533,-2.3375,55.4435,-4.313,-13.4261
840,-1.9543,0.1533,-2.6824,49.4609,-0.2087,-12.9391
845,-2.1843,0.4215,-2.6824,43.5478,5.3565,-11.1304
850,-1.9543,0.5748,-2.874,37.3565,12.8696,-7.0261
855,-2.0693,0.2682,-2.6441,31.7913,19.0609,-2.8522
860,-2.031,0.3066,-2.4525,28.7304,24.4174,1.6696
865,-2.0693,-0.0383,-2.2226,26.5739,27.8261,6.1913
870,-1.2263,-0.1533,-2.1843,25.8783,28.313,9.6696
875,0.5365,-0.0766,-2.5291,25.0435,26.2261,11.2696
880,1.9543,0.2682,-3.6404,23.1652,22.4,10.0174
885,1.8394,0.7664,-5.748,19.2,15.513,8.2783
890,0.2299,1.1113,-8.7754,7.7913,-0.4174,9.0435
895,-0.9963,0.4598,-11.4578,-18.5043,-29.1478,13.8435
900,-1.8011,-1.2263,-12.684,-59.4783,-67.2696,23.0261
905,-2.2992,-5.1732,-12.684,-103.513,-108.9391,36.6609
910,-1.1113,-10.4614,-11.6877,-139.4087,-127.513,46.4
915,0.2299,-15.1748,-9.695,-144.487,-129.0435,50.9913
920,1.3795,-18.3554,-7.8557,-129.2522,-118.0522,49.6
925,1.4562,-19.5817,-5.5564,-105.8087,-103.3739,45.4957
930,1.0346,-19.8882,-4.0236,-85.4957,-91.8957,42.5043
935,1.3029,-20.1182,-3.1039,-71.9304,-86.0522,42.713
940,1.8394,-20.5014,-3.2189,-64.0,-83.2696,45.5652
945,1.9927,-20.9995,-3.4488,-60.1739,-79.513,49.1826
950,1.9543,-22.494,-4.4068,-56.2783,-70.887,51.4087
955,1.3029,-24.64,-5.6331,-46.4696,-57.7391,50.4348
960,0.843,-26.6709,-7.0893,-28.9391,-39.9304,44.313
965,0.8814,-27.4373,-8.1239,-3.8957,-26.087,34.2957
970,0.7664,-26.8625,-8.3155,17.7391,-12.7304,20.3826
975,-0.0383,-24.5633,-7.6641,37.4261,0.4174,4.2435
980,-0.843,-21.651,-6.2845,52.7304,12.3826,-10.3652
985,-1.1113,-19.5817,-5.0966,65.5304,20.8696,-20.9391
990,-1.1496,-17.2058,-4.0236,74.6435,26.2261,-28.1739
995,-0.958,-14.8683,-3.2572,78.0522,30.1913,-33.6696
1000,-0.4982,-13.0672,-2.9507,74.9217,33.7391,-37.4957
1005,-0.3066,-11.5344,-2.6824,66.1565,37.0783,-40.5565
1010,0.0383,-10.1932,-2.5675,54.7478,40.1391,-42.1565
1015,0.3832,-9.5034,-2.6058,42.3652,43.8957,-43.5478
1020,0.7664,-9.0819,-2.6824,26.087,47.1652,-44.0348
1025,0.9197,-9.0053,-2.9123,10.9913,50.6435,-44.6609
1030,1.1879,-9.0436,-2.8357,-4.1739,54.5391,-44.5217
1035,1.6861,-9.2352,-2.8357,-18.3652,59.1304,-44.8
1040,1.9543,-9.3502,-2.2609,-29.7043,64.3478,-45.0783
1045,2.0693,-9.3502,-2.4525,-36.9391,69.4957,-45.913
1050,2.1076,-9.6184,-2.4908,-44.5217,73.1826,-46.4696
1055,2.3759,-9.81,-2.6824,-52.6609,75.687,-48.0
1060,2.2992,-10.0399,-2.5291,-60.0348,76.3826,-49.7391
1065,2.3375,-10.1166,-2.5291,-65.4609,75.7565,-52.3826
1070,2.3375,-10.5381,-2.6058,-69.0087,74.2261,-54.887
1075,2.031,-10.768,-2.7591,-72.0696,72.4174,-56.9043
1080,1.8777,-11.1512,-2.5291,-73.8087,70.1913,-57.6
1085,1.4562,-11.4578,-2.4142,-72.2783,67.4783,-57.1826
1090,0.9197,-11.6494,-2.4908,-67.0609,64.2783,-54.2609
1095,0.2299,-11.6877,-2.4908,-60.3826,60.2435,-50.0174
1100,-0.3066,-11.6494,-2.1459,-52.1043,55.513,-44.1043
1105,-0.5748,-11.5344,-1.916,-41.6696,50.5739,-38.5391
1110,-1.1113,-11.3428,-1.6095,-29.2174,45.287,-33.0435
1115,-1.4945,-10.8446,-1.6861,-16.1391,40.0696,-28.313
1120,-1.8011,-10.3848,-1.6861,-4.0348,34.9217,-23.513
1125,-2.1076,-9.8866,-1.7627,9.4609,30.0522,-20.4522
1130,-2.4908,-9.2735,-1.916,19.4783,27.4087,-17.2522
1135,-2.7591,-8.4688,-1.9543,27.9652,26.2957,-14.1217
1140,-2.7207,-7.8173,-1.8777,35.2,26.4348,-10.4348
1145,-2.7207,-7.4341,-1.6478,42.087,27.8957,-6.9565
1150,-2.4142,-6.8977,-1.1496,49.3217,30.8174,-3.2
1155,-2.1459,-6.3229,-0.843,56.6261,34.7826,-0.0696
1160,-1.8011,-5.7864,-0.6898,64.0,38.7478,2.8522
1165,-1.5711,-5.0583,-0.2299,71.3739,42.2261,4.8
1170,-1.2263,-4.3685,-0.4215,78.8174,44.2435,6.6087
1175,-1.3029,-3.4488,-0.7281,84.7304,44.9391,8.0696
1180,-1.1496,-2.6824,-1.1496,87.9304,43.7565,9.113
1185,-1.1113,-2.1076,-1.5328,86.6783,40.9739,9.4609
1190,-0.958,-1.5328,-1.916,82.9217,36.3826,9.8087
1195,-0.6898,-0.6514,-1.9927,78.4,29.8435,8.9043
1200,-0.4598,0.0,-2.2226,73.8087,21.7043,7.6522
1205,-0.5748,0.5365,-2.3375,67.4783,12.3826,5.7043
1210,-0.6131,0.9963,-2.1843,60.2435,2.7826,3.2
1215,-0.7281,1.3412,-1.916,54.2609,-6.4,0.2783
1220,-0.7281,1.1879,-1.6095,50.3652,-15.2348,-2.7826
1225,-0.843,1.2646,-1.6478,47.4435,-22.887,-5.9826
1230,-0.9963,1.073,-1.5711,44.7304,-28.5913,-9.6
1235,-1.3412,0.7664,-1.5328,42.0174,-33.2522,-12.9391
1240,-2.1459,0.6131,-1.6095,40.9739,-36.313,-16.1391
1245,-2.4525,0.3449,-2.2992,40.2783,-39.8609,-19.687
1250,-2.1459,0.2299,-3.7937,38.4,-42.713,-22.9565
1255,-1.1879,0.2299,-6.5528,32.487,-41.3217,-26.1565
1260,-0.0766,0.1916,-9.925,21.6348,-32.5565,-29.1478
1265,1.3412,-0.115,-13.6804,4.6609,-15.7913,-32.4174
1270,1.8777,-0.6898,-15.7496,-19.8957,5.6348,-36.1043
1275,2.7974,-3.2572,-16.631,-48.8348,27.3391,-40.6957
1280,3.6404,-6.6677,-15.5197,-79.7913,46.6087,-46.3304
1285,4.7134,-10.883,-12.8373,-111.3043,63.1652,-55.0957
1290,5.02,-14.7916,-8.852,-141.0783,78.5391,-64.6261
1295,4.3685,-17.5124,-5.02,-151.3739,85.0087,-74.0174
1300,3.0273,-19.4284,-2.0693,-146.9217,85.4957,-79.1652
1305,1.6478,-20.5014,-0.5365,-131.4783,80.487,-78.4
1310,0.6514,-21.0379,-0.3449,-111.7913,69.7043,-72.0
1315,-0.5748,-21.3444,-0.9963,-93.287,52.8696,-62.1217
1320,-0.9963,-22.1108,-2.4525,-78.6087,31.7913,-50.5043
1325,-0.7281,-23.2604,-4.3685,-69.287,10.6435,-38.6783
1330,-0.115,-25.2148,-5.7864,-62.5391,-7.1652,-26.9913
1335,0.6898,-26.5943,-6.8593,-52.1043,-17.7391,-16.3478
1340,1.1879,-27.1308,-6.821,-30.4696,-19.3391,-2.6435
1345,0.8047,-26.0961,-5.863,10.2261,-12.313,7.0261
1350,0.8814,-24.5633,-4.905,47.9304,-7.7217,13.9826
1355,0.6898,-21.9192,-4.0236,79.3739,-7.0957,17.7391
1360,0.4215,-19.1218,-3.5638,102.4,-8.0696,20.1043
1365,0.5748,-16.631,-3.2572,117.2174,-9.3913,21.7739
1370,0.8047,-14.3701,-3.0273,123.3391,-10.4348,22.2609
1375,0.843,-12.4541,-2.5291,120.487,-11.6174,21.8435
1380,0.7664,-10.5764,-2.1459,110.1217,-13.287,20.8
1385,0.7664,-9.2735,-1.9927,97.0435,-14.7478,20.5217
1390,0.6131,-8.3538,-2.1076,82.8522,-15.3739,21.4261
1395,0.6898,-7.5874,-2.6058,65.9478,-14.3304,24.4174
1400,0.6514,-7.3575,-2.6824,41.6,-10.6435,27.5478
1405,0.4982,-7.2042,-2.3759,22.0522,-6.7478,31.8609
1410,0.4215,-7.2042,-2.5291,5.4261,-3.5478,36.4522
1415,0.3066,-7.3192,-2.6058,-9.7391,-1.6,40.8348
1420,0.0766,-7.3958,-2.6058,-24.9043,-1.113,44.5913
1425,-0.0766,-7.5491,-2.4525,-39.6522,-2.2261,48.1391
1430,-0.0766,-7.8173,-2.1459,-52.4522,-4.7304,50.9217
1435,-0.4215,-8.0473,-2.0693,-60.8696,-7.4435,52.9391
1440,-0.4598,-8.0856,-1.4945,-64.9043,-10.0174,53.9826
1445,-0.6514,-8.2772,-1.4179,-65.2522,-12.4522,54.8174
1450,-0.6514,-8.2005,-1.3795,-62.4696,-15.2348,54.8174
1455,-0.7664,-8.2389,-1.4179,-56.6261,-18.2957,54.0522
1460,-0.5365,-8.3538,-1.6478,-50.8522,-19.7565,52.2435
1465,-0.3832,-8.0856,-1.9543,-46.1217,-19.2696,50.2957
1470,-0.3449,-7.8173,-2.2992,-43.4783,-16.0696,48.0
1475,-0.0383,-7.8173,-2.3375,-41.3913,-10.5739,46.0522
1480,0.5365,-7.779,-2.4908,-39.8609,-3.5478,44.1043
1485,0.6898,-7.9323,-2.4525,-39.0261,3.6174,42.1565
1490,0.8047,-7.9706,-2.3375,-39.1652,10.1565,39.513
1495,0.9197,-8.3155,-2.1459,-40.1391,15.4435,36.8696
1500,0.958,-8.6221,-1.7244,-40.0696,18.7826,34.087
1505,0.7281,-8.7754,-1.5328,-38.2609,20.2435,31.7217
1510,0.9197,-8.8903,-1.4562,-33.2522,20.1739,29.913
1515,1.1496,-9.0053,-1.1879,-27.3391,19.2696,28.3826
1520,1.2646,-9.1969,-1.3029,-20.4522,18.1565,26.2261
1525,1.6095,-9.0053,-1.0346,-12.313,17.2522,23.6522
1530,1.8011,-8.9286,-1.1113,-2.5043,17.2522,19.8261
1535,1.8777,-8.6221,-1.2646,8.8348,18.0174,15.8609
1540,1.7627,-8.1239,-1.1113,21.4957,19.4087,11.2
1545,1.3795,-7.5491,-1.2263,34.9217,20.5913,6.4696
1550,1.2263,-7.1659,-1.073,48.0,20.9391,0.9739
1555,0.843,-6.3612,-1.2646,59.4087,19.8957,-3.8261
1560,0.4598,-5.4415,-1.3412,68.3826,17.5304,-9.6
1565,0.0766,-4.6751,-1.6861,76.1739,13.2174,-13.4957
1570,-0.1916,-3.7171,-1.8777,80.6261,10.1565,-17.1826
1575,-0.5748,-2.6824,-1.916,83.5478,8.1391,-19.0609
1580,-0.6131,-1.8777,-2.1459,84.8696,7.2348,-19.8261
1585,-0.8814,-1.1879,-2.2226,83.7565,7.9304,-19.2
1590,-1.073,-0.6514,-2.1843,80.487,10.5043,-18.087
1595,-1.073,-0.3832,-1.9927,76.5913,14.6087,-15.7217
1600,-1.3029,-0.1533,-1.5711,74.1565,19.7565,-12.7304
1605,-1.5328,-0.0766,-0.9963,74.5043,24.9739,-8.2087
1610,-1.8777,0.0383,-0.6898,77.1478,29.7739,-2.7826
1615,-2.2609,-0.0766,-0.1916,81.3217,32.9043,4.3826
1620,-1.6861,-0.1533,0.1916,86.887,31.0261,9.8087
1625,0.1533,-0.0383,-0.2682,89.4609,24.9739,14.3304
1630,2.031,0.4982,-1.916,87.0957,16.6261,15.0957
1635,1.7627,0.9963,-3.2955,78.9565,5.3565,13.2174
1640,-0.4982,1.7244,-6.3612,62.7478,-15.513,14.7478
1645,-3.4871,2.5291,-10.4998,30.0522,-51.2,23.3043
1650,-5.9396,2.031,-14.3701,-25.6696,-100.3826,36.7304
1655,-7.2425,-1.073,-15.7113,-94.3304,-151.5826,53.4261
1660,-6.6294,-6.5145,-14.4084,-152.3478,-185.5304,69.4957
1665,-5.4415,-12.4541,-11.0363,-179.2,-190.1217,80.4174
1670,-4.2919,-17.6273,-6.5528,-171.0609,-166.3304,84.1739
1675,-3.5255,-20.3098,-4.2536,-130.9217,-144.0696,81.8087
1680,-2.8357,-21.7276,-2.7591,-90.9217,-135.3739,76.1043
1685,-1.8011,-22.3407,-3.2955,-61.9826,-138.9217,70.887
1690,-0.5365,-22.8772,-4.2919,-48.4174,-142.8174,66.3652
1695,0.7281,-23.4137,-5.2882,-42.2957,-137.113,61.5652
1700,1.5328,-24.1801,-6.3995,-37.913,-118.4696,54.9565
1705,1.8011,-25.7129,-7.0509,-37.9826,-92.5217,46.5391
1710,1.5711,-28.472,-7.3958,-43.0609,-66.9913,34.0174
1715,1.4945,-30.2347,-7.4725,-46.7478,-47.1652,15.7913
1720,1.4179,-30.5796,-7.0126,-40.1391,-33.0435,-5.7739
1725,1.1113,-29.3534,-5.5948,-17.3217,-19.6174,-26.5739
1730,1.3029,-26.6326,-4.1386,30.1217,-9.8087,-36.1043
1735,1.5328,-23.1838,-3.1039,74.087,-1.113,-40.4174
1740,1.916,-19.6966,-2.7207,107.9652,6.1217,-42.7826
1745,2.4525,-16.2478,-2.7974,124.313,12.2435,-44.3826
1750,3.0273,-13.3738,-2.6058,123.0609,17.113,-45.913
1755,3.4488,-11.5344,-2.6441,109.7739,21.6348,-46.8174
1760,3.7554,-9.5801,-2.2226,90.5739,26.7826,-46.8174
1765,3.8704,-8.0856,-1.9543,72.2783,33.6,-45.1478
1770,4.062,-7.1276,-2.3375,55.2348,42.3652,-42.8522
1775,3.8704,-6.7061,-2.3375,36.4522,52.1739,-42.1565
1780,3.5255,-6.7827,-2.4142,17.1826,64.487,-43.2
1785,3.0656,-7.1659,-1.916,-4.9391,74.5043,-44.2435
1790,2.7591,-7.5108,-1.6095,-20.2435,83.7565,-46.4696
1795,2.6824,-7.8557,-1.5711,-33.6,89.7391,-49.5304
1800,2.4908,-8.1239,-1.6861,-46.8174,91.8957,-53.8435
1805,2.1076,-8.7754,-1.7244,-59.0609,92.1043,-58.5739
1810,1.6095,-9.1586,-1.5711,-68.1739,91.4087,-63.3739
1815,1.073,-9.6567,-1.4562,-73.3217,88.8348,-67.3391
1820,0.3832,-9.8483,-1.6861,-75.6174,84.2435,-69.7043
1825,-0.4598,-9.9633,-1.6861,-76.6609,78.0522,-70.0522
1830,-1.0346,-10.4614,-1.7244,-76.8,71.0261,-67.2696
1835,-1.4179,-10.8063,-1.6095,-75.687,61.9826,-60.9391
1840,-1.8777,-11.2662,-1.1879,-71.7913,55.0957,-53.913
1845,-2.1459,-11.5344,-0.843,-64.6261,49.0435,-45.9826
1850,-2.6058,-11.7643,-0.6898,-53.0783,44.0348,-38.1913
1855,-2.989,-11.6111,-0.4215,-38.7478,39.3043,-31.7217
1860,-3.3722,-11.0746,-0.4215,-23.0261,34.1565,-25.9478
1865,-3.6021,-10.1549,-0.6514,-7.2348,28.7304,-21.2174
1870,-3.6021,-9.2735,-1.1113,6.6783,24.6957,-17.113
1875,-3.4488,-8.3921,-1.2263,17.7391,22.4,-13.8435
1880,-3.1039,-7.8173,-0.9963,26.5043,22.3304,-10.6435
1885,-2.7591,-7.1276,-0.8047,34.087,23.6522,-7.9304
1890,-2.2609,-6.6294,-0.8814,42.1565,25.8087,-4.4522
1895,-1.7627,-5.978,-0.843,53.1478,26.9913,-2.1565
1900,-1.1496,-5.2499,-0.9197,63.1652,27.4783,0.1391
1905,-0.7281,-4.4068,-1.5711,72.487,28.1043,2.087
1910,-0.4215,-3.3339,-2.0693,78.9565,28.9391,3.8261
1915,-0.3066,-2.1459,-2.5291,82.3652,29.6348,4.9391
1920,-0.1533,-1.2646,-2.7207,82.2957,29.7043,5.9826
1925,0.0,-0.2682,-2.8357,78.9565,28.1043,6.1217
1930,0.1533,0.2682,-2.989,73.3913,23.8609,6.1217
1935,0.2682,1.2646,-2.7591,66.2261,16.9739,5.2174
1940,0.5365,1.7244,-2.7591,58.3652,8.9043,4.313
1945,0.4982,2.2226,-2.5675,50.8522,-0.3478,2.4348
1950,0.3066,2.4525,-2.4142,42.4348,-6.887,1.1826
1955,0.1916,2.3759,-2.2609,35.2,-12.4522,-0.3478
1960,-0.1916,2.2609,-2.2226,27.8957,-17.5304,-1.6696
1965,-0.843,1.916,-2.3375,21.6348,-22.2609,-3.6174
1970,-1.5711,1.3795,-2.6058,16.487,-27.8261,-5.9826
1975,-1.5711,0.6898,-3.3722,12.313,-34.3652,-9.7391
1980,-1.0346,-0.0383,-4.5984,8.6261,-40.2783,-13.9826
1985,-0.3066,-0.6514,-6.7061,5.4957,-42.2957,-18.9913
1990,1.1879,-1.1879,-9.7334,1.6,-36.313,-24.0
1995,2.3759,-1.8777,-12.799,-5.287,-19.8957,-29.7739
2000,2.9507,-2.9123,-14.1019,-18.6435,9.4609,-36.8696
2005,3.1423,-5.2116,-13.8336,-39.3739,34.8522,-42.9913
2010,3.6787,-8.5071,-11.9559,-56.5565,56.0,-48.7652
2015,4.2152,-12.1092,-9.2735,-73.1826,72.2783,-55.4435
2020,4.4452,-15.1748,-6.1696,-86.4,83.7565,-62.7478
2025,3.4488,-17.589,-2.5675,-91.3391,88.3478,-71.0261
2030,1.8011,-19.735,0.3066,-85.3565,84.7304,-76.1043
2035,0.6131,-21.4594,1.2263,-70.3304,73.6696,-76.4522
2040,0.1533,-22.2258,1.0346,-49.9478,58.9217,-71.7913
2045,-0.4598,-22.9539,-0.0383,-26.6435,41.1826,-64.7652
2050,-0.4982,-23.2221,-1.6095,-3.8957,21.3565,-56.4174
2055,-0.4982,-23.1071,-3.4488,15.7913,0.2087,-44.8696
2060,0.1533,-23.452,-4.905,32.3478,-11.4783,-31.8609
2065,1.7244,-24.1801,-6.1313,43.2,-16.1391,-18.3652
2070,2.7207,-24.1035,-6.821,56.0696,-12.5913,-6.887
2075,2.7974,-22.5707,-5.863,72.2087,-1.8087,0.4174
2080,2.7207,-20.693,-4.905,87.0261,10.9913,4.7304
2085,2.9507,-18.2405,-3.9853,94.5391,21.7043,6.4
2090,3.0273,-15.7496,-2.8357,95.3043,29.3565,7.1652
2095,2.989,-13.5271,-1.6095,91.3391,33.3217,8.0
2100,2.9123,-11.3811,-0.6131,82.6435,33.7391,9.9478
2105,2.6441,-9.925,0.0766,69.287,31.6522,12.5217
2110,2.1843,-8.6604,0.5748,53.3565,26.6435,16.9739
2115,1.916,-7.8173,0.5748,37.1478,22.4,23.4435
2120,1.6478,-7.5874,0.3449,26.2957,18.9913,31.7217
2125,1.5711,-7.779,-0.4598,13.3565,16.2783,39.6522
2130,1.2646,-8.2005,-1.2263,-3.7565,14.4,46.1217
2135,0.9963,-9.0819,-1.0346,-21.287,13.2174,51.4087
2140,0.4598,-9.81,-1.3795,-35.2696,12.8696,56.5565
2145,0.0,-10.4614,-1.3795,-46.4696,13.287,60.5913
2150,-0.3449,-10.883,-1.4179,-54.7478,13.4261,63.6522
2155,-0.6131,-10.9596,-0.9963,-58.713,12.5913,65.6
2160,-0.843,-10.8063,-0.9963,-57.2522,10.7826,67.2
2165,-1.1879,-10.6914,-0.5365,-53.4261,7.5826,68.9391
2170,-1.7244,-10.6147,-0.5748,-48.1391,3.6174,70.1913
2175,-2.031,-10.3082,-0.6514,-43.4783,-2.1565,70.8174
2180,-2.2992,-10.1166,-1.0346,-39.513,-8.8348,70.4
2185,-2.2992,-10.0016,-1.4945,-37.1478,-14.6087,68.4522
2190,-2.031,-9.4651,-1.8394,-35.8261,-18.4348,64.4174
2195,-1.7244,-8.8903,-2.2226,-34.0174,-18.9913,60.6609
2200,-1.3795,-8.6987,-1.8011,-32.2087,-15.7217,57.6696
2205,-1.2646,-8.0473,-1.7627,-30.3304,-9.7391,55.2348
2210,-0.5748,-8.5071,-1.9927,-28.3826,-3.8261,52.5217
2215,-0.4598,-8.7754,-2.031,-27.687,0.4174,48.6261
2220,-0.4215,-9.5418,-1.6095,-26.9217,2.9913,43.0609
2225,-0.115,-9.3502,-1.5328,-24.0,3.2696,38.6783
2230,0.2299,-9.4651,-1.3412,-19.0609,2.087,34.8522
2235,0.6131,-9.4268,-0.9197,-11.8261,-0.1391,31.5826
2240,0.8814,-9.0819,-0.3066,-3.5478,-2.713,28.5217
2245,0.843,-8.7754,0.0383,4.313,-5.4261,25.4609
2250,0.8814,-8.3155,0.9197,11.4087,-8.0,22.2609
2255,0.7281,-7.779,1.7627,17.8783,-11.0609,18.5739
2260,0.4982,-7.1659,2.0693,24.0696,-14.4,13.8435
2265,0.115,-6.5145,1.8011,28.5913,-18.087,8.2783
2270,-0.3449,-5.5948,1.2263,31.0957,-21.1478,1.5304
2275,-0.6514,-4.905,0.3832,32.5565,-23.3739,-5.7043
2280,-0.8047,-4.1003,-0.6131,33.8087,-23.8609,-11.2696
2285,-0.8814,-3.4105,-1.4179,35.4087,-22.9565,-15.7217
2290,-1.073,-2.6441,-2.1459,37.913,-20.5217,-19.2696
2295,-1.3795,-1.7244,-2.874,40.6957,-16.4174,-21.4957
2300,-1.6478,-0.7664,-2.989,43.6174,-11.4783,-22.8174
2305,-1.9543,-0.0383,-3.0273,45.913,-6.3304,-23.0261
2310,-2.1459,0.4598,-2.6824,47.3043,-2.6435,-22.4
2315,-2.1843,1.0346,-2.3759,47.3043,-1.5304,-20.8
2320,-2.031,1.4179,-2.5291,45.4261,-3.1304,-19.6174
2325,-1.916,1.6095,-2.6441,40.7652,-7.2348,-18.4348
2330,-1.7244,1.7244,-2.6824,33.7391,-13.0783,-17.6
2335,-1.3795,1.6478,-2.7974,23.4435,-18.4348,-16.2783
2340,-0.9197,1.1113,-3.2189,15.3739,-24.0696,-14.1217
2345,-0.9963,0.6131,-4.6368,9.4609,-29.9826,-10.1565
2350,-1.8011,0.6898,-8.1239,1.3913,-38.6783,-4.4522
2355,-3.2955,0.3066,-11.7643,-15.3043,-54.5391,3.2
2360,-5.02,-1.916,-13.642,-39.513,-75.8261,14.7478
2365,-5.02,-4.4452,-12.7223,-62.8174,-92.313,31.2348
2370,-4.0236,-8.4305,-9.1969,-76.2435,-93.913,48.5565
2375,-2.2609,-12.1092,-5.1732,-76.7304,-80.3478,64.3478
2380,-1.073,-15.0599,-2.1843,-67.0609,-62.4,75.2
2385,0.0,-17.1292,-0.5365,-53.0783,-53.7739,79.513
2390,1.2263,-18.3554,-0.3449,-38.4,-61.8435,75.4783
2395,2.1459,-18.8919,-0.843,-30.2609,-77.1478,67.1304
2400,3.0656,-18.9686,-1.6095,-24.6957,-91.4087,57.113
2405,3.832,-19.1602,-2.4908,-21.4261,-100.2435,48.6261
2410,4.905,-20.3864,-4.79,-22.4696,-102.4696,42.4348
2415,5.2882,-22.8006,-7.0509,-28.5913,-94.9565,38.4
2420,5.0966,-25.0998,-8.8137,-32.487,-76.313,33.0435
2425,3.9087,-26.4027,-9.6184,-26.7826,-49.2522,25.113
2430,2.3759,-26.2494,-9.0436,-10.9913,-19.1304,15.513
2435,1.6478,-25.0998,-7.1659,11.8957,7.3043,4.5913
2440,0.8814,-22.7623,-5.5181,42.2957,29.1478,-5.287
2445,0.2299,-20.7313,-4.4835,61.0783,40.7652,-13.913
2450,-0.0383,-17.9722,-2.7974,69.4261,47.0957,-20.5913
2455,-0.2299,-15.788,-1.8011,68.0348,49.0435,-25.8087
2460,-0.3449,-13.6804,-1.1496,60.313,48.0,-29.8435
2465,-0.2682,-12.1859,-0.5748,47.9304,46.3304,-31.8609
2470,-0.4215,-10.9596,-0.2299,33.0435,44.8,-32.3478
2475,-0.4982,-10.0016,-0.3832,18.8522,43.8261,-31.2348
2480,-0.6131,-9.5034,-0.3066,6.2609,43.7565,-29.6348
2485,-0.4598,-9.3118,-0.5365,-4.9391,44.5913,-27.7565
2490,-0.1533,-9.6184,-0.6514,-16.3478,46.0522,-26.0174
2495,0.4215,-10.2315,-0.6898,-29.287,48.6957,-26.4348
2500,0.9963,-10.7297,-0.8047,-37.7043,50.8522,-28.4522
2505,1.4945,-11.0363,-1.1879,-44.0348,52.6609,-31.3043
2510,1.9543,-11.4195,-1.3029,-49.1826,53.8435,-35.5478
2515,1.9927,-11.6877,-1.3795,-53.4957,54.5391,-39.7913
2520,2.0693,-11.8027,-1.3795,-55.9304,55.0261,-44.313
2525,1.9543,-11.726,-1.6478,-57.0435,55.0261,-48.0
2530,2.031,-11.9559,-2.0693,-58.713,54.8174,-51.1304
2535,2.031,-11.9943,-2.2609,-62.2609,54.5391,-53.4261
2540,1.9927,-12.1092,-2.3375,-67.0609,55.2348,-55.0261
2545,1.7627,-12.1092,-2.031,-70.7478,57.3217,-54.4696
2550,1.1879,-11.841,-1.5328,-68.9391,60.1739,-51.7565
2555,0.5748,-11.5344,-0.6514,-61.9826,60.9391,-47.1652
2560,-0.0383,-11.3045,-0.0766,-51.2696,59.1304,-42.0174
2565,-0.4598,-11.1512,0.3066,-38.887,53.7043,-35.5478
2570,-0.6898,-11.1512,0.4598,-26.9913,46.2609,-29.1478
2575,-0.7664,-11.1129,0.3832,-17.0435,38.4,-23.8609
2580,-0.958,-10.9213,0.3449,-7.5826,32.3478,-20.4522
2585,-0.9963,-10.3082,-0.0383,2.2261,29.4957,-17.7391
2590,-1.2646,-9.4268,-0.6131,11.7565,30.5391,-15.5826
2595,-1.3795,-8.3538,-0.843,20.8696,34.5739,-13.3565
2600,-1.2646,-7.4725,-0.8814,29.0087,40.2783,-10.713
2605,-1.1113,-6.5145,-0.2682,37.2174,47.6522,-8.2087
2610,-1.2263,-5.7864,0.0,42.7826,52.9391,-5.7043
2615,-1.1113,-5.0966,0.4598,47.7913,56.5565,-3.4087
2620,-0.958,-4.3685,0.6131,53.2174,58.1565,-1.5304
2625,-0.9963,-3.3339,0.3832,58.6435,57.8087,-0.2087
2630,-0.843,-2.2226,-0.0383,63.513,55.9304,0.9739
2635,-0.7664,-1.073,-0.5748,67.1304,52.8,1.7391
2640,-0.5748,0.2682,-1.7244,69.287,48.1391,2.2957
2645,-0.6514,1.4562,-2.6058,69.4261,41.6,2.5739
2650,-0.4982,2.1843,-3.1806,66.9217,32.3478,2.713
2655,-0.5365,2.9507,-3.6404,62.8174,21.287,2.6435
2660,-0.5365,3.5255,-3.947,57.8783,7.9304,2.9217
2665,-0.4215,3.7171,-4.0236,53.0087,-1.3217,3.1304
2670,-0.6898,3.7171,-3.832,46.6783,-8.1391,2.9217
2675,-1.0346,3.3722,-3.2189,39.3739,-13.1478,2.0174
2680,-1.6095,2.7974,-2.4908,31.5826,-18.1565,0.3478
2685,-1.6861,1.9927,-1.5711,22.9565,-23.3739,-1.5304
2690,-2.0693,1.4562,-0.9197,15.3043,-28.4522,-3.9652
2695,-2.6058,0.7281,-0.5748,10.1565,-33.6696,-7.0261
2700,-3.0273,0.1533,-0.958,8.9739,-39.513,-10.2261
2705,-3.0273,-0.6131,-2.031,11.2,-45.913,-14.1217
2710,-2.9507,-1.0346,-4.2536,14.9565,-51.1304,-18.9217
2715,-2.2992,-0.9197,-8.6987,14.1217,-49.4609,-22.6087
2720,-1.2646,-1.1879,-13.872,2.087,-36.4522,-27.2
2725,-0.4598,-2.3375,-16.8226,-18.6435,-15.6522,-34.0174
2730,-0.1533,-4.2919,-16.9759,-41.6,1.8087,-43.2696
2735,0.4982,-7.9706,-14.2168,-60.7304,8.8348,-54.4
2740,2.8357,-11.9559,-10.1932,-75.2696,8.9043,-65.0435
2745,4.8667,-15.7496,-6.5528,-87.3739,8.6957,-75.4087
2750,5.4032,-18.7386,-3.832,-97.6696,10.2957,-84.8
2755,4.6751,-20.7696,-2.4142,-105.1826,10.7826,-93.9826
2760,3.4488,-22.1491,-1.9927,-108.313,7.1652,-99.4087
2765,2.1076,-23.0305,-1.916,-106.2261,-2.3652,-97.3913
2770,1.4179,-23.7969,-2.1843,-96.8348,-11.2,-87.0261
2775,1.7244,-25.3297,-3.0273,-83.8261,-17.6,-70.0522
2780,3.1423,-27.7439,-3.947,-68.5913,-19.687,-49.8087
2785,4.2919,-29.2384,-5.1732,-49.3913,-17.9478,-28.8
2790,4.6368,-29.2001,-5.7864,-24.1391,-11.8957,-10.6435
2795,3.7171,-27.2457,-4.7134,4.9391,-1.5304,0.0696
2800,3.2189,-24.7166,-3.1806,35.4783,8.1391,6.9565
2805,2.7207,-21.8809,-2.1843,64.0696,13.7739,10.2957
2810,2.9123,-18.9686,-1.7627,89.1826,16.1391,12.6609
2815,2.989,-16.9376,-1.916,107.2,18.1565,14.7478
2820,3.3722,-14.3318,-1.7627,116.313,22.1913,16.9739
2825,3.5638,-11.841,-1.9927,115.2696,26.8522,17.4609
2830,3.4488,-9.4268,-1.6095,104.9739,31.513,18.1565
2835,2.7974,-7.5874,-0.8814,86.4696,34.5043,18.9217
2840,1.9543,-6.3995,-0.3066,63.5826,33.3913,21.287
2845,1.2646,-5.978,-0.1533,40.0696,28.3826,24.4174
2850,1.0346,-6.1696,-0.8814,19.7565,21.7739,28.2435
2855,0.843,-6.5528,-1.4562,1.1826,15.7913,31.4435
2860,0.5748,-7.1659,-1.9927,-15.4435,13.0783,34.6435
2865,0.0766,-7.8173,-1.9927,-29.4957,13.7043,38.0522
2870,-0.2682,-8.5454,-2.3759,-41.2522,16.6261,42.2261
2875,-0.7281,-9.0053,-1.8777,-51.6174,20.7304,46.2609
2880,-1.073,-9.2352,-1.5328,-59.2,23.2348,49.0435
2885,-1.6095,-9.3502,-1.3412,-61.1478,24.0696,50.9913
2890,-1.9543,-9.2735,-1.2646,-61.7739,23.2348,52.9391
2895,-2.1076,-9.3502,-0.958,-61.287,20.5913,54.4
2900,-2.4908,-9.1586,-0.4982,-58.2261,16.2783,56.7652
2905,-2.3375,-9.0819,-0.6898,-53.3565,11.2,59.2
2910,-2.1076,-9.0819,-1.0346,-49.3913,6.1217,60.8
2915,-1.7244,-9.0436,-1.1496,-47.7217,1.7391,59.7565
2920,-1.6095,-8.5071,-1.1496,-46.4,-1.9478,57.8087
2925,-1.5711,-8.2005,-1.3795,-43.4783,-4.2435,56.4174
2930,-1.4179,-8.2005,-1.2263,-41.3913,-5.2174,54.8174
2935,-1.0346,-8.3155,-0.9963,-40.9043,-4.8,52.5217
2940,-0.4598,-8.4305,-1.2263,-42.0174,-4.1043,49.7391
2945,-0.1916,-8.6987,-1.0346,-44.313,-2.5739,45.7739
2950,0.0,-8.6604,-0.6514,-44.3826,-0.6261,42.9913
2955,0.115,-8.4688,-0.6514,-41.9478,0.7652,40.9043
2960,0.4598,-8.3538,-0.9963,-37.4957,1.2522,39.1652
2965,0.7281,-8.1239,-1.2263,-32.8348,1.3217,36.7304
2970,0.8814,-8.2005,-1.5711,-28.313,1.8783,34.2957
2975,0.9963,-8.0856,-1.6478,-23.9304,3.0609,30.0522
2980,1.2263,-7.894,-1.3795,-18.6435,4.8,24.9739
2985,1.3795,-7.5491,-1.2646,-9.0435,7.513,20.8
2990,1.4562,-7.2425,-1.1113,1.0435,9.9478,16.6957
2995,1.3795,-6.8593,-1.073,11.9652,12.2435,12.2435
