timestamp,accX,accY,accZ,gyroX,gyroY,gyroZ
0,-0.958,-8.2389,-5.4798,-2.2261,6.2609,-1.1826
5,-0.8814,-8.1622,-5.5948,-2.2261,5.9826,-1.1826
10,-0.8814,-8.2772,-5.5948,-2.2261,5.7043,-0.9739
15,-0.8814,-8.1239,-5.5948,-2.0174,5.4957,-0.9043
20,-0.9197,-8.1622,-5.5948,-2.087,5.1478,-0.8348
25,-0.7664,-8.0089,-5.5564,-2.2261,5.0087,-0.6957
30,-0.8814,-8.1239,-5.5948,-2.4348,4.8,-0.487
35,-0.8814,-8.0089,-5.6714,-2.5739,4.6609,-0.3478
40,-0.8814,-8.0856,-5.5948,-2.713,4.5913,-0.0696
45,-0.7664,-8.2389,-5.5948,-2.9913,4.5217,0.0
50,-0.8814,-8.0473,-5.5564,-3.1304,4.4522,0.2087
55,-0.843,-8.1622,-5.6331,-3.2,4.5913,0.3478
60,-0.7281,-8.2389,-5.4798,-3.2,4.6609,0.5565
65,-0.9197,-8.0856,-5.3648,-3.2696,4.8,0.487
70,-0.8814,-8.1622,-5.5948,-3.4087,4.9391,0.6261
75,-0.8814,-8.1622,-5.5948,-3.4087,5.0783,0.5565
80,-0.9197,-8.2772,-5.5181,-3.4087,5.1478,0.6261
85,-0.958,-8.1622,-5.3648,-3.3391,5.287,0.7652
90,-0.8814,-8.1622,-5.2882,-3.3391,5.287,0.6957
95,-0.958,-8.2005,-5.5948,-3.3391,5.287,0.7652
100,-0.958,-8.2389,-5.4032,-3.3391,5.2174,0.7652
105,-1.0346,-8.2005,-5.4032,-3.2,5.0783,0.8348
110,-1.073,-8.2005,-5.5948,-3.0609,5.1478,0.6957
115,-1.1113,-8.1622,-5.4032,-3.0609,5.0783,0.6957
120,-0.9963,-8.2005,-5.4798,-2.9217,5.0783,0.6261
125,-0.958,-8.2389,-5.5948,-2.7826,5.2174,0.5565
130,-1.1113,-8.3155,-5.4032,-2.5739,5.287,0.487
135,-0.9197,-8.6221,-5.3648,-2.2957,5.287,0.3478
140,-0.9197,-8.3921,-5.5181,-2.0174,5.1478,0.4174
145,-1.0346,-8.1622,-5.5948,-1.6696,5.1478,0.487
150,-1.0346,-8.2389,-5.4798,-1.6696,5.0783,0.5565
155,-1.0346,-8.2005,-5.7097,-1.3913,5.0783,0.6261
160,-0.9963,-8.2005,-5.5181,-1.113,5.0087,0.7652
165,-0.9963,-8.1239,-5.5181,-1.1826,4.9391,0.7652
170,-0.8047,-8.2389,-5.4798,-1.1826,4.8696,0.8348
175,-0.958,-8.3155,-5.5948,-1.2522,4.7304,0.9043
180,-0.9963,-8.2389,-5.5564,-1.3913,4.7304,0.8348
185,-1.073,-8.1239,-5.5564,-1.4609,4.8,0.7652
190,-1.0346,-8.1239,-5.5948,-1.4609,4.8696,0.7652
195,-1.1496,-8.1239,-5.5948,-1.5304,4.8696,0.6957
200,-1.0346,-8.2005,-5.6331,-1.4609,4.8,0.6957
205,-1.073,-8.2005,-5.5948,-1.5304,5.0087,0.487
210,-1.1879,-8.2772,-5.6714,-1.6,5.0087,0.487
215,-1.1113,-8.1622,-5.5181,-1.6696,5.0783,0.4174
220,-0.9963,-8.3155,-5.5948,-1.6696,5.0783,0.4174
225,-1.1113,-8.1622,-5.6331,-1.7391,5.0087,0.4174
230,-1.0346,-8.2389,-5.3648,-1.9478,5.0783,0.487
235,-1.1113,-8.0473,-5.5564,-1.9478,5.0087,0.487
240,-1.1496,-8.2005,-5.5948,-2.087,5.0783,0.5565
245,-1.0346,-8.1622,-5.5181,-2.1565,5.0783,0.6261
250,-0.958,-8.0089,-5.4798,-2.2261,5.0087,0.7652
255,-1.073,-8.2005,-5.5564,-2.2261,4.9391,0.6957
260,-1.0346,-8.1622,-5.4798,-2.2957,4.8,0.6957
265,-1.0346,-8.1239,-5.3265,-2.2957,4.7304,0.6261
270,-0.9963,-7.8557,-5.4798,-2.2261,4.6609,0.5565
275,-0.958,-8.3538,-5.4032,-2.3652,4.5217,0.6261
280,-0.958,-8.1622,-5.4415,-2.2261,4.5913,0.487
285,-0.958,-8.1239,-5.5181,-2.1565,4.6609,0.3478
290,-0.958,-8.2005,-5.5181,-2.0174,4.7304,0.3478
295,-0.8814,-8.2005,-5.3648,-1.9478,4.8,0.2087
300,-0.8814,-8.3155,-5.5564,-1.9478,5.0087,0.1391
305,-0.9197,-8.2005,-5.5564,-1.8087,5.1478,-0.0696
310,-0.958,-8.2772,-5.4798,-1.6696,5.2174,-0.1391
315,-0.9963,-8.1239,-5.4415,-1.5304,5.4261,-0.1391
320,-0.9963,-8.2772,-5.4798,-1.4609,5.5652,-0.2087
325,-0.9197,-8.1239,-5.4032,-1.1826,5.6348,-0.1391
330,-0.958,-8.0856,-5.5948,-1.113,5.7043,-0.0696
335,-1.0346,-8.0473,-5.4415,-0.9739,5.7043,0.1391
340,-0.958,-7.9706,-5.4415,-0.9043,5.5652,0.1391
345,-1.1496,-8.0856,-5.5948,-0.9043,5.4957,0.2783
350,-1.0346,-8.1239,-5.5564,-0.9739,5.3565,0.2783
355,-1.3029,-8.1239,-5.3648,-0.9739,5.0783,0.1391
360,-1.1879,-8.0856,-5.5948,-1.1826,4.9391,0.2087
365,-1.073,-8.3155,-5.5181,-1.2522,4.9391,0.0696
370,-1.1113,-8.2005,-5.5181,-1.3913,4.8696,-0.1391
375,-1.1113,-8.1622,-5.4032,-1.5304,4.8696,-0.1391
380,-1.1113,-8.1239,-5.5948,-1.6696,4.8,-0.2087
385,-1.0346,-8.1239,-5.4032,-1.8783,4.6609,-0.1391
390,-0.9963,-8.1239,-5.6331,-2.087,4.6609,-0.2087
395,-0.958,-8.0473,-5.4415,-2.3652,4.6609,-0.0696
400,-0.958,-7.9706,-5.4415,-2.5043,4.6609,0.1391
405,-0.9197,-8.0856,-5.3648,-2.5739,4.8,0.1391
410,-0.9197,-8.1239,-5.4415,-2.713,4.8,0.3478
415,-0.843,-8.1622,-5.5181,-2.7826,4.6609,0.487
420,-0.958,-8.0856,-5.5181,-2.7826,4.7304,0.6261
425,-0.958,-8.0856,-5.4798,-2.7826,4.6609,0.6261
430,-1.073,-8.1239,-5.5564,-2.6435,4.6609,0.6261
435,-0.9197,-8.1622,-5.4415,-2.5043,4.6609,0.6261
440,-0.9963,-8.1239,-5.4415,-2.3652,4.6609,0.6261
445,-1.0346,-8.2005,-5.5181,-2.1565,4.5913,0.3478
450,-1.0346,-8.1622,-5.5564,-2.0174,4.5913,0.1391
455,-1.1113,-8.1239,-5.4415,-1.8783,4.6609,0.1391
460,-0.9197,-8.2389,-5.5564,-1.8783,4.5913,-0.0696
465,-0.9197,-8.2389,-5.5948,-1.7391,4.5913,-0.1391
470,-1.073,-7.9706,-5.6331,-1.6696,4.7304,-0.0696
475,-0.958,-8.1239,-5.6331,-1.6,4.7304,-0.2087
480,-0.958,-7.9706,-5.5181,-1.6696,4.8696,-0.2087
485,-0.8814,-8.2005,-5.4415,-1.7391,5.0087,-0.1391
490,-1.073,-8.0473,-5.5181,-1.8783,5.1478,-0.1391
495,-0.8814,-8.0856,-5.5181,-1.9478,5.1478,-0.1391
500,-0.9963,-8.1622,-5.5948,-2.087,5.2174,0.0696
505,-1.073,-8.0473,-5.5948,-2.1565,5.1478,0.2087
510,-0.9963,-8.0473,-5.4415,-2.087,5.0087,0.2783
515,-0.958,-8.2005,-5.5564,-2.1565,4.8696,0.3478
520,-1.1113,-8.0856,-5.5948,-2.1565,4.6609,0.487
525,-0.958,-8.0856,-5.5564,-2.2261,4.5913,0.487
530,-0.9963,-8.1239,-5.5948,-2.2261,4.5217,0.6261
535,-0.958,-8.1239,-5.4798,-2.1565,4.3826,0.6261
540,-1.1113,-8.0856,-5.4798,-2.1565,4.3826,0.6957
545,-1.1879,-8.1239,-5.5564,-2.2261,4.313,0.6957
550,-1.0346,-8.0473,-5.5564,-2.2261,4.313,0.6261
555,-1.073,-8.0856,-5.4798,-2.2957,4.3826,0.6957
560,-1.073,-8.0473,-5.5564,-2.2957,4.5217,0.4174
565,-1.1113,-8.2389,-5.5181,-2.2261,4.5217,0.2783
570,-0.9963,-8.1239,-5.6331,-2.2957,4.5913,0.2783
575,-0.9197,-8.2772,-5.4798,-2.2261,4.5913,0.2087
580,-0.9197,-8.1622,-5.5181,-2.2957,4.5913,0.2087
585,-0.958,-8.0856,-5.5181,-2.2957,4.5217,0.0696
590,-0.958,-8.1622,-5.4798,-2.2261,4.4522,0.0
595,-0.958,-8.1622,-5.5564,-2.2957,4.3826,0.0696
600,-0.958,-8.0473,-5.4415,-2.2261,4.2435,0.1391
605,-0.9963,-8.1622,-5.5948,-2.2957,4.1739,0.2087
610,-0.958,-8.0473,-5.4415,-2.2261,4.1739,0.2087
615,-1.0346,-8.1239,-5.5181,-2.3652,4.1739,0.3478
620,-1.0346,-8.0856,-5.5564,-2.2261,4.1043,0.2783
625,-0.9963,-8.1239,-5.6331,-2.2957,4.1739,0.4174
630,-1.1113,-8.0856,-5.4415,-2.2957,4.1739,0.4174
635,-0.9963,-8.2005,-5.5181,-2.2957,4.2435,0.4174
640,-1.1113,-8.0473,-5.4798,-2.1565,4.313,0.4174
645,-1.0346,-8.1622,-5.5181,-2.1565,4.313,0.2783
650,-0.958,-8.1622,-5.5564,-2.087,4.313,0.2087
655,-1.073,-8.2772,-5.6331,-2.087,4.3826,0.2783
660,-1.0346,-8.2389,-5.5564,-2.087,4.2435,0.1391
665,-1.073,-8.0856,-5.5948,-2.0174,4.313,0.1391
670,-1.073,-8.1239,-5.5564,-2.0174,4.313,0.2087
675,-0.9963,-8.0856,-5.5948,-1.8087,4.313,0.1391
680,-1.0346,-8.0856,-5.7097,-1.7391,4.3826,0.2087
685,-1.073,-8.0856,-5.4798,-1.6696,4.4522,0.2783
690,-0.9963,-8.1239,-5.4798,-1.7391,4.5913,0.3478
695,-0.9963,-8.1622,-5.5181,-1.7391,4.5217,0.3478
700,-1.073,-8.0089,-5.5181,-1.7391,4.7304,0.3478
705,-1.073,-8.1239,-5.6714,-1.7391,4.7304,0.3478
710,-1.1113,-8.0856,-5.5181,-1.6696,4.7304,0.4174
715,-0.958,-8.2005,-5.5181,-1.6,4.7304,0.5565
720,-0.9197,-8.0856,-5.6714,-1.5304,4.6609,0.6261
725,-1.1113,-8.1239,-5.5948,-1.5304,4.5913,0.5565
730,-1.073,-8.0856,-5.5948,-1.4609,4.5913,0.5565
735,-0.958,-8.0473,-5.6714,-1.4609,4.4522,0.487
740,-0.9963,-8.0089,-5.6331,-1.4609,4.313,0.5565
745,-1.073,-8.0089,-5.6331,-1.3913,4.313,0.487
750,-1.073,-8.0473,-5.4032,-1.4609,4.313,0.4174
755,-1.073,-8.0089,-5.4798,-1.4609,4.313,0.3478
760,-1.073,-8.1239,-5.4415,-1.3913,4.3826,0.2783
765,-1.1496,-8.0473,-5.5181,-1.3913,4.3826,0.1391
770,-0.958,-8.2005,-5.5948,-1.3913,4.5913,0.0
775,-0.9963,-8.0856,-5.5948,-1.1826,4.6609,-0.0696
780,-0.958,-8.2005,-5.5948,-1.0435,4.6609,-0.0696
785,-0.958,-8.2005,-5.5564,-0.9739,4.8,-0.0696
790,-1.073,-8.2005,-5.7097,-0.8348,4.8696,-0.1391
795,-0.958,-8.1239,-5.7097,-0.6957,4.7304,-0.0696
800,-1.0346,-8.2005,-5.6714,-0.6261,4.8696,-0.1391
805,-1.073,-8.0473,-5.5948,-0.487,4.8696,-0.2087
810,-1.073,-8.2005,-5.6331,-0.4174,4.8,-0.2087
815,-0.9963,-8.1622,-5.5181,-0.3478,4.8696,-0.0696
820,-1.1879,-8.0856,-5.6331,-0.4174,4.8,-0.2087
825,-0.958,-8.2005,-5.6331,-0.487,4.6609,-0.2783
830,-1.0346,-8.2005,-5.6714,-0.3478,4.5913,-0.2087
835,-0.9963,-8.1239,-5.5948,-0.4174,4.4522,-0.1391
840,-1.1496,-8.1239,-5.5948,-0.3478,4.4522,0.0
845,-1.1113,-8.1239,-5.5564,-0.2783,4.3826,-0.1391
850,-0.958,-8.2005,-5.5948,-0.1391,4.313,-0.1391
855,-0.9963,-8.1622,-5.6331,-0.0696,4.313,-0.0696
860,-0.958,-8.3921,-5.5948,0.0,4.3826,-0.0696
865,-0.9197,-8.1622,-5.4798,0.0696,4.4522,-0.1391
870,-1.0346,-8.1239,-5.5948,0.1391,4.6609,-0.2783
875,-1.073,-8.2005,-5.5948,0.0696,4.6609,-0.3478
880,-1.0346,-8.0856,-5.5181,0.0696,4.8696,-0.2087
885,-0.958,-8.1239,-5.5564,0.0,4.9391,-0.2783
890,-1.0346,-8.1239,-5.6714,-0.1391,5.0087,-0.2783
895,-1.1113,-8.1239,-5.5564,-0.3478,5.1478,-0.2087
900,-0.9197,-8.1239,-5.5181,-0.2783,5.1478,-0.2783
905,-0.9963,-8.2005,-5.6331,-0.3478,5.287,-0.1391
910,-0.9197,-8.1622,-5.5564,-0.3478,5.1478,-0.1391
915,-1.1496,-8.1239,-5.7097,-0.4174,5.1478,-0.1391
920,-0.958,-8.1622,-5.5948,-0.4174,4.9391,-0.0696
925,-1.0346,-8.1239,-5.5948,-0.4174,4.8,0.0
930,-1.1113,-8.1239,-5.5948,-0.4174,4.6609,0.1391
935,-1.0346,-8.0856,-5.4798,-0.487,4.5217,0.2087
940,-0.8814,-8.1622,-5.5564,-0.5565,4.3826,0.1391
945,-1.1113,-8.0856,-5.4798,-0.5565,4.313,0.2087
950,-0.9963,-8.1622,-5.5948,-0.5565,4.2435,0.2783
955,-0.958,-8.1239,-5.4798,-0.5565,4.2435,0.2087
960,-0.9963,-8.0856,-5.4415,-0.5565,4.313,0.1391
965,-0.9963,-7.9323,-5.5181,-0.6261,4.4522,0.0
970,-1.073,-8.0856,-5.5948,-0.487,4.3826,0.0
975,-1.1113,-8.1239,-5.5948,-0.4174,4.4522,-0.2087
980,-1.073,-7.9706,-5.5564,-0.4174,4.6609,-0.1391
985,-1.1113,-8.0473,-5.5181,-0.3478,4.6609,-0.2783
990,-1.0346,-8.1239,-5.7097,-0.2783,4.8696,-0.2783
995,-0.958,-8.1239,-5.6331,-0.2783,4.7304,-0.2783
1000,-1.073,-8.0856,-5.5564,-0.2783,4.7304,-0.2783
1005,-1.3029,-8.1239,-5.9013,-0.2087,4.8696,-0.2783
1010,-1.1496,-8.0856,-5.5948,-0.3478,4.8696,-0.2783
1015,-1.0346,-8.0473,-5.6331,-0.3478,4.8696,-0.2087
1020,-0.9963,-8.2005,-5.6714,-0.3478,4.9391,-0.2087
1025,-1.0346,-8.0856,-5.6714,-0.4174,5.0087,-0.1391
1030,-1.073,-8.0856,-5.6331,-0.2783,5.1478,-0.1391
1035,-1.073,-8.2005,-5.6331,-0.2783,5.1478,0.0
1040,-1.0346,-8.1622,-5.5564,-0.3478,5.1478,-0.0696
1045,-0.958,-8.2389,-5.6331,-0.3478,5.1478,-0.0696
1050,-0.958,-8.0473,-5.5564,-0.5565,5.0087,-0.0696
1055,-0.9963,-8.1622,-5.4798,-0.487,5.0087,-0.0696
1060,-0.9197,-8.1622,-5.3648,-0.487,5.0087,0.0
1065,-1.0346,-8.1239,-5.4798,-0.5565,4.9391,0.0
1070,-1.073,-8.0856,-5.5948,-0.5565,4.9391,-0.0696
1075,-1.073,-8.1239,-5.5948,-0.5565,4.8696,-0.2087
1080,-0.8814,-8.2772,-5.5564,-0.6261,4.9391,-0.2783
1085,-1.0346,-8.1622,-5.5564,-0.5565,4.8,-0.3478
1090,-1.073,-8.0856,-5.4415,-0.487,4.8696,-0.2783
1095,-0.958,-8.1239,-5.4415,-0.5565,4.8,-0.3478
1100,-1.1113,-8.1622,-5.5181,-0.5565,4.8,-0.2783
1105,-1.1113,-8.2389,-5.4798,-0.6261,4.8,-0.3478
1110,-1.073,-8.2005,-5.5181,-0.5565,4.8696,-0.3478
1115,-1.0346,-8.2389,-5.5948,-0.5565,4.8,-0.487
1120,-1.073,-8.2389,-5.4415,-0.8348,4.8696,-0.4174
1125,-1.1113,-8.0856,-5.5564,-0.8348,4.8,-0.487
1130,-1.0346,-8.1239,-5.5181,-0.9739,4.8,-0.487
1135,-1.1879,-8.0089,-5.5181,-0.9739,4.8,-0.4174
1140,-1.1496,-8.0473,-5.4415,-0.9739,4.8,-0.487
1145,-1.0346,-8.1622,-5.5948,-1.113,4.8,-0.4174
1150,-1.1113,-8.1622,-5.5564,-1.113,4.8,-0.4174
1155,-1.1113,-8.1622,-5.3648,-1.1826,4.7304,-0.3478
1160,-1.073,-8.0856,-5.5181,-1.2522,4.6609,-0.3478
1165,-1.1496,-8.0089,-5.4798,-1.3217,4.6609,-0.1391
1170,-1.0346,-8.0856,-5.5564,-1.6,4.8,-0.2783
1175,-0.9963,-8.1239,-5.5181,-1.6696,4.6609,-0.1391
1180,-1.1113,-8.2005,-5.4798,-1.6,4.6609,-0.1391
1185,-1.1113,-8.0856,-5.5948,-1.6,4.5217,-0.1391
1190,-1.073,-8.0856,-5.6331,-1.6,4.4522,-0.1391
1195,-1.073,-8.0473,-5.5564,-1.6,4.3826,-0.0696
1200,-1.073,-8.0473,-5.5948,-1.5304,4.3826,-0.0696
1205,-1.1113,-8.1239,-5.4798,-1.4609,4.313,-0.1391
1210,-0.9963,-8.0473,-5.5181,-1.4609,4.2435,-0.1391
1215,-1.073,-8.1239,-5.4415,-1.6,4.2435,-0.1391
1220,-0.958,-8.2005,-5.5181,-1.6,4.1739,-0.1391
1225,-0.958,-8.0856,-5.4032,-1.6696,4.1043,-0.1391
1230,-0.958,-8.0856,-5.5181,-1.5304,4.0348,-0.1391
1235,-1.0346,-8.0856,-5.5564,-1.5304,4.0348,-0.1391
1240,-0.958,-8.1622,-5.6331,-1.5304,4.0348,-0.2087
1245,-1.0346,-8.1239,-5.4798,-1.4609,4.1043,-0.2783
1250,-0.9963,-8.0856,-5.5181,-1.5304,4.1739,-0.2087
1255,-1.0346,-8.1239,-5.5564,-1.5304,4.2435,-0.3478
1260,-1.0346,-8.2005,-5.5564,-1.6,4.2435,-0.3478
1265,-0.9197,-8.2005,-5.5564,-1.6,4.3826,-0.4174
1270,-1.0346,-8.1622,-5.6331,-1.5304,4.4522,-0.4174
1275,-0.9197,-8.1239,-5.5564,-1.6,4.5217,-0.2783
1280,-1.0346,-8.1622,-5.5181,-1.6,4.4522,-0.2783
1285,-0.9963,-8.1239,-5.4415,-1.6696,4.4522,-0.2783
1290,-0.8814,-8.1239,-5.5948,-1.6696,4.5217,-0.3478
1295,-0.958,-8.1239,-5.5181,-1.7391,4.6609,-0.2783
1300,-0.9197,-8.1622,-5.6331,-1.7391,4.5217,-0.2087
1305,-0.958,-8.0089,-5.5948,-1.7391,4.4522,-0.2783
1310,-0.9963,-8.0856,-5.6331,-1.7391,4.5217,-0.2087
1315,-0.958,-8.1622,-5.5948,-1.5304,4.4522,-0.0696
1320,-0.8814,-8.2005,-5.5181,-1.4609,4.3826,-0.0696
1325,-0.9963,-8.0856,-5.5948,-1.4609,4.3826,0.0
1330,-1.1113,-7.9706,-5.5948,-1.4609,4.313,0.0
1335,-0.958,-8.0856,-5.5948,-1.4609,4.313,0.0
1340,-1.073,-8.0089,-5.6331,-1.3913,4.313,0.0
1345,-0.958,-8.2389,-5.5181,-1.5304,4.3826,-0.0696
1350,-1.073,-8.0856,-5.5948,-1.5304,4.5217,-0.0696
1355,-1.073,-8.1622,-5.4032,-1.5304,4.5913,-0.0696
1360,-1.0346,-7.9706,-5.6331,-1.5304,4.5913,0.0
1365,-1.0346,-8.1622,-5.6331,-1.4609,4.6609,-0.0696
1370,-1.0346,-8.2005,-5.5564,-1.3913,4.7304,0.0
1375,-1.073,-8.0473,-5.4032,-1.1826,4.5913,-0.0696
1380,-1.1113,-8.0089,-5.5948,-1.2522,4.6609,-0.0696
1385,-0.9963,-8.1622,-5.5181,-1.2522,4.7304,-0.1391
1390,-1.0346,-8.0856,-5.6331,-1.1826,4.7304,-0.0696
1395,-1.1113,-7.9706,-5.5564,-1.2522,4.7304,0.0
1400,-1.073,-8.0856,-5.5948,-1.3217,4.7304,-0.0696
1405,-1.1879,-8.0089,-5.5948,-1.3217,4.8,-0.1391
1410,-1.073,-8.0473,-5.5948,-1.3217,4.8696,-0.0696
1415,-0.9963,-8.1622,-5.4798,-1.3217,4.8696,-0.0696
1420,-1.1113,-8.1239,-5.6331,-1.3217,4.8,-0.2087
1425,-1.1113,-8.0473,-5.5564,-1.3913,4.8,-0.0696
1430,-1.073,-8.1622,-5.5564,-1.2522,4.6609,-0.1391
1435,-1.0346,-8.1239,-5.6331,-1.1826,4.5913,-0.2087
1440,-0.9963,-8.0856,-5.6331,-1.113,4.5913,-0.1391
1445,-0.958,-7.9323,-5.6714,-1.0435,4.4522,-0.1391
1450,-1.1879,-7.9706,-5.6331,-1.0435,4.3826,-0.1391
1455,-0.9963,-8.0473,-5.6714,-1.0435,4.5217,-0.2783
1460,-0.9963,-8.1622,-5.4798,-0.9043,4.6609,-0.2783
1465,-1.1113,-8.0473,-5.5948,-0.9043,4.8,-0.3478
1470,-0.958,-8.1622,-5.6331,-0.9043,4.8696,-0.3478
1475,-1.073,-8.0856,-5.7097,-0.9043,4.8,-0.3478
1480,-1.1496,-7.9706,-5.4798,-0.9043,4.8696,-0.3478
1485,-0.9963,-8.2005,-5.6714,-0.9043,4.8696,-0.3478
1490,-1.0346,-8.1622,-5.6331,-0.9043,4.8,-0.3478
1495,-0.958,-8.3538,-5.5948,-0.7652,4.7304,-0.3478
1500,-1.1113,-8.2772,-5.5564,-0.6957,4.7304,-0.4174
1505,-1.1113,-8.0473,-5.5948,-0.6261,4.8,-0.4174
1510,-1.073,-8.2005,-5.5181,-0.5565,4.7304,-0.3478
1515,-1.0346,-8.1239,-5.5948,-0.3478,4.8,-0.487
1520,-1.073,-8.0089,-5.6331,-0.3478,4.7304,-0.4174
1525,-0.958,-8.1622,-5.6714,-0.487,4.6609,-0.4174
1530,-0.9963,-8.1239,-5.5948,-0.6261,4.5913,-0.4174
1535,-1.0346,-8.0856,-5.4798,-0.8348,4.6609,-0.3478
1540,-0.9963,-8.1622,-5.5948,-1.0435,4.5217,-0.2783
1545,-0.9963,-8.2005,-5.5948,-1.1826,4.4522,-0.2783
1550,-0.958,-8.1239,-5.5564,-1.1826,4.4522,-0.3478
1555,-1.0346,-8.1239,-5.5181,-1.2522,4.313,-0.2783
1560,-0.958,-8.1239,-5.6331,-1.2522,4.313,-0.2087
1565,-1.073,-8.1239,-5.5564,-1.3217,4.313,-0.2087
1570,-1.0346,-8.1622,-5.4415,-1.2522,4.2435,-0.2783
1575,-0.958,-8.1622,-5.5948,-1.3217,4.313,-0.2783
1580,-1.0346,-8.0473,-5.5181,-1.3217,4.313,-0.3478
1585,-0.9963,-8.0856,-5.5181,-1.3217,4.3826,-0.3478
1590,-1.1113,-8.0089,-5.5564,-1.2522,4.5217,-0.4174
1595,-1.0346,-8.0856,-5.5948,-1.2522,4.5913,-0.487
1600,-0.958,-8.0473,-5.5181,-1.2522,4.8,-0.487
1605,-0.958,-8.0856,-5.5181,-1.1826,4.9391,-0.487
1610,-1.0346,-8.1239,-5.5948,-1.113,5.0087,-0.5565
1615,-1.073,-8.1239,-5.6331,-1.1826,5.1478,-0.6261
1620,-0.9197,-8.2389,-5.6331,-1.113,5.1478,-0.6957
1625,-1.1496,-8.0856,-5.5564,-1.113,5.2174,-0.6261
1630,-1.1496,-8.1622,-5.5564,-1.113,5.2174,-0.487
1635,-1.0346,-8.0473,-5.5948,-1.113,5.2174,-0.4174
1640,-1.1113,-8.0856,-5.5948,-1.0435,5.1478,-0.4174
1645,-1.073,-8.0473,-5.6714,-1.0435,5.0783,-0.3478
1650,-1.0346,-8.1239,-5.6331,-0.9739,5.0087,-0.4174
1655,-0.958,-8.1622,-5.5948,-1.0435,5.0087,-0.4174
1660,-1.2263,-8.2772,-5.8247,-1.113,4.9391,-0.2783
1665,-0.958,-8.0856,-5.5564,-1.2522,5.0087,-0.3478
1670,-0.958,-8.1622,-5.5948,-1.2522,4.8696,-0.2783
1675,-1.0346,-8.1622,-5.5564,-1.2522,4.8696,-0.3478
1680,-1.0346,-8.0856,-5.6714,-1.3217,4.8696,-0.3478
1685,-0.9963,-8.1239,-5.6331,-1.3217,4.8,-0.3478
1690,-0.9963,-8.1622,-5.6331,-1.3217,4.6609,-0.3478
1695,-1.0346,-8.0473,-5.5181,-1.3217,4.7304,-0.4174
1700,-0.9963,-8.1239,-5.6331,-1.3913,4.8,-0.487
1705,-0.958,-8.0856,-5.5181,-1.5304,4.8,-0.487
1710,-0.958,-8.0473,-5.5564,-1.6,4.8,-0.5565
1715,-1.0346,-8.1622,-5.5948,-1.6696,4.8696,-0.487
1720,-0.9963,-8.0473,-5.6331,-1.5304,5.0783,-0.5565
1725,-0.958,-8.1239,-5.5564,-1.5304,5.0783,-0.6261
1730,-1.1496,-8.0856,-5.4415,-1.5304,4.9391,-0.5565
1735,-0.958,-8.0856,-5.4415,-1.5304,5.0087,-0.6261
1740,-1.0346,-8.0473,-5.5948,-1.6,4.8696,-0.6261
1745,-0.9963,-8.1622,-5.4415,-1.4609,4.8696,-0.6261
1750,-0.9963,-8.0856,-5.6331,-1.5304,4.8,-0.6261
1755,-0.958,-8.1239,-5.4798,-1.4609,4.8,-0.6261
1760,-0.958,-8.0473,-5.5948,-1.5304,4.8,-0.6957
1765,-0.958,-8.1622,-5.6331,-1.4609,4.8696,-0.6261
1770,-1.3029,-7.779,-5.5181,-1.5304,4.8,-0.6261
1775,-1.0346,-8.0089,-5.6331,-1.4609,4.8696,-0.7652
1780,-1.0346,-8.0856,-5.6331,-1.3913,4.9391,-0.7652
1785,-0.958,-8.1622,-5.5948,-1.3913,4.9391,-0.8348
1790,-1.1496,-8.0856,-5.5564,-1.3217,4.8696,-0.7652
1795,-1.1879,-8.0856,-5.6331,-1.2522,4.9391,-0.6957
1800,-0.9963,-8.0473,-5.5948,-1.2522,4.8696,-0.8348
1805,-0.9963,-8.1239,-5.5564,-1.1826,4.8696,-0.7652
1810,-1.0346,-8.0473,-5.5564,-1.1826,4.7304,-0.8348
1815,-1.0346,-8.1239,-5.6331,-1.113,4.6609,-0.7652
1820,-1.073,-8.2005,-5.6331,-1.1826,4.5913,-0.7652
1825,-1.1113,-8.0856,-5.5564,-1.113,4.5217,-0.8348
1830,-1.1496,-8.2005,-5.5181,-1.1826,4.5913,-0.8348
1835,-0.9963,-8.2389,-5.5948,-1.113,4.5217,-0.7652
1840,-0.958,-8.1622,-5.6714,-1.0435,4.4522,-0.7652
1845,-1.0346,-8.2005,-5.6714,-1.113,4.5913,-0.6957
1850,-0.9197,-8.1622,-5.5948,-1.113,4.6609,-0.6261
1855,-1.0346,-8.1622,-5.6331,-1.1826,4.7304,-0.7652
1860,-1.0346,-8.1239,-5.5564,-1.1826,4.7304,-0.7652
1865,-0.9963,-8.0089,-5.6331,-1.0435,4.8,-0.6957
1870,-0.9197,-8.1622,-5.4798,-1.0435,4.8,-0.5565
1875,-1.073,-8.1239,-5.5948,-1.113,4.8,-0.5565
1880,-1.1113,-8.1622,-5.5564,-1.113,4.8696,-0.4174
1885,-0.9963,-8.1239,-5.4415,-1.113,4.8696,-0.487
1890,-0.958,-8.1622,-5.5564,-1.113,4.8696,-0.5565
1895,-1.1496,-8.1239,-5.5564,-1.113,4.8,-0.487
1900,-1.073,-8.0856,-5.7097,-1.1826,4.6609,-0.5565
1905,-1.0346,-8.0856,-5.5948,-1.113,4.6609,-0.4174
1910,-0.9197,-8.2005,-5.5564,-1.0435,4.5217,-0.3478
1915,-1.0346,-8.2005,-5.5948,-1.113,4.3826,-0.3478
1920,-1.0346,-8.0473,-5.6331,-1.0435,4.4522,-0.4174
1925,-1.0346,-8.1622,-5.5181,-1.113,4.3826,-0.4174
1930,-0.9963,-8.1622,-5.5564,-1.113,4.3826,-0.487
1935,-1.0346,-8.1622,-5.5564,-0.9739,4.4522,-0.5565
1940,-0.9963,-8.0856,-5.5948,-0.9043,4.4522,-0.487
1945,-0.9963,-8.1622,-5.6331,-0.8348,4.5217,-0.6261
1950,-1.0346,-8.1622,-5.5948,-0.8348,4.6609,-0.5565
1955,-1.0346,-8.0089,-5.6331,-0.8348,4.7304,-0.6261
1960,-0.9197,-8.1622,-5.5564,-0.8348,4.8,-0.5565
1965,-1.0346,-8.1239,-5.6331,-0.8348,4.8,-0.6261
1970,-1.0346,-8.1239,-5.5564,-0.8348,4.8696,-0.6261
1975,-1.1496,-8.0473,-5.5181,-0.9043,4.9391,-0.6261
1980,-1.073,-8.0473,-5.5564,-0.9043,5.0087,-0.6261
1985,-0.9963,-8.0089,-5.5948,-0.9739,5.0087,-0.5565
1990,-0.8814,-8.0473,-5.6714,-0.9739,4.8696,-0.487
1995,-0.958,-8.0856,-5.5948,-0.9043,4.8696,-0.487
2000,-0.958,-8.0856,-5.6331,-0.9043,4.7304,-0.4174
2005,-1.073,-8.0856,-5.5181,-0.8348,4.8,-0.3478
2010,-1.1879,-8.1239,-5.7097,-0.8348,4.7304,-0.2783
2015,-0.9963,-8.0856,-5.6714,-0.9043,4.7304,-0.2783
2020,-0.9963,-8.0473,-5.5948,-0.9043,4.7304,-0.2783
2025,-0.958,-8.1622,-5.5948,-0.8348,4.6609,-0.2783
2030,-1.1113,-8.0856,-5.6331,-0.8348,4.5913,-0.2783
2035,-0.9963,-8.0856,-5.6714,-0.8348,4.5913,-0.2087
2040,-1.0346,-8.0473,-5.5181,-0.7652,4.5913,-0.2783
2045,-0.958,-8.1239,-5.6714,-0.8348,4.6609,-0.2783
2050,-1.0346,-8.0089,-5.4798,-0.7652,4.7304,-0.2783
2055,-1.0346,-8.0856,-5.4798,-0.8348,4.8,-0.2783
2060,-0.9197,-8.1239,-5.5181,-0.9043,4.8,-0.3478
2065,-0.9197,-8.1239,-5.5948,-0.9043,4.8,-0.3478
2070,-0.9963,-8.1239,-5.5564,-0.9043,4.8696,-0.4174
2075,-0.9963,-8.0856,-5.5564,-0.9739,4.8,-0.2783
2080,-1.1496,-8.1239,-5.4798,-0.8348,4.8,-0.3478
2085,-0.9963,-8.0856,-5.6714,-0.8348,4.8,-0.4174
2090,-1.073,-8.2389,-5.6331,-0.6261,4.8696,-0.3478
2095,-1.0346,-8.5454,-5.9013,-0.4174,4.7304,-0.487
2100,-1.0346,-8.2005,-5.6714,-0.2783,4.6609,-0.3478
2105,-0.9963,-8.1622,-5.748,-0.1391,4.5913,-0.3478
2110,-1.1113,-8.1239,-5.7864,-0.0696,4.5217,-0.3478
2115,-1.073,-7.9706,-5.5948,-0.0696,4.5217,-0.487
2120,-0.9963,-8.0473,-5.6331,-0.0696,4.6609,-0.5565
2125,-1.073,-8.1239,-5.6714,0.0696,4.8,-0.5565
2130,-0.9197,-8.2005,-5.7097,0.0,4.8696,-0.487
2135,-1.1113,-7.9323,-5.6331,0.0,5.0087,-0.6261
2140,-0.958,-8.0473,-5.5564,-0.0696,5.1478,-0.5565
2145,-0.9963,-8.1622,-5.5564,-0.0696,5.1478,-0.487
2150,-0.8814,-8.0089,-5.5564,-0.0696,5.0087,-0.487
2155,-0.9963,-8.1239,-5.5564,-0.1391,5.0783,-0.487
2160,-1.0346,-8.1622,-5.5181,-0.1391,5.2174,-0.4174
2165,-1.073,-8.0089,-5.5948,-0.1391,5.0783,-0.3478
2170,-1.0346,-8.1239,-5.5948,-0.2087,5.0087,-0.3478
2175,-0.8814,-8.2005,-5.6331,-0.4174,5.0783,-0.4174
2180,-1.0346,-8.0856,-5.6331,-0.5565,5.0087,-0.3478
2185,-1.073,-8.0856,-5.6331,-0.6261,4.8696,-0.3478
2190,-0.958,-8.0473,-5.6331,-0.8348,4.9391,-0.2783
2195,-1.0346,-8.1622,-5.4415,-1.0435,4.8696,-0.1391
2200,-1.073,-8.0473,-5.5181,-1.113,4.9391,-0.1391
2205,-0.7281,-8.0089,-5.5564,-1.2522,4.9391,-0.2087
2210,-1.0346,-8.1622,-5.4798,-1.3913,4.8,-0.0696
2215,-0.958,-8.1622,-5.5564,-1.3217,4.7304,0.0696
2220,-1.073,-8.0473,-5.5564,-1.1826,4.6609,0.0
2225,-0.958,-8.0089,-5.5948,-1.1826,4.6609,0.0
2230,-0.9197,-8.1239,-5.5181,-1.0435,4.7304,-0.0696
2235,-0.958,-8.2005,-5.6331,-0.8348,4.8,-0.2087
2240,-1.073,-8.0089,-5.5948,-0.6957,4.8,-0.2087
2245,-0.958,-8.2005,-5.5564,-0.6261,4.8,-0.2783
2250,-1.073,-8.0473,-5.5564,-0.5565,4.9391,-0.3478
2255,-1.0346,-7.9706,-5.5948,-0.5565,5.0783,-0.3478
2260,-1.073,-8.0473,-5.6331,-0.4174,5.1478,-0.3478
2265,-1.073,-8.0856,-5.6714,-0.4174,5.0783,-0.2783
2270,-0.9963,-8.0473,-5.5564,-0.4174,5.1478,-0.2783
2275,-0.958,-8.0473,-5.7097,-0.4174,5.2174,-0.2783
2280,-0.9963,-8.0473,-5.6714,-0.3478,5.2174,-0.2087
2285,-1.1113,-7.894,-5.6331,-0.3478,5.1478,-0.2087
2290,-1.1496,-7.9706,-5.5948,-0.4174,5.2174,-0.1391
2295,-1.0346,-8.0856,-5.6331,-0.4174,5.2174,-0.1391
2300,-1.073,-8.0473,-5.6331,-0.5565,5.2174,-0.0696
2305,-1.073,-8.0856,-5.6714,-0.6957,5.1478,-0.0696
2310,-0.843,-8.2772,-5.3648,-0.6957,5.0087,0.0
2315,-1.073,-8.1239,-5.5948,-0.6261,4.8,0.0
2320,-1.0346,-8.0856,-5.6714,-0.6957,4.6609,-0.0696
2325,-1.0346,-8.2389,-5.5948,-0.6957,4.5913,0.0
2330,-0.9197,-8.2005,-5.6714,-0.6957,4.6609,-0.1391
2335,-0.8814,-8.0856,-5.6331,-0.6957,4.5913,-0.0696
2340,-1.073,-8.1239,-5.3648,-0.8348,4.6609,-0.0696
2345,-0.843,-8.2772,-5.5948,-0.7652,4.7304,-0.1391
2350,-1.0346,-8.1239,-5.5181,-0.7652,4.8,-0.1391
2355,-0.9963,-8.1239,-5.5948,-0.7652,4.9391,-0.2087
2360,-0.958,-8.1622,-5.5181,-0.6957,5.0087,-0.2087
2365,-0.8047,-8.1239,-5.5564,-0.7652,5.287,-0.2087
2370,-0.9963,-8.0473,-5.4798,-0.6957,5.3565,-0.2087
2375,-1.0346,-8.1239,-5.5564,-0.8348,5.4957,-0.2087
2380,-0.9963,-8.0856,-5.5948,-0.8348,5.4957,-0.0696
2385,-1.1113,-8.0473,-5.6331,-0.9043,5.5652,-0.1391
2390,-0.9963,-8.0473,-5.5948,-0.8348,5.5652,0.0
2395,-1.0346,-8.0856,-5.5564,-0.9739,5.5652,0.0696
2400,-0.9963,-8.1239,-5.5948,-0.9043,5.3565,0.0
2405,-0.958,-8.1239,-5.4798,-0.9043,5.2174,0.1391
2410,-1.0346,-8.0856,-5.5564,-0.9043,5.1478,0.2087
2415,-1.0346,-8.0856,-5.5948,-0.8348,5.0087,0.0696
2420,-1.0346,-8.1239,-5.5948,-0.7652,4.8,0.1391
2425,-1.1113,-8.3538,-5.5948,-0.6957,4.7304,0.2087
2430,-0.9197,-8.2005,-5.5948,-0.6957,4.5913,0.1391
2435,-1.0346,-8.0856,-5.6331,-0.7652,4.5217,0.0696
2440,-0.958,-8.0856,-5.5181,-0.7652,4.5217,0.0
2445,-0.9963,-8.0856,-5.6331,-0.7652,4.5913,0.0696
2450,-0.9963,-8.0473,-5.5181,-0.8348,4.5913,0.0
2455,-0.958,-8.2389,-5.5181,-0.8348,4.7304,0.0
2460,-0.958,-8.1622,-5.5181,-0.9043,4.7304,0.0696
2465,-0.9963,-8.2005,-5.5181,-0.8348,4.8,0.0
2470,-0.8814,-8.3155,-5.4415,-0.9043,4.8696,-0.0696
2475,-1.1496,-8.2005,-5.5948,-0.9739,4.8,-0.1391
2480,-1.073,-8.1622,-5.5948,-0.9739,4.9391,-0.2087
2485,-0.9197,-8.1239,-5.5564,-1.0435,4.9391,-0.2783
2490,-0.9963,-8.2005,-5.5564,-1.0435,4.9391,-0.2087
2495,-1.1113,-8.1239,-5.5181,-1.0435,4.9391,-0.1391
2500,-1.073,-8.0089,-5.5948,-1.0435,4.9391,-0.0696
2505,-1.0346,-8.1239,-5.5564,-0.9739,5.0087,-0.0696
2510,-1.0346,-8.0089,-5.6331,-0.9043,5.0087,-0.0696
2515,-0.958,-8.0856,-5.5181,-0.9043,5.0783,-0.0696
2520,-0.9963,-8.0473,-5.5564,-0.9043,5.1478,0.0696
2525,-0.9963,-8.1239,-5.5948,-0.9043,5.0783,0.0696
2530,-1.1113,-8.0856,-5.748,-0.9043,5.0087,0.0
2535,-1.073,-8.2389,-5.5948,-0.6957,5.0087,0.0
2540,-0.9963,-8.0856,-5.6331,-0.487,5.0783,0.0696
2545,-1.1113,-8.0856,-5.7097,-0.3478,5.1478,-0.0696
2550,-0.9197,-8.2389,-5.5948,-0.2783,4.9391,-0.0696
2555,-0.958,-8.2005,-5.5948,-0.2783,4.9391,-0.1391
2560,-0.9197,-8.2005,-5.6331,-0.3478,4.8,-0.1391
2565,-1.0346,-8.0856,-5.748,-0.3478,4.7304,-0.2087
2570,-0.9963,-8.0473,-5.5564,-0.4174,4.6609,-0.2087
2575,-1.0346,-8.0856,-5.5564,-0.6261,4.5217,-0.2087
2580,-0.958,-8.1622,-5.6331,-0.8348,4.5913,-0.1391
2585,-0.958,-8.2389,-5.5564,-1.0435,4.5217,-0.1391
2590,-1.073,-8.0473,-5.5564,-1.1826,4.4522,0.0
2595,-0.9963,-7.9706,-5.6714,-1.3913,4.5913,-0.0696
2600,-0.9963,-8.0473,-5.5564,-1.5304,4.5217,-0.1391
2605,-1.0346,-8.0473,-5.5948,-1.6,4.5217,0.0
2610,-1.073,-8.1239,-5.5948,-1.6,4.7304,0.0696
2615,-0.958,-8.0856,-5.5564,-1.6,4.8,0.0696
2620,-1.1113,-8.0473,-5.6714,-1.5304,4.7304,0.0
2625,-1.1113,-8.0856,-5.5181,-1.6,4.9391,0.0696
2630,-0.9963,-8.2005,-5.6714,-1.5304,5.0783,-0.1391
2635,-1.1879,-8.3538,-5.4415,-1.3913,5.1478,-0.1391
2640,-0.9963,-8.3921,-5.6331,-1.4609,5.2174,-0.2087
2645,-0.958,-8.2005,-5.4798,-1.3913,5.1478,-0.2087
2650,-1.0346,-8.0856,-5.6331,-1.4609,5.1478,-0.0696
2655,-0.958,-7.9706,-5.5564,-1.5304,5.0783,0.0
2660,-1.073,-8.0473,-5.5564,-1.5304,5.0087,0.0696
2665,-1.0346,-8.2005,-5.5181,-1.5304,4.9391,0.1391
2670,-0.9963,-8.1239,-5.6331,-1.4609,4.7304,0.1391
2675,-1.1113,-8.1239,-5.5564,-1.4609,4.6609,0.2087
2680,-1.1113,-8.0473,-5.5948,-1.3913,4.5913,0.2783
2685,-1.0346,-8.1622,-5.5181,-1.3217,4.5913,0.2783
2690,-0.9963,-8.1622,-5.4798,-1.4609,4.4522,0.4174
2695,-1.073,-8.0089,-5.5948,-1.4609,4.5217,0.2783
2700,-0.958,-8.1622,-5.5948,-1.6,4.5217,0.2087
2705,-1.073,-8.1239,-5.5948,-1.5304,4.5217,0.2783
2710,-1.073,-8.0473,-5.5181,-1.6,4.5217,0.2783
2715,-1.0346,-8.0856,-5.6331,-1.8087,4.5217,0.2087
2720,-0.958,-7.9706,-5.5948,-1.8087,4.5217,0.1391
2725,-0.9963,-8.0473,-5.4798,-1.9478,4.5913,0.1391
2730,-0.9963,-8.0473,-5.5564,-1.9478,4.7304,0.0696
2735,-1.0346,-8.2772,-5.5948,-1.8783,4.8,0.0696
2740,-1.0346,-8.1622,-5.5948,-1.8783,4.8,0.0696
2745,-0.958,-8.1622,-5.6714,-1.7391,4.9391,0.0
2750,-1.1496,-8.0856,-5.6331,-1.6696,4.8696,0.0696
2755,-1.0346,-8.2389,-5.6331,-1.6,4.8696,0.0
2760,-0.958,-8.0473,-5.6714,-1.6,4.8,-0.0696
2765,-1.1113,-8.0089,-5.4798,-1.6,4.8696,0.0
2770,-0.9963,-8.2005,-5.6331,-1.6,4.8696,-0.0696
2775,-1.1496,-8.0856,-5.6714,-1.4609,5.0087,-0.2087
2780,-1.073,-8.0089,-5.5948,-1.4609,5.0783,-0.2087
2785,-0.958,-8.0089,-5.5564,-1.4609,5.1478,-0.2783
2790,-1.0346,-8.0856,-5.7864,-1.4609,5.2174,-0.2087
2795,-1.0346,-8.0473,-5.6331,-1.5304,5.0783,-0.2783
2800,-1.0346,-8.0856,-5.5181,-1.4609,5.0087,-0.1391
2805,-1.0346,-8.1239,-5.7097,-1.3913,4.9391,-0.2087
2810,-0.9963,-8.2389,-5.5564,-1.3217,4.8,-0.0696
2815,-1.0346,-8.2389,-5.6714,-1.1826,4.8,0.0
2820,-1.1113,-8.1622,-5.5948,-1.113,4.6609,-0.0696
2825,-1.1113,-8.0856,-5.6714,-0.9739,4.6609,-0.0696
2830,-0.9963,-8.1239,-5.5948,-0.8348,4.7304,-0.2087
2835,-1.0346,-8.0856,-5.6714,-0.8348,4.5913,-0.0696
2840,-1.0346,-7.9706,-5.7097,-0.8348,4.6609,-0.2087
2845,-0.843,-8.1239,-5.5181,-0.9043,4.5913,-0.2783
2850,-0.958,-8.0473,-5.5564,-1.113,4.6609,-0.1391
2855,-0.9963,-8.1239,-5.5948,-1.1826,4.5913,-0.1391
2860,-1.2263,-8.0473,-5.5948,-1.3913,4.5913,-0.0696
2865,-0.9197,-8.1239,-5.6331,-1.3913,4.5913,0.0696
2870,-1.0346,-8.0473,-5.5181,-1.6,4.5913,0.0
2875,-1.1113,-8.1239,-5.5564,-1.6,4.5913,0.0
2880,-1.0346,-8.0856,-5.5181,-1.5304,4.5913,-0.0696
2885,-0.9963,-8.0089,-5.5948,-1.5304,4.5217,-0.0696
2890,-0.9963,-8.0089,-5.5948,-1.3217,4.6609,-0.1391
2895,-1.0346,-8.1239,-5.5564,-1.3913,4.8,-0.1391
2900,-0.9963,-8.1239,-5.6331,-1.3217,5.0087,-0.2087
2905,-0.958,-8.1622,-5.6331,-1.1826,4.9391,-0.3478
2910,-1.0346,-8.1239,-5.5948,-0.9739,5.1478,-0.3478
2915,-1.0346,-8.1239,-5.5948,-0.9043,5.287,-0.2087
2920,-1.073,-8.0856,-5.5181,-0.6957,5.2174,-0.2087
2925,-0.9197,-8.1622,-5.5564,-0.6261,5.2174,-0.2783
2930,-1.0346,-8.1239,-5.5181,-0.5565,5.287,-0.3478
2935,-1.0346,-7.9706,-5.5948,-0.487,5.2174,-0.2783
2940,-1.1879,-8.0089,-5.6714,-0.2783,5.0783,-0.2783
2945,-1.0346,-8.0473,-5.5948,-0.2783,5.0087,-0.2783
2950,-0.958,-8.0473,-5.6331,-0.2783,4.9391,-0.1391
2955,-1.073,-8.0473,-5.748,-0.3478,4.8696,-0.0696
2960,-0.9963,-8.1239,-5.7097,-0.3478,4.8,-0.0696
2965,-0.9963,-7.9706,-5.748,-0.4174,4.7304,-0.1391
2970,-0.9963,-7.9706,-5.7097,-0.487,4.6609,-0.1391
2975,-1.0346,-8.1622,-5.6714,-0.6957,4.5217,-0.2087
2980,-1.0346,-8.0856,-5.6331,-0.5565,4.5217,-0.0696
2985,-1.1496,-8.0473,-5.5564,-0.6261,4.4522,-0.0696
2990,-0.9197,-8.1239,-5.5948,-0.6957,4.5217,-0.1391
2995,-0.9963,-8.0473,-5.6714,-0.7652,4.5217,-0.2087
