timestamp,accX,accY,accZ,gyroX,gyroY,gyroZ
0,0.6514,-9.695,0.958,-0.2783,5.4957,0.9739
5,0.6131,-9.5801,0.8814,-0.3478,5.4957,1.1826
10,0.5365,-9.5801,0.958,-0.5565,5.3565,1.1826
15,0.4598,-9.5034,1.1113,-0.9043,5.3565,1.5304
20,0.4982,-9.5034,1.073,-1.2522,4.9391,1.6
25,0.5365,-9.5418,1.0346,-1.6,4.5217,1.8087
30,0.5748,-9.6184,0.9963,-1.8783,4.1739,1.8087
35,0.4598,-9.5034,1.073,-2.2957,3.8261,2.1565
40,0.4982,-9.5034,1.0346,-2.713,3.5478,2.087
45,0.5748,-9.5418,0.9963,-3.1304,3.2696,2.3652
50,0.4598,-9.4268,1.1113,-3.6174,3.2696,2.2957
55,0.5748,-9.4651,1.2263,-4.2435,3.2,2.5043
60,0.4598,-9.3885,1.2646,-4.8696,3.2696,2.5043
65,0.4215,-9.3885,1.0346,-5.6348,3.1304,2.7826
70,0.4215,-9.5034,1.3029,-6.1217,2.9913,2.713
75,0.4215,-9.4651,1.1879,-6.6783,2.9217,2.9913
80,0.5748,-9.5418,1.1879,-7.1652,2.8522,3.0609
85,0.3832,-9.4651,1.1879,-7.4435,2.9217,3.2
90,0.3449,-9.3885,1.2263,-7.8609,3.0609,3.2696
95,0.4598,-9.3502,1.3029,-8.2783,3.2,3.6174
100,0.4982,-9.2352,1.3795,-8.8348,3.4087,3.6174
105,0.4215,-9.3118,1.1496,-9.3913,3.6174,4.0348
110,0.4215,-9.3885,1.2263,-10.0174,3.7565,4.1739
115,0.4598,-9.4268,1.2263,-10.2261,3.9652,4.4522
120,0.4215,-9.4268,1.2646,-10.2957,3.8957,4.6609
125,0.4215,-9.3885,1.2646,-10.0174,3.7565,4.8
130,0.2682,-9.5034,1.073,-9.5304,3.4783,4.6609
135,0.3832,-9.4268,1.2263,-9.0435,2.713,4.8
140,0.3832,-9.4268,1.073,-8.9043,2.1565,4.6609
145,0.2682,-9.4651,1.0346,-8.8348,1.3217,4.8
150,0.4215,-9.3885,0.9197,-9.1826,0.7652,4.7304
155,0.2299,-9.4268,1.0346,-9.8087,0.2783,4.9391
160,0.2682,-9.3502,1.0346,-10.5739,0.0,4.9391
165,0.3066,-9.3885,0.9197,-11.2,-0.1391,5.2174
170,0.3449,-9.4268,0.958,-11.8957,-0.0696,5.1478
175,0.3066,-9.3502,0.958,-12.5913,0.0696,5.3565
180,0.2299,-9.4268,1.2263,-12.9391,0.1391,5.287
185,0.2682,-9.4651,1.1879,-13.1478,0.3478,5.4957
190,0.3066,-9.4268,1.2263,-13.0783,0.487,5.3565
195,0.1916,-9.3885,1.1879,-12.8696,0.8348,5.4957
200,0.1533,-9.4651,1.2646,-12.3826,0.9739,5.4957
205,0.2299,-9.5801,1.1879,-11.8957,1.2522,5.4957
210,0.2299,-9.4651,0.9963,-11.3391,1.3913,5.3565
215,0.2299,-9.3502,1.1879,-10.8522,1.6696,5.3565
220,0.2299,-9.3885,1.1879,-10.5043,2.087,5.3565
225,0.1533,-9.4268,0.9963,-10.3652,2.4348,5.287
230,0.2682,-9.3885,1.0346,-10.713,2.7826,5.3565
235,0.2299,-9.4268,0.8814,-11.1304,2.9913,5.4261
240,0.2299,-9.4268,0.9197,-11.8957,3.1304,5.3565
245,0.1916,-9.3885,1.0346,-12.8696,3.3391,5.4261
250,0.3832,-9.2735,0.843,-14.0522,3.4087,5.3565
255,0.2299,-9.3118,0.8814,-15.4435,3.4087,5.3565
260,0.1533,-9.3502,0.9197,-16.5565,3.4087,5.2174
265,0.115,-9.3118,0.958,-17.8087,3.2696,5.5652
270,0.2682,-9.4268,0.958,-18.713,3.1304,5.5652
275,0.2299,-9.3118,1.0346,-19.1304,3.1304,5.7739
280,0.1533,-9.3502,1.0346,-19.2696,3.2696,5.7739
285,0.1916,-9.3885,1.0346,-19.1304,3.4783,5.9826
290,0.2299,-9.3885,1.073,-18.9913,3.7565,6.0522
295,0.1533,-9.3502,1.0346,-18.7826,3.8957,6.6783
300,0.2682,-9.4268,0.958,-18.4348,3.8957,6.887
305,0.1533,-9.3502,0.958,-18.1565,3.8261,7.3043
310,0.2299,-9.4268,0.9197,-17.8783,4.1739,7.7913
315,0.2299,-9.5034,1.073,-17.7391,4.8,8.3478
320,0.2299,-9.2735,1.0346,-17.6,5.3565,8.2783
325,0.1916,-9.1969,1.073,-17.4609,5.9826,8.5565
330,0.1916,-9.1969,0.958,-17.4609,6.6783,8.5565
335,0.0383,-9.1586,1.0346,-17.4609,7.3043,8.7652
340,0.0766,-9.1586,1.2646,-17.7391,7.8609,8.5565
345,0.2299,-9.1969,1.4562,-17.8783,8.487,8.3478
350,0.115,-9.1202,1.6478,-17.9478,8.8348,7.8609
355,0.115,-9.1202,2.031,-17.5304,9.0435,7.513
360,0.0766,-9.2352,2.2609,-16.5565,9.3217,6.887
365,0.2682,-9.1586,2.7207,-15.5826,9.8087,6.4
370,0.115,-9.3118,2.874,-14.887,10.6435,5.4957
375,0.0766,-9.3885,2.989,-15.1652,11.4783,5.7739
380,0.1916,-9.3885,3.1806,-16.2087,11.8261,5.8435
385,0.0383,-9.4268,3.0273,-18.9913,11.687,6.4696
390,0.0,-9.4651,2.9507,-23.8609,10.713,7.3043
395,0.1533,-9.6184,2.4142,-31.1652,8.9043,8.2087
400,0.1916,-9.695,1.6478,-41.3217,6.4,8.3478
405,0.2299,-9.925,0.9197,-54.5391,3.687,8.6261
410,0.2682,-9.9633,0.115,-70.887,0.9043,8.8348
415,0.1533,-10.0399,-0.7664,-89.6,-1.5304,9.0435
420,0.2682,-10.0782,-1.2263,-109.7739,-2.9217,8.9739
425,0.1916,-10.2698,-1.5328,-130.1565,-2.713,8.9043
430,0.115,-10.3082,-1.9543,-149.5652,0.1391,8.6261
435,0.115,-10.3848,-1.9927,-171.4087,4.313,8.4174
440,0.2299,-10.6914,-1.8777,-188.2435,9.0435,7.8609
445,0.0383,-10.8446,-1.6861,-203.7565,13.4261,7.2348
450,0.0,-11.3428,-1.3029,-218.2957,17.3913,6.1913
455,-0.0766,-11.6877,-0.7281,-231.4435,20.2435,5.5652
460,-0.115,-12.3391,-0.3832,-242.5739,22.4696,5.2174
465,-0.2682,-12.799,0.0,-251.1304,23.7217,6.0522
470,-0.2682,-13.757,0.3449,-256.6957,24.0,7.7913
475,-0.115,-14.5617,0.4598,-258.7826,22.7478,10.5043
480,0.115,-15.4431,0.3832,-257.6696,19.7565,13.287
485,0.2682,-16.1712,0.1916,-252.313,15.4435,16.5565
490,0.3449,-16.7077,0.0766,-242.5739,9.113,18.5739
495,0.4598,-17.1292,-0.3449,-225.1826,3.687,20.5217
500,0.6131,-17.2058,-0.843,-206.3304,-1.3913,21.0087
505,0.6898,-17.2441,-1.2263,-184.6957,-5.4261,20.2435
510,0.6131,-16.8993,-1.8011,-161.2522,-8.2087,17.8087
515,0.5365,-16.631,-2.1076,-137.6696,-9.6696,15.0261
520,0.6514,-16.2095,-2.3375,-115.1304,-9.9478,12.3826
525,0.3832,-15.8263,-2.874,-94.4,-9.3913,9.6
530,0.2682,-15.1748,-3.2572,-75.8261,-7.7217,7.0957
535,0.1916,-14.4468,-3.5255,-59.7565,-4.9391,5.3565
540,0.0766,-13.7187,-4.0236,-45.913,-1.113,3.4087
545,0.115,-13.2205,-4.0236,-34.713,3.1304,1.2522
550,0.1916,-12.4924,-4.4068,-25.0435,8.487,-0.6957
555,0.3066,-11.9176,-4.4835,-19.7565,12.5913,-2.9217
560,0.2682,-11.3811,-4.4068,-17.1826,16.0696,-5.4957
565,0.0766,-10.768,-4.5218,-16.9739,18.5739,-7.4435
570,0.2682,-10.1932,-4.3302,-18.5043,20.2435,-9.113
575,0.3066,-9.9633,-3.9853,-21.2174,20.6609,-10.5043
580,0.1916,-9.5801,-3.947,-24.487,20.5913,-11.9652
585,0.2299,-9.3502,-3.7171,-28.1043,20.0348,-12.9391
590,0.3066,-9.1586,-3.6404,-31.6522,19.4783,-14.1217
595,0.3066,-8.9286,-3.4488,-34.6435,18.8522,-14.4
600,0.2299,-8.6604,-3.4488,-36.8696,18.3652,-14.7478
605,0.2299,-8.3538,-3.2955,-38.4,17.8087,-14.4696
610,0.1916,-8.2005,-3.4105,-38.887,17.1826,-14.1913
615,0.1916,-7.8557,-3.3722,-38.4,16.6957,-13.4957
620,0.3066,-7.7024,-3.5638,-37.5652,16.2783,-12.6609
625,0.1916,-7.4341,-3.6787,-36.5913,15.8609,-11.8957
630,0.1916,-7.1659,-3.8704,-35.4087,15.4435,-10.8522
635,0.4215,-6.936,-3.6404,-33.9478,15.0957,-10.0174
640,0.0766,-6.7061,-3.832,-32.1391,14.8174,-9.6696
645,0.3066,-6.5145,-3.9853,-30.6087,14.6783,-8.6261
650,0.0383,-6.3612,-4.0236,-29.287,14.4,-8.6957
655,-0.1533,-6.0163,-3.9087,-28.2435,14.0522,-7.8609
660,-0.115,-6.1313,-3.9853,-27.7565,13.6348,-7.2348
665,-0.3449,-5.8247,-3.947,-27.8261,12.6609,-6.7478
670,-0.3449,-5.8247,-4.1386,-28.5913,12.0348,-5.6348
675,-0.3066,-5.978,-4.2919,-29.7739,11.4087,-4.4522
680,-0.2682,-6.0163,-4.3685,-31.3739,10.8522,-3.6174
685,-0.3832,-6.1313,-4.4068,-33.2522,10.5043,-2.7826
690,-0.3832,-6.3229,-4.4835,-35.2,10.2957,-2.1565
695,-0.3066,-6.4378,-4.79,-37.2174,10.2261,-1.3913
700,-0.4215,-6.8977,-4.7134,-39.0957,10.2261,-0.9043
705,-0.4598,-6.8593,-4.6368,-40.487,10.2261,-0.4174
710,-0.3449,-7.1276,-4.8284,-41.3217,10.087,-0.2087
715,-0.2682,-7.3958,-4.8667,-41.4609,9.5304,0.2783
720,-0.3449,-7.4341,-4.8667,-41.1826,8.7652,0.3478
725,-0.3066,-7.5491,-4.9433,-40.6261,7.513,0.1391
730,-0.3066,-7.6257,-4.9433,-39.6522,6.5391,0.1391
735,-0.3066,-7.7407,-5.02,-38.8174,5.6348,0.6957
740,-0.1533,-7.9323,-4.9433,-37.6348,4.7304,0.6261
745,-0.0766,-8.0473,-5.1732,-36.4522,3.8957,0.4174
750,0.0,-8.2389,-4.9816,-34.8522,2.9913,-0.0696
755,0.115,-8.3538,-5.0966,-33.1826,1.9478,-0.4174
760,0.0766,-8.3538,-5.2116,-31.3739,1.113,-1.113
765,0.0383,-8.5071,-5.1732,-29.3565,0.4174,-1.6696
770,0.1533,-8.6987,-5.1349,-27.3391,-0.0696,-2.5739
775,0.2299,-8.852,-5.2116,-25.2522,-0.3478,-3.2696
780,0.2299,-8.967,-5.4415,-23.0261,-0.4174,-4.3826
785,0.2299,-9.0819,-5.3648,-20.5913,-0.1391,-5.2174
790,0.2299,-9.0819,-5.3648,-18.7826,0.4174,-5.9826
795,0.6898,-9.3502,-5.5564,-17.0435,1.113,-6.8174
800,0.0,-9.1202,-5.3648,-15.513,1.4609,-8.2087
805,0.0,-9.1202,-5.1349,-13.8435,2.087,-8.2087
810,0.0766,-9.1586,-5.2499,-12.313,2.5043,-8.487
815,0.115,-9.1586,-5.2116,-10.713,2.5739,-8.9043
820,0.115,-8.8903,-5.2499,-9.113,2.4348,-9.6696
825,-0.0383,-8.967,-5.1349,-7.3739,1.9478,-10.6435
830,-0.115,-8.737,-5.02,-5.4957,1.6696,-10.8522
835,-0.0383,-8.6604,-5.1349,-3.1304,1.3217,-10.7826
840,0.0766,-8.4688,-5.0966,-0.7652,1.0435,-10.2261
845,-0.0766,-8.2389,-5.0583,1.8783,0.5565,-10.2261
850,-0.115,-7.9706,-5.0583,3.9652,0.6261,-10.087
855,-0.0383,-7.7024,-5.2116,5.8435,1.2522,-9.2522
860,0.1533,-7.7024,-5.5181,7.5826,2.0174,-8.3478
865,-0.1916,-7.5108,-5.3265,8.6957,2.6435,-8.1391
870,0.0,-7.3192,-5.6331,9.4609,3.6174,-7.3043
875,-0.1533,-7.2425,-5.4415,9.3217,4.0348,-6.8174
880,-0.0766,-7.0893,-5.5564,8.6957,4.5913,-6.1217
885,-0.1533,-6.8977,-5.5564,7.513,5.0783,-4.8696
890,-0.115,-7.0126,-5.6714,5.913,5.4957,-4.313
895,-0.1916,-7.0509,-5.748,4.3826,5.8435,-3.7565
900,-0.0766,-6.9743,-5.6714,2.7826,6.0522,-3.2696
905,-0.0766,-6.9743,-5.5948,1.113,6.3304,-2.7826
910,0.0383,-7.0126,-5.3648,0.2087,6.4696,-2.3652
915,-0.0766,-6.936,-5.3648,-0.0696,6.6783,-1.9478
920,0.0766,-7.0509,-5.2882,0.1391,6.887,-1.7391
925,0.115,-7.0126,-5.1732,0.6261,6.9565,-1.2522
930,0.115,-7.0126,-5.3265,1.5304,6.6783,-0.9739
935,0.0766,-6.936,-5.1349,2.713,6.4,-0.6957
940,0.115,-6.9743,-5.2116,3.8957,5.8435,-0.7652
945,0.115,-6.8977,-5.3265,5.0087,5.287,-0.4174
950,0.1533,-6.7827,-5.3265,5.9826,4.7304,-0.4174
955,0.0383,-6.8977,-5.2499,6.6783,4.1739,-0.2087
960,0.0766,-6.821,-5.4415,6.8174,3.6174,-0.1391
965,0.0,-6.936,-5.2499,6.8174,3.2,0.0
970,0.0,-6.5528,-5.5564,6.4696,2.9913,-0.0696
975,0.0383,-6.5911,-5.4032,5.8435,2.9217,-0.1391
980,0.1916,-6.5528,-5.5564,5.2174,2.8522,-0.4174
985,0.1533,-6.3612,-5.5564,4.4522,2.9913,-0.4174
990,0.2682,-6.5911,-5.6331,3.6174,3.3391,-0.6957
995,0.2682,-6.4378,-5.5564,2.6435,3.7565,-0.7652
1000,0.1533,-6.3995,-5.4415,1.4609,4.1043,-1.6
1005,0.2682,-6.4378,-5.4032,0.6261,4.3826,-1.4609
1010,0.3066,-6.4378,-5.5181,-0.2087,4.9391,-1.2522
1015,0.3832,-6.7827,-5.4798,-0.9739,5.3565,-1.1826
1020,0.2299,-6.7444,-5.4415,-2.2957,5.7043,-1.1826
1025,0.3449,-6.8593,-5.5181,-3.4783,6.0522,-1.113
1030,0.3449,-6.821,-5.3265,-4.5217,6.3304,-1.0435
1035,0.3832,-6.821,-5.4798,-5.4261,6.3304,-0.6957
1040,0.3066,-6.8593,-5.4032,-5.913,6.2609,-0.5565
1045,0.3449,-6.8977,-5.2882,-5.9826,6.0522,-0.3478
1050,0.3449,-6.8977,-5.4415,-5.913,5.7739,-0.0696
1055,0.1533,-6.821,-5.4032,-5.4957,5.7043,0.2783
1060,0.2299,-6.8977,-5.2499,-4.8696,5.7739,0.487
1065,0.2299,-6.9743,-5.4032,-4.1739,5.8435,0.8348
1070,0.1533,-6.821,-5.4798,-3.4783,5.913,0.9043
1075,0.0383,-6.821,-5.4032,-2.8522,5.913,1.113
1080,-0.0383,-6.8977,-5.4415,-2.2261,5.8435,1.1826
1085,0.0383,-6.8977,-5.3648,-1.9478,5.913,1.1826
1090,0.0,-6.8977,-5.3648,-2.087,5.913,1.2522
1095,-0.0766,-6.7827,-5.5948,-2.3652,5.913,1.3217
1100,-0.0383,-6.936,-5.4415,-3.2,5.913,1.2522
1105,-0.0383,-6.8593,-5.5564,-3.8957,6.0522,1.3217
1110,0.0766,-6.9743,-5.5181,-4.6609,6.1217,1.113
1115,-0.115,-6.936,-5.4415,-5.4957,5.9826,1.0435
1120,-0.0383,-7.0893,-5.2882,-6.1217,6.1217,0.7652
1125,0.0,-7.2809,-5.4032,-6.7478,6.0522,0.7652
1130,0.0383,-7.2425,-5.3265,-7.0957,5.8435,0.6261
1135,-0.0383,-7.2809,-5.3265,-7.2348,5.6348,0.487
1140,-0.0383,-7.3958,-5.1732,-7.4435,5.5652,0.6261
1145,0.0,-7.3958,-5.2499,-7.3043,5.6348,0.5565
1150,0.0,-7.5108,-5.2499,-7.2348,5.7043,0.4174
1155,0.0383,-7.5491,-5.2116,-7.1652,5.9826,0.487
1160,0.0383,-7.5491,-5.0583,-7.1652,6.2609,0.3478
1165,0.115,-7.7024,-5.1349,-7.2348,6.4696,0.3478
1170,0.0766,-7.6641,-5.02,-7.1652,6.6087,0.1391
1175,0.1916,-7.6641,-5.1732,-7.0261,6.6783,0.2087
1180,0.0766,-7.7407,-5.1732,-6.8174,6.7478,0.0696
1185,0.1916,-7.894,-4.9433,-6.5391,6.7478,0.0
1190,0.2682,-7.9706,-5.0583,-6.2609,6.6783,-0.1391
1195,0.1533,-7.7407,-5.0583,-5.8435,6.4696,-0.3478
1200,0.3066,-7.9323,-5.02,-5.3565,6.1217,-0.487
1205,0.2682,-7.9323,-5.0583,-4.7304,5.6348,-0.6957
1210,0.2682,-7.9706,-4.905,-4.1043,5.287,-0.9739
1215,0.2299,-7.894,-4.7517,-3.4087,4.8,-1.1826
1220,0.3832,-7.894,-4.7517,-2.8522,4.3826,-1.5304
1225,0.2299,-7.8173,-5.02,-2.3652,3.687,-1.7391
1230,0.1916,-7.7024,-4.9816,-2.087,3.2,-1.9478
1235,0.115,-7.7407,-5.0583,-1.9478,2.713,-2.0174
1240,0.0766,-7.6257,-5.0966,-1.8783,2.3652,-2.2261
1245,0.1533,-7.5874,-5.02,-1.8783,1.9478,-2.1565
1250,0.2299,-7.5108,-5.0583,-2.0174,1.7391,-2.2261
1255,0.1916,-7.5108,-5.1349,-2.0174,1.4609,-1.9478
1260,0.1916,-7.5874,-5.02,-1.8783,1.3913,-1.8783
1265,0.2682,-7.5491,-4.9816,-1.9478,1.4609,-1.6
1270,0.2299,-7.6641,-4.8667,-2.0174,1.6,-1.4609
1275,0.3449,-7.6641,-5.0966,-2.2261,1.8783,-1.3217
1280,0.3449,-7.7024,-5.0966,-2.8522,2.2957,-1.3913
1285,0.3066,-7.779,-5.1349,-3.8957,2.7826,-1.5304
1290,0.2299,-7.8557,-5.1732,-5.1478,3.4087,-1.8087
1295,0.4598,-7.9706,-4.9816,-6.4,3.8957,-2.087
1300,0.4215,-7.9706,-5.1732,-7.7913,4.4522,-2.6435
1305,0.4598,-8.1239,-5.02,-8.9043,5.0087,-3.1304
1310,0.3066,-8.2389,-4.79,-9.6696,5.3565,-3.9652
1315,0.3449,-8.3538,-4.905,-9.8087,5.4261,-4.5217
1320,0.4982,-8.5838,-4.905,-9.3217,5.287,-5.0783
1325,0.2682,-8.6987,-4.9816,-8.3478,4.8696,-5.287
1330,0.3066,-8.6987,-4.8667,-7.0957,4.3826,-5.7739
1335,0.3832,-8.9286,-4.79,-5.8435,3.687,-5.7739
1340,0.4982,-9.0819,-4.9433,-4.4522,3.1304,-5.7739
1345,0.2682,-9.1202,-4.905,-3.1304,2.8522,-5.8435
1350,0.5748,-9.1586,-4.8667,-1.8783,2.713,-5.8435
1355,0.4215,-9.1969,-5.02,-0.6261,2.9217,-5.5652
1360,0.4598,-9.2352,-4.9816,0.9739,3.1304,-5.4957
1365,0.5748,-9.2735,-4.905,2.6435,3.3391,-5.2174
1370,0.5748,-9.2735,-4.9433,5.2174,3.4783,-5.0087
1375,0.4982,-9.1586,-4.905,7.4435,3.4783,-4.6609
1380,0.4598,-9.1969,-4.9816,9.8087,3.3391,-4.4522
1385,0.4598,-9.1202,-4.9433,12.1043,3.1304,-4.1043
1390,0.4215,-9.0053,-4.9816,14.1913,2.9217,-3.8261
1395,0.2682,-8.8903,-4.9433,15.8609,3.0609,-3.3391
1400,0.3449,-8.8137,-5.02,17.3913,3.1304,-3.1304
1405,0.2682,-8.5838,-5.0583,18.5739,3.5478,-2.6435
1410,0.1916,-8.5454,-5.0966,19.4783,4.1043,-2.4348
1415,0.1916,-8.3155,-5.0583,20.2435,4.5913,-2.087
1420,0.1533,-8.2772,-5.1349,20.6609,4.8696,-2.0174
1425,0.1533,-8.2389,-5.02,20.7304,4.8696,-1.7391
1430,0.2299,-8.1239,-5.0583,20.313,4.8,-1.6
1435,0.115,-8.0856,-5.0583,19.4783,4.4522,-1.4609
1440,0.1533,-8.0089,-4.9433,18.5739,4.3826,-1.4609
1445,0.0,-7.9323,-4.905,17.5304,4.1739,-1.3217
1450,0.0,-7.9706,-4.8284,16.487,3.7565,-1.2522
1455,0.0766,-8.0089,-4.8667,15.513,3.4783,-1.2522
1460,0.0,-7.9706,-4.5218,14.7478,3.1304,-1.3217
1465,0.0383,-8.0856,-4.8284,14.1913,2.713,-1.2522
1470,0.115,-8.1622,-4.6751,13.9826,2.5739,-1.4609
1475,0.115,-8.2005,-4.4835,14.1913,2.6435,-1.4609
1480,0.0766,-8.2005,-4.5601,14.7478,2.8522,-1.6
1485,0.2682,-8.3155,-4.5984,15.6522,3.5478,-1.6696
1490,0.2299,-8.2772,-4.4835,17.113,3.9652,-1.7391
1495,0.2682,-8.2005,-4.5218,18.4348,4.4522,-1.8087
1500,0.2299,-8.0473,-4.4835,19.9652,5.0087,-2.087
1505,0.2299,-8.2005,-4.4068,21.4261,5.5652,-2.2957
1510,0.3449,-7.894,-4.4835,22.887,6.1217,-2.6435
1515,0.3832,-7.894,-4.6368,24.1391,6.4,-2.9913
1520,0.3066,-7.7024,-4.6751,25.113,6.6087,-3.4087
1525,0.3449,-7.5874,-4.5984,25.8783,6.9565,-3.6174
1530,0.3066,-7.4725,-4.6368,26.2261,7.1652,-3.9652
1535,0.3449,-7.5108,-4.6751,26.1565,7.3043,-4.0348
1540,0.3066,-7.4725,-4.5601,26.0174,7.2348,-4.3826
1545,0.4598,-7.3575,-4.5984,25.6696,7.1652,-4.313
1550,0.3066,-7.3958,-4.5218,25.2522,6.9565,-4.4522
1555,0.3832,-7.2425,-4.4835,24.9739,6.6783,-4.3826
1560,0.4982,-7.3575,-4.5984,24.7652,6.6087,-4.5913
1565,0.5365,-7.3958,-4.3685,24.6957,6.5391,-4.7304
1570,0.5365,-7.3958,-4.3302,24.8348,6.6087,-4.8696
1575,0.6131,-7.3192,-4.3302,25.0435,6.9565,-5.0783
1580,0.6131,-7.4341,-4.3302,25.5304,7.513,-5.4261
1585,0.5748,-7.4725,-4.2536,25.9478,8.4174,-5.7739
1590,0.7281,-7.5874,-4.1386,26.4348,9.1826,-6.3304
1595,0.6514,-7.6257,-4.2152,27.2696,9.9478,-6.7478
1600,0.5365,-7.7024,-4.1003,28.1739,10.3652,-7.3739
1605,0.6131,-8.0473,-3.9853,29.4957,10.5043,-7.8609
1610,0.6514,-7.9323,-4.062,30.6783,10.0174,-8.2783
1615,0.6514,-7.9706,-3.8704,32.0696,9.1826,-8.7652
1620,0.6514,-8.3538,-3.7554,33.4609,8.1391,-9.1826
1625,0.6898,-8.6221,-3.7171,35.0609,6.887,-9.3913
1630,0.6131,-8.5454,-3.8704,36.7304,5.7043,-9.7391
1635,0.6131,-8.5838,-3.9853,38.6087,4.8696,-9.9478
1640,0.7664,-8.737,-3.7937,40.6957,4.4522,-10.087
1645,0.8814,-8.737,-3.7554,43.2,4.5217,-10.0174
1650,0.958,-8.6987,-3.7937,45.7043,4.9391,-10.087
1655,0.9963,-8.7754,-3.8704,48.3478,5.9826,-9.8087
1660,1.073,-8.9286,-3.832,50.9913,7.6522,-9.7391
1665,1.073,-9.0053,-3.7554,54.0522,9.0435,-9.6
1670,1.2263,-9.0819,-3.832,56.4174,10.4348,-9.4609
1675,1.2646,-9.0819,-3.832,58.3652,11.7565,-9.1826
1680,1.2263,-9.1969,-3.7171,60.4522,12.7304,-9.1826
1685,1.3412,-9.3118,-3.6787,62.2609,13.3565,-8.9739
1690,1.2263,-9.3502,-3.6021,64.3478,13.6348,-9.0435
1695,1.1113,-9.4268,-3.4871,66.6435,13.7043,-9.113
1700,1.3029,-9.695,-3.4488,69.0783,13.4957,-9.2522
1705,1.2646,-9.7717,-3.4105,72.0,13.1478,-9.1826
1710,1.2263,-9.8866,-3.3339,75.1304,13.1478,-9.4609
1715,1.1879,-9.925,-3.2189,78.4696,13.7043,-9.3913
1720,1.1879,-10.0782,-3.0656,82.8522,15.0261,-9.7391
1725,1.2263,-10.1932,-2.989,86.6783,16.3478,-10.087
1730,1.0346,-10.4998,-2.7207,90.713,17.6696,-10.5043
1735,0.9963,-10.7297,-2.4908,95.0957,18.713,-10.7826
1740,0.843,-11.0746,-2.1459,99.6174,19.2,-11.1304
1745,0.6898,-11.4195,-1.6861,104.487,19.4087,-11.2696
1750,0.5748,-11.7643,-1.1496,110.0522,19.3391,-11.3391
1755,0.3832,-12.1859,-0.3449,116.7304,19.4087,-11.0609
1760,0.6131,-12.799,0.6514,125.9826,19.7565,-10.5043
1765,0.4598,-13.5654,1.8011,139.2,20.1043,-9.5304
1770,0.3449,-14.4468,3.1423,157.8435,20.5217,-8.487
1775,0.0383,-15.2898,4.5984,182.3304,20.7304,-7.0957
1780,-0.2299,-16.1329,5.5948,221.0087,19.2696,-5.5652
1785,-0.4215,-17.3974,6.9743,261.0783,16.4174,-3.9652
1790,-0.6131,-19.62,6.4378,303.2348,12.5217,-1.5304
1795,-0.6898,-23.3754,2.4525,330.5739,6.887,3.1304
1800,-0.6131,-26.3644,0.6898,329.9478,0.4174,8.6957
1805,-0.3449,-26.5177,-0.6131,321.7391,-2.9217,15.5826
1810,-0.2299,-24.3334,-3.947,318.5391,-6.0522,21.0783
1815,0.0,-19.8882,-8.737,312.0696,-13.2174,23.513
1820,0.2299,-15.9413,-12.0709,293.5652,-20.9391,24.6261
1825,0.9197,-10.4231,-14.9449,260.3826,-23.7913,25.4609
1830,1.4179,-5.978,-15.5197,217.7391,-20.6609,24.2087
1835,1.9543,-2.989,-14.6767,169.0435,-10.7826,19.6174
1840,1.3029,-2.031,-11.9176,103.7217,0.4174,14.9565
1845,0.4215,-3.1806,-8.5454,45.5652,12.8696,11.687
1850,-0.3449,-4.1769,-4.5601,-15.9304,22.4696,6.8174
1855,-0.3832,-5.5948,-0.7281,-77.913,26.9217,1.9478
1860,0.0766,-7.1276,2.4908,-133.6348,28.1043,-0.5565
1865,0.3449,-8.1239,4.2536,-178.0174,26.2261,-1.7391
1870,0.6514,-9.695,5.4415,-208.7652,22.4696,-3.6174
1875,0.843,-10.6914,5.7864,-226.9913,18.2261,-5.7043
1880,1.073,-11.5344,5.7864,-234.1565,14.7478,-7.7913
1885,1.6095,-11.9559,5.3265,-230.9565,12.313,-9.3913
1890,1.6861,-12.2625,5.0583,-217.3913,10.3652,-11.1304
1895,1.8394,-12.2242,4.905,-187.6174,8.9043,-10.8522
1900,2.1459,-12.0326,4.4835,-152.5565,8.5565,-10.2957
1905,2.2226,-11.841,4.3685,-110.0522,9.6,-10.1565
1910,1.916,-11.2662,3.9853,-62.4,11.6174,-9.6
1915,1.7627,-10.883,3.5255,-12.3826,13.5652,-8.0696
1920,1.2646,-10.0399,3.0273,36.2435,14.6783,-6.2609
1925,0.8047,-9.0053,2.1843,79.4435,14.3304,-4.2435
1930,0.7281,-8.2389,1.6095,113.3913,13.0087,-1.6
1935,0.8047,-7.5108,0.8814,135.6522,11.2,1.0435
1940,0.6898,-6.821,0.5365,145.2522,9.3913,3.0609
1945,0.6514,-6.4378,0.4598,142.887,7.7913,4.8
1950,0.4982,-6.1313,0.4598,130.087,6.6087,6.1913
1955,0.3066,-5.978,0.4598,105.0435,6.4696,6.8174
1960,0.115,-6.1696,0.6898,79.7913,7.3043,7.0957
1965,0.0,-6.5145,0.958,53.913,8.7652,7.513
1970,0.0,-7.0893,1.3412,29.913,10.5043,8.1391
1975,0.115,-7.779,1.5711,9.0435,11.9652,9.113
1980,0.115,-8.4305,1.916,-7.7913,12.8,10.1565
1985,0.115,-9.0436,2.4142,-20.4522,12.5913,11.1304
1990,0.1533,-9.6184,2.6441,-29.1478,11.2,12.0348
1995,0.3066,-10.1166,2.7591,-34.0174,8.3478,13.0087
2000,0.3449,-10.5381,2.8357,-35.7565,4.7304,13.7739
2005,0.4215,-10.8446,2.6058,-34.8522,0.8348,14.4
2010,0.3832,-10.8446,2.3375,-32.0,-3.8957,14.6087
2015,0.5748,-10.9979,2.1076,-26.9217,-7.3739,14.2609
2020,0.6514,-11.0363,1.4562,-21.913,-10.6435,13.6348
2025,0.7281,-10.9596,1.1113,-16.7652,-13.2174,12.7304
2030,0.843,-10.883,0.7281,-11.8957,-14.9565,11.4087
2035,0.958,-10.768,0.5365,-7.1652,-15.7217,10.087
2040,0.9963,-10.5381,0.1533,-3.1304,-15.513,8.6957
2045,1.3795,-10.3465,0.1533,0.4174,-14.6783,7.0261
2050,1.1113,-10.2698,-0.3066,3.3391,-13.4261,5.287
2055,1.2263,-10.0399,-0.5365,5.7043,-11.7565,3.6174
2060,1.3795,-9.9633,-0.4598,7.3739,-10.0174,1.8783
2065,1.1113,-9.695,-0.5748,8.7652,-8.0696,0.2087
2070,1.1879,-9.5034,-0.4598,9.9478,-5.4957,-1.3913
2075,1.1113,-9.4268,-0.4215,10.9217,-3.4087,-2.4348
2080,1.1496,-9.1969,-0.3066,11.2696,-1.5304,-3.4087
2085,1.0346,-9.1202,-0.1533,11.2,0.0696,-3.9652
2090,0.9197,-8.967,0.0766,10.6435,1.6,-3.8261
2095,0.958,-8.852,0.0766,9.6696,2.5739,-3.5478
2100,0.7664,-8.6987,0.4215,8.2087,3.5478,-3.687
2105,0.7281,-8.737,0.5365,6.6087,4.3826,-3.2
2110,0.7664,-8.8903,0.6514,5.0783,5.0783,-2.6435
2115,0.6131,-8.8137,0.7664,3.8261,5.0783,-2.087
2120,0.6514,-8.8137,0.8814,2.9217,4.9391,-1.1826
2125,0.6131,-9.0053,0.843,2.4348,4.8,0.3478
2130,0.6514,-9.1969,0.8047,2.087,3.9652,1.6
2135,0.7664,-9.2735,0.843,2.0174,3.4783,2.713
2140,0.8047,-9.2352,0.7281,2.087,2.9217,3.7565
2145,0.6898,-9.3885,0.5748,1.9478,2.9913,4.5913
2150,0.7664,-9.3885,0.6131,1.5304,3.4783,5.0783
2155,0.3449,-9.2352,0.6514,1.0435,4.2435,5.0087
2160,0.4982,-9.3885,0.4215,0.6957,5.3565,5.7043
2165,0.5365,-9.4651,0.3832,0.2783,6.3304,6.1913
2170,0.4598,-9.5418,0.4598,-0.2783,6.5391,6.4
2175,0.5365,-9.5034,0.3449,-0.9043,6.6087,6.5391
2180,0.3832,-9.4651,0.2299,-1.7391,6.4696,6.4696
2185,0.115,-9.6567,0.0383,-2.713,5.9826,5.3565
2190,-0.0383,-9.6184,-0.0766,-3.8957,5.7739,5.4261
2195,-0.115,-9.7717,-0.115,-4.5217,5.4261,5.1478
2200,0.0766,-9.8483,-0.1533,-4.9391,4.6609,4.5217
2205,0.2299,-10.0782,-0.2682,-4.9391,3.8957,3.687
2210,-0.115,-10.0399,-0.0766,-4.7304,3.0609,2.4348
2215,-0.0766,-10.0016,-0.0383,-3.4783,2.5043,2.1565
2220,0.0,-10.1549,-0.0383,-1.7391,2.2261,1.3913
2225,0.1916,-10.3082,0.0,0.487,1.9478,0.8348
2230,0.1916,-10.3082,0.2682,3.3391,1.8783,0.4174
2235,0.3449,-10.3848,0.3449,6.7478,1.8783,0.0
2240,0.3449,-10.2698,0.3066,10.1565,2.2957,-0.1391
2245,0.4598,-10.2698,0.5365,13.5652,3.1304,-0.0696
2250,0.4982,-10.1549,0.4982,17.3913,4.4522,0.0696
2255,0.6514,-10.0399,0.5365,20.2435,5.8435,0.2783
2260,0.4215,-9.9633,0.5748,22.887,7.2348,0.4174
2265,0.6131,-9.8483,0.4982,24.9739,8.3478,0.487
2270,0.7281,-9.695,0.4215,26.2957,9.1826,0.487
2275,0.7281,-9.5801,0.2682,27.0609,9.5304,0.4174
2280,0.6898,-9.3885,0.3066,26.9217,9.3913,0.4174
2285,0.6131,-9.2735,0.0,25.9478,8.9739,0.3478
2290,0.6898,-9.2352,0.115,24.0696,8.3478,0.2783
2295,0.6131,-9.1969,0.0,21.1478,7.5826,0.2783
2300,0.5748,-8.967,-0.1533,17.8783,6.8174,0.2087
2305,0.5365,-9.0436,-0.1916,14.2609,6.3304,-0.1391
2310,0.5365,-8.967,0.115,9.5304,6.1217,-0.2783
2315,0.4215,-8.967,0.0,5.6348,5.913,-0.487
2320,0.3066,-9.1586,0.0766,1.8783,5.8435,-0.5565
2325,0.2299,-9.1969,0.115,-1.4609,5.7043,-0.6261
2330,0.115,-9.2352,0.2682,-4.2435,5.5652,-0.6261
2335,0.0,-9.2735,0.1916,-6.5391,5.287,-0.487
2340,-0.0383,-9.5418,0.2682,-8.2783,5.0087,-0.4174
2345,-0.0383,-9.5034,0.2682,-9.3913,4.8696,-0.3478
2350,0.0766,-9.7334,0.2682,-9.9478,4.9391,-0.2783
2355,0.0,-9.8866,0.3066,-9.8783,5.0087,-0.1391
2360,0.0766,-9.925,0.4598,-9.5304,5.3565,0.0
2365,0.115,-9.9633,0.4982,-8.487,5.913,0.1391
2370,0.115,-9.81,0.4982,-7.3043,6.6087,0.2087
2375,0.1533,-10.0016,0.3449,-5.913,7.0957,0.0696
2380,0.3066,-10.0016,0.4982,-4.2435,7.7217,0.1391
2385,0.1533,-9.9633,0.4598,-2.5739,8.0,0.0696
2390,0.3066,-9.9633,0.2682,-0.7652,8.2783,-0.0696
2395,0.3449,-10.0399,0.3449,0.9043,7.8609,-0.2087
2400,0.3449,-9.9633,0.4598,2.2261,7.4435,-0.4174
2405,0.3449,-9.925,0.3066,3.4783,6.7478,-0.4174
2410,0.3832,-10.0016,0.1916,4.313,6.1217,-0.4174
2415,0.4215,-9.925,0.1533,4.5913,5.287,-0.4174
2420,0.4215,-9.81,0.2682,4.7304,4.6609,-0.5565
2425,0.4215,-9.7717,0.1916,4.2435,3.8957,-0.6261
2430,0.4982,-9.81,0.2682,3.5478,3.6174,-0.8348
2435,0.5365,-9.7717,0.0766,2.5043,3.3391,-1.0435
2440,0.5365,-9.5801,0.2682,1.3913,3.2696,-1.1826
2445,0.5365,-9.695,0.2299,0.3478,3.2,-1.4609
2450,0.4215,-9.5801,0.3449,-0.487,3.2696,-1.6696
2455,0.3449,-9.5418,0.1916,-1.3913,3.2,-1.8783
2460,0.4215,-9.695,0.2682,-2.0174,3.2,-2.087
2465,0.4982,-9.695,0.3449,-2.5043,3.2696,-2.2261
2470,0.3449,-9.6567,0.4598,-2.6435,3.4783,-2.5043
2475,0.3066,-9.695,0.5365,-2.8522,3.6174,-2.6435
2480,0.4598,-9.81,0.4598,-2.713,3.687,-2.713
2485,0.3832,-9.7334,0.2682,-2.6435,3.6174,-2.7826
2490,0.2299,-9.695,0.4598,-2.3652,3.5478,-2.713
2495,0.3066,-9.695,0.4598,-2.2261,3.4087,-2.5739
2500,0.4215,-9.695,0.4982,-2.0174,3.2,-2.2957
2505,0.3449,-9.7717,0.4598,-1.9478,2.9217,-2.087
2510,0.4598,-9.81,0.4215,-1.7391,2.8522,-1.7391
2515,0.4215,-9.8483,0.4215,-1.4609,2.6435,-1.4609
2520,0.3449,-9.81,0.4598,-1.2522,2.7826,-1.1826
2525,0.4598,-9.8866,0.3066,-0.7652,2.6435,-0.9043
2530,0.5365,-9.8483,0.4215,-0.2783,2.5739,-0.6957
2535,0.5748,-9.8866,0.4215,0.2783,2.4348,-0.4174
2540,0.4982,-9.81,0.3449,0.8348,2.2957,-0.1391
2545,0.5365,-9.8483,0.2299,1.4609,2.1565,0.0
2550,0.5365,-9.925,0.4598,1.9478,1.9478,0.2087
2555,0.4982,-9.8866,0.3066,2.4348,1.5304,0.2783
2560,0.5748,-9.8866,0.3449,3.0609,1.2522,0.3478
2565,0.4982,-9.81,0.2299,3.6174,0.9739,0.2087
2570,0.4982,-9.7717,0.3832,4.2435,0.9739,0.1391
2575,0.6131,-9.7717,0.1916,4.6609,0.9043,0.0
2580,0.5365,-9.695,0.1916,5.0783,1.0435,-0.1391
2585,0.6131,-9.81,0.2299,5.2174,1.3217,-0.3478
2590,0.5365,-9.7717,0.1916,5.0783,1.6696,-0.487
2595,0.5748,-9.7334,0.0766,4.7304,2.0174,-0.8348
2600,0.5748,-9.7717,0.1916,4.1739,2.4348,-1.0435
2605,0.5748,-9.6184,0.1916,3.3391,2.6435,-1.3913
2610,0.6131,-9.695,0.115,2.6435,2.8522,-1.6
2615,0.5365,-9.695,0.115,1.7391,2.7826,-1.8087
2620,0.6514,-9.7334,0.3066,0.9739,2.9217,-1.8783
2625,0.5748,-9.695,0.1916,0.0696,2.7826,-2.0174
2630,0.6131,-9.6567,0.4215,-0.487,2.6435,-2.0174
2635,0.6131,-9.7717,0.3449,-0.8348,2.6435,-2.0174
2640,0.5748,-9.695,0.4598,-0.9739,2.7826,-1.8783
2645,0.4982,-9.695,0.4598,-1.0435,2.9217,-1.6696
2650,0.4598,-9.7334,0.3832,-0.8348,3.1304,-1.6
2655,0.5748,-9.7717,0.3832,-0.487,3.4087,-1.3217
2660,0.4982,-9.695,0.4982,0.1391,3.6174,-1.113
2665,0.5365,-9.7717,0.4215,0.5565,3.687,-0.9739
2670,0.4982,-9.7334,0.3449,0.9739,3.8261,-0.7652
2675,0.4598,-9.7334,0.2682,1.4609,3.8261,-0.6957
2680,0.4215,-9.695,0.2682,1.6696,3.7565,-0.487
2685,0.5365,-9.7717,0.3449,1.7391,3.5478,-0.2783
2690,0.4215,-9.695,0.1916,1.6,3.2,-0.2783
2695,0.6898,-9.81,0.1916,1.3913,2.7826,-0.1391
2700,0.4598,-9.81,0.3066,0.9739,2.5043,-0.1391
2705,0.4982,-9.7717,0.1916,0.6261,2.2261,0.0
2710,0.4982,-9.7717,0.2299,0.2783,2.0174,0.0
2715,0.4215,-9.81,0.3832,-0.0696,2.087,-0.0696
2720,0.4598,-9.81,0.3449,-0.2087,2.2261,0.0
2725,0.4598,-9.81,0.3066,-0.0696,2.5739,-0.2087
2730,0.4598,-9.81,0.3832,0.2087,3.0609,-0.2783
2735,0.4598,-9.925,0.4215,0.5565,3.5478,-0.487
2740,0.4982,-9.7717,0.4598,1.1826,3.9652,-0.6957
2745,0.5365,-9.8483,0.4598,1.8087,4.3826,-0.7652
2750,0.6131,-9.8866,0.4598,2.5739,4.7304,-0.9043
2755,0.5748,-9.8483,0.4982,3.3391,5.0783,-1.0435
2760,0.6514,-9.8866,0.4215,4.0348,5.2174,-1.2522
2765,0.5748,-9.7334,0.4598,4.7304,5.3565,-1.2522
2770,0.6514,-9.6567,0.4598,5.0087,5.4261,-1.2522
2775,0.5365,-9.7717,0.4215,5.287,5.2174,-1.3217
2780,0.6514,-9.7717,0.4598,5.2174,5.0783,-1.2522
2785,0.6131,-9.695,0.4598,4.8696,4.6609,-1.3217
2790,0.6514,-9.6567,0.3832,4.2435,4.2435,-1.113
2795,0.5365,-9.6567,0.1916,3.2696,3.9652,-1.0435
2800,0.5748,-9.5034,0.1916,2.1565,3.687,-0.7652
2805,0.5365,-9.5034,0.0766,0.8348,3.5478,-0.6261
2810,0.6898,-9.7717,0.2682,-0.4174,3.4783,-0.487
2815,0.6131,-9.5801,0.2682,-1.8087,3.5478,-0.4174
2820,0.5748,-9.6567,0.4598,-2.8522,3.687,-0.3478
2825,0.5365,-9.7334,0.4598,-3.687,3.7565,-0.1391
2830,0.6131,-9.695,0.4598,-4.313,3.9652,-0.1391
2835,0.4982,-9.5801,0.4598,-4.7304,4.0348,-0.2087
2840,0.5365,-9.7334,0.4215,-4.7304,4.2435,-0.2087
2845,0.5365,-9.7717,0.4215,-4.4522,4.4522,-0.3478
2850,0.4982,-9.7717,0.4598,-4.1043,4.7304,-0.3478
2855,0.5365,-9.81,0.3832,-3.4783,4.6609,-0.4174
2860,0.4982,-9.7717,0.4598,-2.713,4.6609,-0.4174
2865,0.5365,-9.8483,0.4215,-2.0174,4.6609,-0.4174
2870,0.5365,-9.8483,0.4982,-1.2522,4.8,-0.4174
2875,0.4598,-9.8483,0.3832,-0.6957,4.8696,-0.4174
2880,0.5365,-9.8866,0.4598,-0.2783,4.6609,-0.3478
2885,0.4982,-9.8483,0.4215,0.2087,4.5217,-0.4174
2890,0.4982,-9.81,0.6131,0.6957,4.3826,-0.2783
2895,0.4215,-9.8483,0.4982,1.2522,4.313,-0.4174
2900,0.4982,-9.7717,0.4982,1.6696,4.1739,-0.2783
2905,0.6131,-9.8866,0.4598,1.9478,4.1739,-0.3478
2910,0.4598,-9.5418,0.5365,2.0174,4.1043,-0.4174
2915,0.4598,-9.7717,0.4215,2.2261,3.9652,-0.4174
2920,0.5748,-9.7717,0.4598,2.3652,4.0348,-0.4174
2925,0.5365,-9.7334,0.4982,2.1565,4.1043,-0.4174
2930,0.5365,-9.6567,0.4598,1.7391,4.313,-0.2783
2935,0.5748,-9.695,0.4598,1.1826,4.4522,-0.2783
2940,0.6131,-9.6567,0.4598,0.5565,4.3826,-0.2087
2945,0.5748,-9.6184,0.4598,-0.3478,4.313,-0.1391
2950,0.5748,-9.6567,0.3066,-1.113,4.313,-0.0696
2955,0.6514,-9.6184,0.3449,-2.0174,4.5217,-0.1391
2960,0.5748,-9.5801,0.3832,-2.7826,4.5913,0.0
2965,0.5748,-9.6567,0.4215,-3.4087,4.8,0.0
2970,0.5748,-9.695,0.4598,-3.7565,4.8696,0.0
2975,0.4982,-9.695,0.3832,-4.0348,4.7304,-0.0696
2980,0.6131,-9.695,0.4598,-4.1043,4.6609,-0.0696
2985,0.6131,-9.8483,0.5365,-3.8261,4.5913,-0.1391
2990,0.5365,-9.7334,0.4598,-3.2,4.313,-0.2783
2995,0.4598,-9.7334,0.5365,-2.5043,4.313,-0.2783
