timestamp,accX,accY,accZ,gyroX,gyroY,gyroZ
0,2.4908,-10.5381,-0.0766,-75.5478,-29.2174,-5.5652
5,3.3339,-14.1402,3.9853,-58.4348,-36.8696,-4.7304
10,2.7974,-16.4011,1.0346,-34.2957,-51.4087,-4.1739
15,0.8047,-15.4814,-9.1202,-33.6,-57.7391,-1.3913
20,-1.6478,-14.6767,-19.0069,-96.6957,-35.9652,4.0348
25,-2.4908,-20.1948,-11.6494,-190.887,7.8609,4.7304
30,-2.3375,-26.0961,2.6441,-233.5304,38.9565,-14.0522
35,-2.4525,-32.0358,14.9449,-185.7391,31.2348,-32.487
40,-2.4908,-36.4809,20.5397,-102.5391,1.9478,-36.7304
45,-2.9507,-39.8531,17.2441,-14.3304,-26.9913,-29.4957
50,-3.6404,-39.9298,7.7024,43.1304,-45.2174,-22.1913
55,-3.2189,-32.0741,4.4068,52.313,-46.9565,-21.4261
60,-1.6861,-25.9429,-1.4179,65.7391,-35.4783,-25.1826
65,-3.1423,-21.536,-5.2116,86.6087,-21.8435,-25.0435
70,-4.2152,-17.9722,-5.3265,107.5478,-13.2174,-17.4609
75,-3.8704,-15.1365,-3.7937,128.2087,-16.7652,-5.7739
80,-1.8777,-12.2625,-1.7244,144.5565,-30.887,7.7217
85,0.7664,-10.1166,0.3832,155.0609,-49.3913,14.6783
90,2.989,-7.6257,2.6058,153.2522,-55.3739,16.6261
95,3.7171,-6.7444,3.2572,140.5913,-52.5217,16.5565
100,3.6404,-5.9013,3.4488,115.1304,-49.3913,17.1826
105,3.1806,-6.7444,3.4488,80.7652,-54.0522,19.7565
110,3.1039,-8.5071,3.3722,41.8783,-63.6522,20.4522
115,3.947,-10.6147,2.4908,8.2087,-68.313,16.9043
120,4.4835,-12.1475,1.0346,-13.2174,-58.3652,8.8348
125,4.4452,-13.4888,-0.0766,-17.8783,-33.7391,-0.6261
130,3.7171,-14.2168,-1.1113,-10.0174,4.5913,-12.1043
135,2.5675,-14.6767,-1.4945,4.5217,31.513,-17.6
140,1.5711,-14.1019,-0.9963,18.3652,47.3043,-17.7391
145,0.7664,-13.1439,-1.1496,35.4783,52.5217,-13.0783
150,-0.0383,-11.726,-1.916,51.3391,51.6174,-7.0957
155,-0.0383,-12.1859,-3.1806,57.6696,49.113,-2.6435
160,-0.4598,-9.3502,-3.7171,49.9478,46.2609,-2.7826
165,-0.5748,-7.2425,-4.7134,46.4696,45.0783,-1.113
170,-0.4598,-6.3995,-5.748,48.5565,46.5391,4.8696
175,-0.1916,-4.7517,-6.3612,47.7913,49.8087,10.7826
180,0.3449,-3.2572,-5.9013,45.2174,55.0957,12.7304
185,0.4215,-2.3759,-5.3648,42.1565,58.5739,10.713
190,0.8047,-1.2263,-3.9853,36.4522,61.0783,6.3304
195,0.3832,-0.5365,-3.4488,29.7739,62.0522,2.5739
200,0.1533,0.2299,-2.3759,22.1913,62.6783,0.8348
205,-0.2299,0.4215,-1.9927,13.8435,61.7739,1.0435
210,-0.4598,0.3832,-1.6861,5.0087,58.713,0.8348
215,-1.073,0.3832,-1.8011,-3.2696,53.7739,-0.1391
220,-1.3412,0.1533,-2.2609,-10.1565,48.4174,-1.6
225,-0.2682,-0.4215,-2.4525,-18.2957,43.687,-1.113
230,1.073,-1.7627,-2.5291,-27.3391,38.4696,-1.1826
235,1.6095,-2.989,-2.3375,-39.8609,37.8435,-0.9739
240,2.1459,-4.4452,-1.6478,-46.3304,42.0174,-0.6957
245,2.1843,-5.3265,-1.1879,-48.2087,47.7913,-2.0174
250,1.9543,-6.2845,-0.5365,-46.6783,51.4783,-4.6609
255,0.4215,-7.2425,-0.0383,-43.2,51.7565,-5.5652
260,-1.3412,-8.2772,0.6131,-40.0696,49.5304,-3.1304
265,-2.6824,-10.1166,1.6478,-39.3739,44.5217,1.8783
270,-2.4142,-11.9176,-0.3066,-44.8696,35.8957,6.8174
275,0.3449,-13.2205,-6.2845,-71.2348,20.313,10.4348
280,4.4835,-14.8683,-11.7643,-150.1217,-13.5652,12.3826
285,6.936,-17.6657,-11.3811,-231.5826,-44.1043,19.1304
290,7.3192,-21.7276,-6.1696,-273.2522,-51.0609,37.913
295,6.0929,-27.2074,-0.0383,-250.8522,-16.0,70.6783
300,5.3648,-30.503,5.3648,-175.1652,45.913,97.0435
305,6.3995,-33.1854,8.2005,-73.113,92.5217,96.7652
310,7.1659,-35.1014,6.8593,12.8696,99.6174,67.687
315,3.8704,-30.5796,4.905,49.1826,77.8435,28.6609
320,2.6824,-25.0998,1.8011,60.9391,62.1217,8.487
325,2.874,-22.7623,-0.0383,81.6696,67.3391,11.4087
330,1.8011,-19.62,-0.6898,107.5478,79.513,3.9652
335,0.958,-16.9376,-0.1916,126.9565,87.3739,-8.2087
340,0.3449,-14.3318,0.0766,139.0609,91.5478,-16.4174
345,0.0766,-12.0709,-0.2682,139.6174,94.7478,-19.5478
350,-0.3449,-9.8866,-0.9963,127.3739,98.6435,-21.3565
355,-0.9197,-8.1239,-1.4945,104.9043,103.4435,-22.887
360,-1.3029,-7.5874,-2.3759,75.687,107.7565,-23.8609
365,-2.6824,-7.0893,-2.4142,44.6609,107.9652,-22.1913
370,-3.1423,-7.3958,-2.0693,19.2,100.0348,-17.8087
375,-3.4871,-8.1239,-1.2263,4.313,82.713,-11.9652
380,-3.3722,-9.1586,-0.4215,1.6696,53.0783,-8.3478
385,-3.2189,-9.0436,0.115,7.4435,26.2957,-4.4522
390,-2.6441,-8.852,0.2299,20.8,2.1565,1.113
395,-1.7627,-8.6987,-0.4982,36.2435,-19.4087,7.2348
400,-1.1113,-7.7407,-0.8047,49.8087,-37.4957,12.3826
405,-0.7664,-7.1659,-2.0693,62.4696,-50.1565,15.7913
410,-0.7281,-4.9816,-1.4179,73.6,-56.5565,16.2087
415,-1.1879,-3.4105,-1.2646,85.1478,-57.4609,14.7478
420,-1.6095,-1.6861,-0.843,92.313,-55.4435,12.8
425,-1.6478,-0.3449,-0.843,91.6174,-51.9652,10.1565
430,-1.916,1.5328,-0.1916,77.4261,-50.7826,5.1478
435,-2.9507,2.031,-0.8814,59.2,-49.5304,1.4609
440,-3.2189,2.6058,-1.3795,34.5043,-46.3304,0.6957
445,-3.4871,2.9123,-1.9927,5.5652,-41.2522,3.0609
450,-3.4871,3.2955,-2.4525,-22.9565,-35.4783,6.7478
455,-3.0656,3.5255,-2.3375,-45.3565,-29.8435,11.2
460,-2.6058,3.832,-2.4908,-58.0174,-25.4609,13.3565
465,-1.3029,4.1769,-2.989,-60.6609,-22.6087,13.287
470,0.2299,3.9853,-3.2955,-55.3739,-22.6087,10.0174
475,1.3412,2.7974,-4.0236,-47.513,-28.7304,2.713
480,0.9197,-0.1533,-4.5984,-50.2957,-37.913,-3.3391
485,1.1879,-2.874,-3.1423,-65.3913,-42.2957,-1.7391
490,1.8394,-5.0966,-1.9543,-72.6957,-40.1391,3.4783
495,2.2992,-7.3575,-1.3029,-67.2,-32.0,8.7652
500,2.5291,-9.7334,0.0766,-52.313,-20.3826,11.7565
505,2.5675,-11.2662,1.6095,-31.3043,-9.8783,12.9391
510,2.7974,-13.0289,2.7974,-9.1826,-5.0087,11.4783
515,2.7207,-14.3318,1.8777,8.5565,-5.4261,10.087
520,2.874,-15.3664,1.1879,15.1652,-5.4261,9.0435
525,3.6404,-15.558,-0.115,10.087,2.713,7.7217
530,4.7134,-16.5927,0.0,-5.5652,13.7043,4.7304
535,5.02,-16.8226,-0.0383,-13.913,21.6348,-0.0696
540,4.4068,-17.8956,-0.4982,-15.6522,24.0696,-5.0087
545,3.3339,-19.505,-1.3029,-19.6174,24.9739,-7.2348
550,1.8011,-21.8426,-0.1916,-29.8435,29.5652,-7.3043
555,0.2299,-24.0652,2.2992,-39.7217,39.7913,-9.1826
560,-1.7627,-26.4027,6.5145,-33.9478,50.713,-15.9304
565,-3.2955,-28.9702,9.5801,-6.2609,54.1217,-24.0
570,-5.4032,-29.8132,8.5071,30.4696,46.4,-31.7217
575,-6.8977,-27.1691,7.3192,57.2522,31.5826,-32.3478
580,-4.7134,-22.3791,4.1386,73.3913,22.887,-28.5217
585,-4.5984,-18.8919,0.6514,91.0609,17.0435,-25.6696
590,-5.1732,-16.5161,-0.9197,100.9391,15.2348,-22.2609
595,-5.4798,-14.0636,-2.0693,102.887,14.5391,-16.0
600,-5.4032,-11.8027,-2.3375,97.3217,12.5217,-10.0174
605,-5.1732,-10.2698,-2.2226,87.5826,10.087,-4.9391
610,-4.3685,-9.1586,-1.9927,77.1478,9.2522,-0.6957
615,-3.6021,-8.5454,-1.6861,65.8783,11.2,3.4783
620,-2.8357,-8.5071,-0.6514,53.7043,14.1217,7.9304
625,-1.9927,-8.5454,-0.0383,38.9565,14.7478,12.0348
630,-1.3795,-8.6987,-0.0766,26.2261,11.4087,15.1652
635,-0.4215,-8.737,-0.6131,13.9826,6.4696,16.7652
640,0.5365,-8.7754,-1.6095,3.6174,3.1304,15.2348
645,1.3412,-8.4688,-2.8357,-3.2696,3.4783,11.5478
650,1.8394,-7.894,-3.5255,-5.4261,8.3478,6.2609
655,2.2226,-7.5108,-3.6021,-2.5739,16.0696,1.7391
660,2.4142,-6.5528,-3.4488,5.0087,24.2783,-1.8087
665,2.6441,-5.6331,-2.4142,16.0696,30.4696,-2.9913
670,2.874,-4.9816,-1.916,28.3826,32.1391,-1.8087
675,3.1423,-3.947,-1.5328,38.5391,28.5217,1.1826
680,3.2955,-3.0656,-1.5711,43.2696,23.1652,3.1304
685,3.3339,-1.8011,-1.4945,44.1739,18.9217,3.3391
690,3.3722,-0.958,-1.6478,42.5739,17.6696,1.113
695,3.2189,0.1533,-1.3795,39.513,18.9217,-3.3391
700,2.6441,0.843,-1.5328,34.9913,21.4957,-8.9043
705,2.2609,1.4562,-1.0346,28.2435,24.6957,-13.8435
710,1.3412,1.4945,-1.1113,21.0087,26.8522,-18.0174
715,1.1496,0.6898,-1.8011,10.2261,27.6174,-19.4783
720,1.1879,-0.6898,-1.916,-8.3478,26.087,-19.687
725,0.843,-2.3375,-1.5328,-35.1304,24.2783,-19.687
730,0.3832,-4.062,-1.4562,-54.7478,24.7652,-19.2
735,-0.1916,-5.9396,-1.2646,-72.1391,27.1304,-17.4609
740,-0.3066,-7.894,-1.1879,-88.9739,29.7043,-15.3043
745,-0.1533,-9.3502,-1.3795,-104.9739,28.8,-12.2435
750,0.5748,-11.9176,-1.3795,-119.9304,21.0087,-9.5304
755,1.1496,-14.4468,-1.5328,-129.6696,7.7217,-6.3304
760,1.2646,-16.5161,-1.4179,-131.1304,-4.4522,0.0696
765,1.3029,-19.6583,-2.5291,-123.8957,-10.1565,12.7304
770,0.9197,-20.9612,-4.2536,-111.3043,-8.487,32.2783
775,0.958,-23.2604,-4.8284,-104.2087,-5.2174,47.1652
780,0.843,-25.4447,-3.3722,-102.0522,-4.313,57.113
785,1.4945,-27.3607,-0.6131,-98.9913,-6.0522,61.9826
790,3.2572,-29.6599,3.1423,-88.2783,-10.4348,62.2609
795,5.0966,-31.3077,5.2499,-65.8783,-13.9826,58.5043
800,6.6294,-32.1891,5.4032,-32.0696,-13.0087,49.4609
805,6.8977,-32.4573,4.1769,7.7217,-5.4957,36.3826
810,4.1003,-27.7822,2.6441,43.4087,4.8696,19.1304
815,2.8357,-24.3717,0.8047,83.9652,15.513,4.1043
820,1.9927,-22.3024,-0.1916,131.3391,18.2261,-2.4348
825,1.3795,-19.3518,-1.073,155.8957,15.4435,-8.5565
830,0.1533,-16.1329,-1.4945,163.3391,14.6783,-17.9478
835,-0.958,-12.7223,-1.6861,156.6609,17.4609,-28.8
840,-2.4142,-9.7334,-2.2226,136.8348,21.5652,-37.9826
845,-3.6021,-7.2425,-3.0273,104.9043,22.7478,-42.4348
850,-3.7171,-5.3648,-3.3722,67.1304,19.4783,-43.2
855,-3.6787,-4.2536,-3.4488,31.0261,13.4261,-41.3217
860,-3.4488,-3.4105,-3.0273,2.4348,6.8174,-39.1652
865,-2.9507,-3.4488,-2.4525,-15.513,0.2087,-36.0348
870,-2.6824,-3.4488,-1.1496,-22.2609,-10.4348,-32.7652
875,-2.2226,-4.3302,-0.0383,-16.6957,-23.0957,-26.7826
880,-1.4945,-5.5564,0.958,-9.4609,-39.0957,-17.6
885,-0.4598,-6.6677,1.4179,-4.9391,-56.1391,-7.7217
890,0.5365,-7.2809,1.5328,-5.0087,-70.7478,-0.7652
895,1.2646,-7.894,1.1496,-7.0261,-80.6261,2.9217
900,1.3795,-7.5874,0.7281,-10.8522,-83.8957,4.6609
905,1.4945,-6.821,0.3832,-12.9391,-81.5304,5.3565
910,0.958,-5.9396,-0.4215,-10.4348,-75.9652,4.3826
915,0.0,-4.79,-0.7664,-5.287,-70.4,1.8783
920,-0.5748,-3.3339,-0.5365,4.6609,-67.6174,-0.0696
925,-1.2646,-2.4525,-1.2263,14.887,-68.0348,-0.3478
930,-1.6478,-1.1879,-1.5711,21.9826,-69.0087,-0.0696
935,-1.5328,-0.1916,-1.9543,25.3913,-68.2435,-0.8348
940,-1.5711,0.3449,-2.8357,24.6261,-63.9304,-2.6435
945,-0.9963,1.2646,-2.9507,18.4348,-55.1652,-5.7043
950,-0.3832,1.4945,-3.3339,10.6435,-43.2696,-9.3913
955,-0.2299,1.8394,-3.1423,0.8348,-31.2348,-12.1739
960,-0.3066,1.9927,-3.1039,-9.9478,-21.7739,-12.1043
965,-0.115,1.6478,-2.8357,-20.1043,-17.113,-7.5826
970,-0.2682,1.1496,-2.5291,-29.7739,-18.8522,-2.5739
975,0.115,0.4215,-2.4908,-33.8783,-24.1391,2.2957
980,0.6898,-0.7281,-1.916,-35.687,-31.513,6.8174
985,1.1113,-2.0693,-0.958,-32.5565,-40.2087,11.2
990,0.9197,-3.4488,-0.4215,-24.3478,-47.7913,16.6957
995,0.9963,-5.0966,-0.6131,-14.2609,-51.5478,23.3043
1000,1.916,-6.7061,-0.7664,-9.1826,-53.0783,28.0348
1005,2.7974,-8.5071,-0.3832,-9.2522,-55.2348,28.313
1010,3.2572,-10.3848,0.1916,-11.2,-57.113,25.0435
1015,3.1039,-11.9559,0.0766,-12.1043,-52.9391,20.2435
1020,2.3375,-13.9486,-0.3066,-14.6087,-40.9739,17.8783
1025,2.1843,-16.3245,-1.4945,-21.7043,-23.7217,16.7652
1030,2.2992,-18.2405,-2.5291,-34.087,-8.2087,14.4
1035,2.6058,-20.4247,-3.9087,-47.0261,-2.2957,6.6087
1040,2.2609,-24.2568,-7.0509,-61.7043,-4.9391,-6.8174
1045,0.8814,-27.3224,-11.6494,-90.5739,-5.8435,-22.0522
1050,-0.7664,-30.1964,-12.3391,-141.8435,4.313,-39.4435
1055,-0.2682,-33.5303,-9.3502,-195.9652,21.4261,-62.6087
1060,1.9927,-36.6725,-3.1423,-226.2261,29.5652,-91.2696
1065,1.6861,-40.4279,4.6751,-204.313,18.4348,-112.4174
1070,0.115,-43.3403,10.3465,-109.4957,18.3652,-99.8957
1075,-0.7664,-40.3896,10.0782,0.5565,44.3826,-57.8087
1080,0.4982,-32.304,5.1732,117.2174,77.287,-10.5043
1085,-1.3795,-26.1345,0.115,213.0087,93.2174,13.2174
1090,-2.9123,-22.4557,-2.2992,258.9913,92.9391,20.1739
1095,-4.79,-18.0872,-4.6368,259.687,78.4696,19.6174
1100,-5.978,-12.6457,-4.8284,226.8522,52.8696,18.8522
1105,-6.2079,-7.9323,-3.7554,188.4522,24.9739,20.313
1110,-4.905,-3.2572,-1.6861,161.4609,5.7043,21.5652
1115,-1.916,-1.2646,-2.9507,135.9304,0.2783,19.7565
1120,2.5675,-2.8357,-3.2955,98.3652,-0.487,18.1565
1125,3.2189,-6.4761,-2.1459,32.6261,-4.1043,15.513
1130,2.989,-9.0053,-0.5365,-41.113,0.3478,13.913
1135,2.7207,-12.2242,0.958,-96.4174,8.6261,14.887
1140,2.2226,-15.0982,1.1879,-129.1826,8.6957,15.7913
1145,2.6441,-17.4741,1.2646,-141.4261,0.487,15.5826
1150,3.4105,-19.5434,0.6898,-136.2087,-8.9043,14.1913
1155,4.2919,-21.1911,0.0383,-119.3739,-12.7304,11.1304
1160,3.7937,-21.536,-0.5748,-95.4435,-8.4174,4.5217
1165,2.1843,-20.3481,-1.5711,-59.4783,4.9391,-1.0435
1170,1.0346,-18.7386,-2.2992,-26.3652,17.5304,-3.8957
1175,-0.4215,-16.4394,-3.2572,-1.3913,26.6435,-4.4522
1180,-1.7244,-14.5234,-3.4871,10.6435,32.4174,-3.5478
1185,-2.6058,-13.0289,-2.9123,12.1043,35.1304,-2.7826
1190,-2.9123,-11.8793,-2.1459,7.3043,35.1304,-2.087
1195,-3.0656,-10.9596,-1.4562,0.3478,32.6261,-1.1826
1200,-2.9123,-10.4231,-0.7664,-5.287,28.4522,0.487
1205,-2.5675,-10.4998,-0.5365,-9.3217,23.513,2.5739
1210,-2.4525,-10.3465,-0.4982,-11.8957,17.6696,5.6348
1215,-2.0693,-10.3082,-0.6898,-13.8435,9.6696,8.2783
1220,-1.7244,-10.3082,-0.7664,-13.913,2.713,11.2
1225,-1.073,-10.4998,-1.2263,-13.7739,-3.6174,14.5391
1230,-0.4598,-10.8063,-1.5328,-14.9565,-8.3478,17.6
1235,0.0383,-10.9213,-1.6478,-17.5304,-10.7826,17.6696
1240,0.5748,-10.9596,-1.5711,-20.1043,-10.7826,16.2783
1245,0.9963,-10.768,-1.4179,-20.5913,-8.5565,13.8435
1250,1.3029,-10.4998,-1.4179,-18.3652,-5.4261,10.713
1255,1.3795,-10.5381,-1.3412,-14.2609,-1.4609,7.0261
1260,1.4179,-10.1549,-1.1879,-11.9652,2.2261,2.5739
1265,1.3795,-9.3885,-0.9197,-9.2522,6.1217,-0.9739
1270,1.2646,-8.6987,-0.843,-6.0522,8.7652,-2.9217
1275,1.5328,-8.2772,-0.8814,-2.9217,10.4348,-3.6174
1280,1.4179,-8.0473,-0.958,-1.8783,11.8261,-3.8261
1285,1.3412,-7.6257,-1.0346,-2.9913,13.4957,-3.2696
1290,1.3412,-7.1659,-1.1113,-5.8435,15.2348,-3.2696
1295,1.0346,-6.6294,-1.1496,-9.113,17.113,-4.3826
1300,0.958,-6.7827,-1.4945,-14.6783,19.5478,-5.0783
1305,0.7664,-7.2042,-1.7244,-21.9826,21.6348,-5.0087
1310,0.6514,-7.5491,-1.5328,-30.8174,23.8609,-5.0783
1315,0.5748,-7.7407,-1.1496,-37.7043,25.5304,-5.2174
1320,0.5748,-7.7407,-1.3412,-38.8174,27.0609,-5.4261
1325,0.6514,-8.1622,-1.5328,-37.7043,28.5217,-5.7739
1330,0.4215,-8.6604,-1.4179,-38.6783,29.287,-5.9826
1335,0.2299,-9.1586,-1.1879,-40.8348,30.0522,-5.7739
1340,0.3832,-9.2735,-1.0346,-41.5304,30.2609,-5.3565
1345,0.3449,-9.6184,-1.073,-39.5826,30.1217,-5.2174
1350,0.4598,-9.6184,-1.1113,-37.8435,30.1913,-5.0783
1355,0.3449,-9.7717,-1.2646,-35.4087,30.6783,-5.4261
1360,0.3449,-9.695,-1.3029,-33.5304,31.0957,-5.3565
1365,0.4598,-9.7717,-1.3795,-32.8348,31.3043,-5.6348
1370,0.4598,-9.8866,-1.3795,-32.0696,31.0261,-5.7043
1375,0.4982,-10.0782,-1.4179,-29.913,30.3304,-6.1217
1380,0.4982,-10.0782,-1.3412,-28.0348,29.0783,-6.3304
1385,0.4982,-10.2315,-1.3795,-25.9478,27.4087,-6.2609
1390,0.6131,-10.1166,-1.3412,-23.6522,25.8783,-4.8696
1395,0.6514,-10.2315,-1.3412,-20.9391,24.487,-3.8957
1400,0.5365,-10.0782,-1.3029,-18.1565,23.7913,-3.4783
1405,0.4598,-10.0782,-1.1113,-15.9304,23.2348,-3.1304
1410,0.3449,-10.1166,-1.073,-13.5652,22.4,-1.8087
1415,0.3832,-10.0016,-1.1113,-10.3652,21.4261,-1.8783
1420,0.1916,-9.9633,-1.1113,-7.3739,20.5217,-2.6435
1425,0.0766,-10.1166,-1.0346,-5.913,19.8261,-3.687
1430,0.1916,-9.4268,-0.6898,-4.313,19.3391,-4.1043
1435,0.1533,-9.3118,-1.0346,-0.9043,18.7826,-4.4522
1440,0.1533,-9.0053,-1.1496,1.8783,18.3652,-4.4522
1445,0.2682,-8.6987,-0.9197,3.1304,17.6696,-5.1478
1450,0.3066,-8.2772,-0.9197,3.8957,16.8348,-6.2609
1455,0.4215,-8.0856,-0.8814,3.8957,16.2783,-7.513
1460,0.7664,-8.1622,-1.0346,2.713,15.8609,-7.2348
1465,0.8814,-8.3538,-0.8814,-0.487,15.6522,-8.0696
1470,0.8814,-8.8137,-0.8047,-5.0087,15.7913,-10.5043
1475,0.7281,-9.0436,-0.6514,-8.2087,15.7913,-11.7565
1480,0.958,-9.2735,-0.843,-9.2522,16.0,-11.2
1485,0.6898,-8.967,-0.4982,-8.2087,16.0696,-11.2696
1490,0.8047,-9.3118,-0.9197,-4.0348,16.9739,-10.713
1495,0.6898,-9.2735,-0.6898,-1.9478,18.1565,-10.4348
1500,0.8047,-9.1586,-0.6514,-1.3217,19.2,-9.4609
1505,0.8047,-9.0819,-1.0346,-0.6261,19.6174,-9.3913
1510,0.8814,-8.5071,-0.6131,-0.0696,19.8261,-9.4609
1515,0.8047,-8.8137,-1.3795,1.113,20.0348,-10.1565
1520,1.0346,-8.3155,-1.3029,0.3478,20.8,-9.5304
1525,0.9963,-8.0473,-1.1113,-1.0435,21.4261,-9.3913
1530,1.0346,-8.0473,-1.3795,-2.0174,21.4261,-8.5565
1535,0.8814,-8.2389,-1.6478,-5.7739,20.1043,-7.3043
1540,0.8814,-8.1239,-2.1843,-11.0609,18.087,-5.7043
1545,0.8814,-8.4688,-2.5675,-15.8609,16.2783,-4.3826
1550,0.6898,-8.6987,-2.6058,-21.7043,14.1913,-2.8522
1555,0.3832,-9.2352,-2.6441,-28.1739,12.0348,-1.2522
1560,0.4215,-9.8866,-2.7207,-34.0174,9.6696,1.7391
1565,0.2299,-10.0782,-2.5675,-37.0087,7.5826,4.2435
1570,0.3066,-10.883,-2.6441,-38.0522,6.3304,8.0696
1575,0.8047,-11.726,-2.5291,-39.2348,5.4957,11.8957
1580,1.2263,-12.4158,-2.4142,-39.2348,5.6348,14.9565
1585,1.6478,-13.0289,-2.2609,-37.287,7.8609,15.6522
1590,1.916,-13.0289,-2.2609,-33.7391,11.687,14.6087
1595,2.1076,-13.0672,-2.2992,-29.1478,15.7913,12.3826
1600,2.2226,-12.9906,-2.3759,-25.0435,19.2,10.2261
1605,2.4908,-12.799,-2.7207,-21.9826,22.4,7.1652
1610,2.7974,-12.5691,-2.7974,-19.4087,24.0,4.6609
1615,2.989,-12.2242,-2.6824,-17.6696,25.4609,2.0174
1620,3.1039,-11.9176,-2.874,-16.2087,27.2,-0.1391
1625,3.0656,-11.726,-2.9507,-14.4696,29.4261,-2.1565
1630,2.9123,-11.841,-3.0273,-12.5913,32.5565,-3.4087
1635,2.5291,-11.9559,-3.0656,-10.5739,36.313,-5.2174
1640,2.0693,-11.8793,-3.1039,-8.1391,39.8609,-6.6783
1645,1.8777,-11.841,-3.0656,-5.8435,42.5043,-8.3478
1650,1.5328,-11.6877,-2.8357,-3.4087,44.5217,-8.9739
1655,1.1879,-11.4578,-2.5675,-0.5565,46.5391,-10.2957
1660,0.9197,-11.2662,-2.3375,3.3391,47.5826,-10.713
1665,0.843,-11.0363,-2.3375,6.5391,47.9304,-11.2
1670,0.6514,-10.7297,-2.3375,9.113,47.6522,-11.1304
1675,0.4215,-10.4614,-2.2992,10.5739,47.0261,-11.2
1680,0.4215,-10.1549,-2.1459,10.713,46.3304,-10.713
1685,0.1916,-9.8483,-2.1459,10.3652,45.5652,-10.5739
1690,0.3449,-9.6567,-1.916,9.5304,45.0087,-9.8783
1695,0.3449,-9.4268,-1.9543,8.6957,44.0348,-9.5304
1700,0.4982,-9.3885,-1.8011,7.9304,42.7826,-8.5565
1705,0.5748,-9.3885,-1.7244,7.0957,41.2522,-7.7913
1710,0.7281,-9.1586,-1.8394,6.1913,40.1391,-6.8174
1715,0.7664,-9.0819,-1.6861,5.7043,39.3043,-5.8435
1720,0.8047,-9.0436,-1.6478,5.0783,38.4,-4.6609
1725,0.8047,-8.9286,-1.7244,4.3826,37.5652,-3.687
1730,0.7281,-8.7754,-1.7627,3.5478,36.7304,-2.3652
1735,0.7664,-8.737,-1.6478,2.3652,35.9652,-1.1826
1740,0.6514,-8.852,-1.4179,0.8348,35.687,0.3478
1745,0.6514,-8.9286,-1.3795,-1.113,35.3391,1.3217
1750,0.4598,-9.0436,-1.3029,-3.2696,35.0609,2.713
1755,0.4215,-9.1202,-1.3412,-5.6348,34.3652,3.7565
1760,0.4982,-9.4268,-1.073,-8.6261,33.8087,5.1478
1765,0.5365,-9.5034,-1.1113,-10.8522,33.3217,5.8435
1770,0.3832,-9.695,-0.958,-12.8,32.6261,6.887
1775,0.2682,-9.5801,-0.843,-14.4,31.7913,7.4435
1780,0.1916,-9.81,-0.8047,-15.3739,30.6783,8.0
1785,0.2299,-10.0016,-0.958,-16.487,29.2174,7.9304
1790,-0.0383,-9.925,-0.8047,-17.6,27.2,8.0696
1795,-0.1533,-10.0399,-0.958,-18.8522,24.6957,7.7913
1800,-0.1533,-10.1549,-0.843,-20.0348,22.1217,8.0
1805,-0.1916,-9.925,-0.9197,-21.1478,19.4783,8.0696
1810,-0.2682,-10.5764,-0.9197,-22.5391,17.8087,8.5565
1815,-0.115,-10.7297,-1.0346,-24.3478,16.6957,8.0
1820,-0.115,-10.9213,-0.843,-25.0435,15.9304,7.6522
1825,0.3066,-11.1895,-0.8047,-24.487,15.2348,6.6783
1830,0.4982,-11.1895,-0.8047,-22.6783,14.7478,5.913
1835,0.7281,-11.3811,-0.9197,-20.6609,14.7478,4.5913
1840,0.9963,-11.3045,-0.8047,-18.713,14.887,3.2696
1845,1.073,-11.3045,-1.0346,-17.2522,14.6783,1.6696
1850,1.1879,-11.3811,-0.9197,-16.7652,14.1913,-0.2087
1855,1.2646,-11.4578,-0.6131,-16.5565,13.0783,-1.7391
1860,1.4179,-11.4961,-0.6514,-15.7913,11.687,-2.7826
1865,1.3795,-11.6111,-0.7664,-14.4,10.2957,-3.8261
1870,1.4562,-11.6494,-0.4982,-12.313,9.3217,-4.313
1875,1.3029,-11.7643,-0.3832,-9.9478,8.8348,-4.9391
1880,1.3795,-11.6111,-0.4598,-7.5826,8.5565,-5.3565
1885,1.2646,-11.3428,-0.4982,-5.4957,8.5565,-6.1217
1890,1.2646,-11.0746,-0.7664,-4.2435,8.8348,-6.4696
1895,1.1113,-10.8063,-0.958,-3.687,9.0435,-7.2348
1900,1.0346,-10.653,-1.1496,-4.0348,9.3913,-7.513
1905,0.8814,-10.4998,-1.2263,-5.0783,9.3913,-7.8609
1910,0.7664,-10.2698,-1.1496,-5.8435,9.3913,-7.5826
1915,0.6131,-10.3465,-1.2646,-6.4,9.0435,-7.513
1920,0.6131,-10.1932,-1.1879,-6.4696,8.3478,-7.0261
1925,0.4982,-10.1166,-1.1496,-6.1913,7.4435,-6.6783
1930,0.3832,-10.1166,-1.1879,-5.7739,6.4696,-6.1217
1935,0.4598,-10.1549,-1.1879,-4.9391,5.287,-5.7739
1940,0.4598,-10.1932,-1.2263,-4.0348,4.0348,-5.0783
1945,0.3832,-10.0782,-1.2263,-3.1304,2.5739,-5.0783
1950,0.3449,-10.1166,-1.1113,-2.2957,0.9739,-4.1043
1955,0.4215,-10.0782,-1.1113,-1.5304,-1.2522,-3.2
1960,0.3832,-10.1932,-1.3795,-0.9739,-2.9217,-2.5739
1965,0.5748,-10.1166,-1.1879,-0.5565,-4.2435,-2.6435
1970,0.843,-9.9633,-1.2646,-0.5565,-5.7043,-1.5304
1975,0.8814,-10.0016,-1.1879,-0.6957,-6.887,-0.6261
1980,0.958,-10.3465,-1.1879,-1.0435,-7.513,0.0
1985,1.3029,-10.3848,-1.1113,-1.7391,-7.9304,0.0
1990,1.3795,-10.4614,-1.1113,-2.2261,-8.0,0.2783
1995,1.3029,-10.5381,-1.3795,-2.8522,-8.0,0.1391
2000,1.3412,-10.5381,-1.6095,-4.5217,-8.0,-0.2087
2005,1.2263,-10.4998,-1.5711,-7.7217,-7.7217,-0.6957
2010,1.1879,-10.5764,-1.4562,-10.2957,-7.513,-0.8348
2015,1.1879,-10.7297,-1.3412,-10.9217,-7.6522,-1.0435
2020,1.1879,-10.6914,-1.0346,-9.8087,-8.0696,-1.0435
2025,1.1496,-10.7297,-0.7664,-7.1652,-8.3478,-1.1826
2030,1.1496,-10.768,-0.9197,-4.8,-8.5565,-1.3913
2035,1.1496,-10.653,-1.2263,-3.4087,-8.8348,-2.087
2040,1.1496,-10.653,-1.3412,-3.9652,-8.8348,-2.6435
2045,1.0346,-10.653,-1.5711,-5.9826,-8.3478,-3.8957
2050,0.9963,-10.6914,-1.8011,-8.5565,-7.3043,-5.3565
2055,0.9963,-10.653,-1.7627,-10.8522,-6.2609,-6.4696
2060,0.9963,-10.8063,-1.916,-10.713,-5.3565,-7.513
2065,0.9197,-10.8063,-1.8777,-8.8348,-4.5217,-8.3478
2070,0.7664,-10.653,-2.1459,-5.7043,-3.7565,-8.9043
2075,0.6514,-10.6147,-1.916,-1.9478,-3.2,-9.113
2080,0.2682,-10.4614,-1.8011,1.4609,-3.3391,-8.6261
2085,0.0383,-10.3082,-1.7627,4.5913,-4.1739,-8.0
2090,-0.0383,-10.0016,-1.6478,7.0957,-5.9826,-6.887
2095,-0.1533,-9.8483,-1.6861,9.2522,-8.8348,-5.913
2100,-0.3449,-9.6184,-1.8777,10.9913,-12.2435,-4.2435
2105,-0.3832,-9.3885,-2.1076,12.3826,-14.4696,-2.5739
2110,-0.4215,-9.3118,-1.9927,12.8,-15.6522,-1.0435
2115,-0.4598,-9.4651,-2.031,12.6609,-16.3478,-0.0696
2120,-0.4598,-9.2735,-1.9543,12.5913,-16.5565,0.9043
2125,-0.4598,-9.5034,-1.7244,13.4957,-16.4174,2.087
2130,-0.4598,-9.4651,-1.5711,14.7478,-16.5565,3.2696
2135,-0.4598,-9.4268,-1.3412,16.3478,-17.113,3.687
2140,-0.3449,-9.3502,-1.2263,18.7826,-18.0174,4.7304
2145,-0.115,-9.1586,-1.1113,20.313,-19.0609,5.913
2150,0.0766,-9.1202,-1.2646,20.3826,-20.4522,7.4435
2155,0.2682,-9.0053,-0.8814,18.4348,-20.9391,8.2087
2160,0.4598,-9.1586,-0.843,15.9304,-20.9391,9.0435
2165,0.5365,-9.2735,-0.9963,13.287,-20.8696,10.1565
2170,0.6514,-9.3502,-0.8814,10.6435,-20.8,11.2696
2175,0.843,-9.4651,-0.958,8.5565,-20.8,12.0348
2180,0.958,-9.7334,-1.2263,7.2348,-20.7304,12.9391
2185,0.9963,-9.925,-1.2646,6.4696,-20.313,13.913
2190,1.2263,-10.0399,-1.5328,6.4696,-19.6174,15.0261
2195,1.4945,-10.2698,-1.6095,6.4,-18.5739,16.0
2200,1.7627,-10.4998,-1.7244,5.7739,-16.8348,16.4174
2205,1.8777,-10.7297,-1.916,4.2435,-14.887,16.3478
2210,1.9543,-10.9979,-2.1076,1.9478,-12.3826,15.5826
2215,2.0693,-11.3811,-1.8011,-0.6957,-9.5304,14.0522
2220,2.0693,-11.6877,-1.9543,-3.4783,-7.0261,11.7565
2225,2.031,-11.9943,-1.7244,-5.4261,-4.6609,9.1826
2230,1.9927,-12.1859,-1.7627,-6.4,-2.3652,6.6783
2235,1.9927,-12.4158,-1.8394,-5.8435,0.0696,4.1739
2240,1.6861,-12.4158,-1.8394,-3.7565,2.7826,2.087
2245,1.2646,-12.4158,-1.7627,-0.4174,5.3565,-0.1391
2250,1.0346,-12.2242,-1.7627,4.8,7.3043,-1.3913
2255,0.4598,-11.8793,-1.6861,9.6,7.4435,-2.0174
2260,0.0,-11.726,-1.6478,14.3304,6.887,-2.3652
2265,-0.4598,-11.2662,-1.6095,18.2957,5.5652,-2.2261
2270,-0.8814,-10.768,-1.3412,20.8696,4.1043,-1.8087
2275,-1.3795,-10.4998,-1.3412,22.1913,2.2957,-1.1826
2280,-1.5328,-10.0782,-1.1113,22.4,0.2783,-0.487
2285,-1.6478,-10.1166,-1.1113,21.7739,-1.3913,0.487
2290,-1.8011,-9.81,-0.843,20.8,-3.2,1.5304
2295,-1.6861,-9.695,-0.8047,19.6174,-4.8,2.5739
2300,-1.6095,-9.5801,-0.843,18.3652,-6.887,3.4087
2305,-1.2263,-9.6567,-0.8047,17.7391,-8.9043,4.2435
2310,-1.1113,-9.3118,-0.8047,16.9739,-10.9217,4.7304
2315,-0.6898,-9.3502,-0.6131,16.2783,-13.0087,5.3565
2320,-0.3449,-9.5034,-0.5365,15.5826,-14.9565,5.7739
2325,-0.0766,-9.4268,-0.6898,14.8174,-16.9043,5.9826
2330,0.3449,-9.4651,-0.4598,13.913,-18.3652,6.1913
2335,0.6131,-9.5034,-0.4982,13.0087,-19.5478,6.2609
2340,0.8814,-9.5801,-0.4598,11.687,-20.313,6.1913
2345,1.073,-9.5801,-0.3066,10.2957,-20.3826,5.9826
2350,1.4562,-9.695,-0.3832,8.3478,-19.7565,5.5652
2355,1.5711,-9.81,-0.4598,6.9565,-18.6435,5.0783
2360,1.5711,-9.8483,-0.4215,5.5652,-16.8348,4.5217
2365,1.4562,-10.0782,-0.4215,4.313,-14.6783,4.1739
2370,1.3795,-10.1549,-0.4982,3.0609,-12.2435,3.7565
2375,1.2263,-10.2698,-0.4215,2.1565,-10.2957,3.4087
2380,1.1879,-10.3082,-0.5365,1.6696,-8.7652,2.9217
2385,0.9197,-10.3848,-0.4982,1.4609,-7.3739,2.5739
2390,0.7281,-10.4231,-0.7281,1.3217,-6.1913,2.087
2395,0.6131,-10.5381,-0.5365,1.3217,-4.8,1.4609
2400,0.6514,-10.5764,-0.6898,1.3913,-3.7565,0.9043
2405,0.5748,-10.6914,-0.9197,1.5304,-2.9217,0.4174
2410,0.3832,-10.653,-0.8047,1.4609,-2.1565,-0.1391
2415,0.4598,-10.5764,-0.9197,1.6,-1.4609,-0.487
2420,0.4215,-10.5764,-1.073,1.6,-0.9043,-1.0435
2425,0.3066,-10.5764,-1.2646,1.7391,-0.2783,-1.3217
2430,0.2682,-10.5764,-1.073,1.8783,0.0696,-1.7391
2435,0.3832,-10.5381,-1.1496,2.0174,0.3478,-1.7391
2440,0.4598,-10.5764,-1.3795,2.0174,0.5565,-2.0174
2445,0.4598,-10.5764,-1.2263,2.0174,0.6261,-2.1565
2450,0.4598,-10.5764,-1.4179,1.9478,0.487,-2.3652
2455,0.4598,-10.5381,-1.2263,2.0174,0.2783,-2.3652
2460,0.4215,-10.5381,-1.3412,2.087,0.0696,-2.4348
2465,0.5748,-10.5381,-1.1879,2.087,0.0,-2.2261
2470,0.4215,-10.4998,-1.2646,2.2261,-0.1391,-2.087
2475,0.6131,-10.4998,-1.1879,2.4348,-0.0696,-1.6696
2480,0.6514,-10.4998,-1.1496,2.8522,0.0,-1.3913
2485,0.6898,-10.3465,-1.1113,3.2696,0.3478,-1.0435
2490,0.843,-10.4998,-0.9963,3.6174,0.6957,-0.6261
2495,0.7281,-10.3465,-1.0346,3.6174,1.113,0.0
2500,0.6514,-10.1932,-0.8047,3.4783,1.3217,0.2087
2505,0.5365,-10.1932,-0.843,3.1304,1.6696,0.6957
2510,0.4215,-10.2698,-0.8814,2.713,1.7391,0.8348
2515,0.4215,-10.3465,-0.843,2.1565,1.6696,1.1826
2520,0.4215,-10.2315,-0.6131,1.6,1.6696,1.3913
2525,0.2682,-10.1932,-0.6131,0.9739,1.5304,1.6
2530,0.3449,-10.1549,-0.5365,0.4174,1.4609,1.6696
2535,0.2682,-10.1932,-0.6514,-0.4174,1.3217,1.8087
2540,0.2299,-10.1549,-0.6131,-1.2522,1.3217,1.8087
2545,0.115,-10.0782,-0.6898,-2.4348,1.3913,1.8783
2550,0.1533,-10.0782,-0.5748,-3.4783,1.1826,1.7391
2555,0.1916,-10.1549,-0.6898,-4.313,1.2522,1.8783
2560,0.1916,-10.1549,-0.4982,-5.2174,1.4609,1.7391
2565,0.2299,-9.9633,-0.5365,-6.1217,1.7391,1.6696
2570,0.3066,-10.0782,-0.6131,-6.7478,2.0174,1.3913
2575,0.3449,-10.0016,-0.6514,-7.2348,2.2957,1.3217
2580,0.3449,-9.9633,-0.9197,-7.8609,2.6435,0.9739
2585,0.5748,-10.0399,-1.0346,-8.9043,2.6435,0.8348
2590,0.6131,-10.0016,-1.073,-10.6435,2.713,0.5565
2595,0.6898,-10.3465,-1.0346,-12.7304,3.4783,0.4174
2600,0.6898,-10.4614,-0.958,-13.3565,4.313,-0.1391
2605,0.7281,-10.5381,-0.958,-13.0783,4.7304,-0.4174
2610,0.7281,-10.4614,-0.9963,-11.9652,4.9391,-0.6957
2615,0.7664,-10.4998,-1.1113,-10.8522,5.3565,-0.8348
2620,0.7664,-10.3465,-1.0346,-10.087,5.9826,-1.1826
2625,0.7281,-10.4231,-1.0346,-10.2261,6.6783,-1.3913
2630,0.6131,-10.3082,-0.958,-10.9913,7.3043,-1.5304
2635,0.6514,-10.3082,-0.9197,-11.7565,7.5826,-1.5304
2640,0.5365,-10.4998,-0.9963,-12.313,7.6522,-1.6696
2645,0.5748,-10.4998,-0.9197,-12.5913,7.4435,-1.3913
2650,0.5365,-10.5764,-0.9197,-12.4522,7.1652,-1.3913
2655,0.3449,-10.6914,-1.073,-12.1739,6.6783,-1.0435
2660,0.3449,-10.6147,-1.1113,-11.8261,5.9826,-0.9739
2665,0.2682,-10.653,-1.1879,-11.4783,5.2174,-0.7652
2670,0.2299,-10.6914,-1.073,-10.8522,4.5913,-0.7652
2675,0.115,-10.6914,-1.073,-10.1565,3.9652,-0.5565
2680,0.115,-10.6147,-1.1496,-9.4609,3.3391,-0.487
2685,0.0,-10.4998,-0.9197,-8.9043,2.713,-0.1391
2690,-0.0383,-10.4998,-1.1496,-8.6261,2.087,-0.2087
2695,0.0383,-10.3848,-0.9963,-8.6261,1.6,0.0696
2700,0.0,-10.2698,-1.0346,-9.1826,1.3217,0.0696
2705,0.0383,-10.3848,-1.073,-9.7391,1.113,0.2087
2710,0.0766,-10.4998,-1.073,-9.9478,1.113,0.2087
2715,0.1916,-10.4614,-1.073,-9.8783,1.1826,0.2087
2720,0.2682,-10.3848,-1.2646,-9.2522,1.0435,0.1391
2725,0.2299,-10.4614,-1.1496,-8.0696,0.9043,0.2783
2730,0.3832,-10.4614,-1.2263,-6.5391,0.6957,0.2783
2735,0.4982,-10.5381,-1.2646,-5.1478,0.487,0.4174
2740,0.5365,-10.4998,-1.4562,-4.1043,0.2783,0.487
2745,0.6131,-10.4998,-1.2263,-3.0609,0.0,0.6957
2750,0.6131,-10.3848,-1.1879,-2.2261,0.0,0.6957
2755,0.6898,-10.4998,-1.3029,-1.8087,0.1391,0.9043
2760,0.6514,-10.3465,-1.2263,-1.6,0.2783,0.8348
2765,0.7664,-10.4998,-1.2263,-1.6696,0.7652,0.9043
2770,0.6514,-10.4614,-1.3412,-1.8087,1.4609,0.6261
2775,0.7281,-10.3082,-1.3029,-2.1565,2.1565,0.6957
2780,0.6898,-10.4231,-1.1496,-2.3652,2.9217,0.2783
2785,0.7281,-10.4231,-1.1879,-2.4348,3.687,0.4174
2790,0.6514,-10.4231,-1.1496,-2.3652,4.4522,0.1391
2795,0.6898,-10.3465,-1.3029,-2.3652,5.2174,0.0696
2800,0.7281,-10.4614,-1.1113,-2.3652,5.8435,-0.1391
2805,0.6514,-10.3465,-1.2263,-2.5043,6.4696,-0.0696
2810,0.6131,-10.4614,-1.1496,-2.5043,7.1652,-0.3478
2815,0.5748,-10.4998,-1.1113,-2.5043,7.4435,-0.4174
2820,0.5365,-10.4231,-1.1879,-2.5043,7.7913,-0.5565
2825,0.6514,-10.4614,-1.3029,-2.4348,8.0696,-0.4174
2830,0.5748,-10.3848,-1.3412,-2.2261,8.2783,-0.5565
2835,0.5748,-10.4231,-1.2646,-2.1565,8.1391,-0.2783
2840,0.4598,-10.3848,-1.2263,-2.087,7.8609,-0.3478
2845,0.4598,-10.3848,-1.1879,-2.0174,7.6522,-0.2783
2850,0.4982,-10.4614,-1.2646,-2.0174,7.5826,-0.3478
2855,0.3449,-10.3082,-1.1496,-1.9478,7.6522,-0.1391
2860,0.3449,-10.4614,-1.2263,-2.0174,7.5826,-0.3478
2865,0.4982,-10.4614,-1.3029,-1.8783,7.513,-0.0696
2870,0.3449,-10.4614,-1.3412,-1.6696,7.4435,-0.2087
2875,0.2682,-10.4231,-1.2646,-1.3913,7.2348,0.0
2880,0.2682,-10.4614,-1.2646,-1.0435,7.0261,-0.1391
2885,0.2682,-10.4614,-1.2263,-0.7652,6.8174,0.1391
2890,0.3066,-10.4231,-1.1496,-0.4174,6.4,0.0
2895,0.3066,-10.5381,-1.1113,0.0,6.0522,0.3478
2900,0.2682,-10.4231,-1.1496,0.2087,5.8435,0.0696
2905,0.4215,-10.4231,-0.9963,0.3478,5.5652,0.2087
2910,0.3449,-10.3848,-1.1879,0.4174,5.3565,0.0696
2915,0.3832,-10.4231,-1.073,0.3478,5.1478,0.2087
2920,0.3449,-10.3848,-1.1496,0.2087,5.0087,0.0
2925,0.3832,-10.4614,-1.1496,0.2087,4.9391,0.0
2930,0.3449,-10.4231,-0.9963,0.4174,4.8696,-0.1391
2935,0.4982,-10.5381,-1.1496,0.6957,4.8696,0.0
2940,0.3832,-10.4614,-1.0346,1.2522,4.6609,-0.1391
2945,0.3832,-10.4614,-0.9963,1.8087,4.313,0.0
2950,0.3832,-10.2698,-1.1113,2.2261,4.1739,-0.2087
2955,0.5365,-10.3465,-1.0346,2.5043,3.9652,-0.0696
2960,0.4982,-10.4231,-1.073,2.4348,3.687,-0.2783
2965,0.5365,-10.4998,-1.0346,2.4348,3.4783,-0.1391
2970,0.4982,-10.4614,-0.9963,2.3652,3.4783,-0.3478
2975,0.4982,-10.4231,-1.1113,2.3652,3.4087,-0.2087
2980,0.4598,-10.4614,-1.2263,2.3652,3.1304,-0.2783
2985,0.5365,-10.4614,-1.0346,2.4348,2.9913,-0.2087
2990,0.3832,-10.4231,-1.073,2.5043,2.8522,-0.2783
2995,0.3832,-10.3465,-0.9963,2.3652,2.7826,0.0
