timestamp,accX,accY,accZ,gyroX,gyroY,gyroZ
0,-0.5365,-9.7334,2.6058,10.713,2.713,-2.3652
5,-0.6898,-9.695,2.5291,10.2261,1.8783,-2.2957
10,-0.7664,-9.6184,2.4908,8.9043,1.1826,-2.1565
15,-0.7664,-9.5801,2.4908,6.9565,0.9043,-1.8783
20,-0.7281,-9.5418,2.4908,4.5913,0.9043,-1.8783
25,-0.6514,-9.5801,2.4525,2.0174,1.5304,-1.8783
30,-0.6131,-9.6184,2.4525,-0.6261,2.5739,-2.0174
35,-0.4982,-9.6567,2.5291,-3.1304,3.687,-2.2957
40,-0.5748,-9.7717,2.5291,-5.287,5.0087,-2.713
45,-0.6131,-9.81,2.5675,-7.0261,6.3304,-3.1304
50,-0.6131,-9.8483,2.6441,-7.8609,7.513,-3.687
55,-0.5365,-9.8483,2.6058,-8.487,8.487,-4.0348
60,-0.4982,-10.0016,2.6058,-8.6957,8.9739,-4.3826
65,-0.6898,-10.0016,2.4142,-8.4174,9.1826,-4.5913
70,-0.4982,-9.8866,2.5675,-7.6522,9.3217,-4.8
75,-0.5365,-10.0399,2.6058,-6.5391,9.113,-5.0087
80,-0.4598,-10.0399,2.4908,-5.287,8.9739,-5.3565
85,-0.5748,-10.0016,2.4908,-3.8957,8.6261,-5.5652
90,-0.6898,-10.1549,2.3759,-2.5739,8.2087,-5.7043
95,-0.3066,-10.0399,2.3375,-1.2522,7.5826,-5.7043
100,-0.3066,-10.0399,2.3759,-0.0696,7.0957,-5.8435
105,-0.3449,-10.0782,2.4142,1.0435,6.5391,-5.7739
110,-0.2299,-10.0016,2.4525,1.8783,6.2609,-5.7739
115,-0.115,-10.0399,2.4525,2.4348,5.9826,-5.6348
120,-0.1533,-9.8866,2.4908,3.0609,5.913,-5.5652
125,-0.1916,-9.9633,2.6824,3.5478,6.1217,-5.287
130,0.0,-9.8866,2.6058,4.2435,6.2609,-5.1478
135,-0.1916,-9.81,2.6441,4.8696,6.5391,-4.8696
140,-0.1916,-9.8483,2.7974,5.4261,6.7478,-4.5913
145,0.0383,-9.8866,2.7207,5.913,7.1652,-4.313
150,0.0383,-9.8483,2.7591,6.1217,7.5826,-3.9652
155,-0.0383,-9.8483,2.7207,6.0522,7.8609,-3.7565
160,-0.115,-9.8483,2.7591,5.6348,8.2087,-3.4087
165,-0.0766,-9.81,2.5291,5.2174,8.487,-3.1304
170,0.0,-9.81,2.6441,4.5913,8.9043,-2.9913
175,-0.0383,-9.7717,2.6824,3.8261,9.1826,-2.9913
180,-0.0383,-9.8483,2.5675,2.9217,9.4609,-2.9217
185,-0.2299,-9.7717,2.6824,1.9478,9.5304,-2.9217
190,-0.0383,-9.81,2.4908,1.0435,9.3913,-2.8522
195,0.0383,-9.7717,2.8357,0.3478,9.2522,-2.9913
200,-0.2299,-9.8483,2.4908,-0.0696,9.0435,-3.0609
205,-0.0766,-9.925,2.5291,-0.2783,8.9739,-3.2696
210,-0.2682,-9.81,2.5291,-0.3478,8.5565,-3.3391
215,-0.1916,-9.9633,2.5291,-0.487,8.2783,-3.5478
220,-0.2682,-9.8866,2.4525,-0.5565,7.8609,-3.7565
225,-0.2682,-9.81,2.4908,-0.9043,7.3739,-3.8261
230,-0.3066,-9.925,2.4908,-1.113,6.7478,-3.8957
235,-0.2682,-9.925,2.4525,-1.3217,6.1913,-3.8957
240,-0.2682,-9.8483,2.5675,-1.4609,6.0522,-3.8261
245,-0.2682,-10.0399,2.7207,-1.3913,5.8435,-3.6174
250,-0.4215,-9.925,2.7591,-1.0435,5.7739,-3.6174
255,-0.2682,-10.0016,2.6058,-0.5565,5.7739,-3.4087
260,-0.1916,-9.9633,2.7207,0.0,5.7739,-3.2696
265,-0.3449,-9.8866,2.6824,0.6261,5.6348,-2.8522
270,-0.1916,-9.925,2.6824,1.1826,5.4261,-2.5043
275,-0.1533,-9.925,2.6058,1.4609,5.0783,-2.3652
280,-0.1916,-9.8483,2.6058,1.4609,4.8696,-2.0174
285,-0.115,-9.8483,2.6824,1.5304,4.313,-1.7391
290,-0.115,-9.8866,2.6058,1.3913,3.7565,-1.4609
295,-0.115,-9.8483,2.6441,1.2522,3.1304,-1.0435
300,0.0,-9.7717,2.7591,1.113,2.5043,-0.6957
305,-0.0383,-9.81,2.6058,0.9043,2.2261,-0.487
310,0.0766,-9.8866,2.5291,0.5565,2.087,-0.2783
315,0.0383,-9.8483,2.6824,0.3478,2.0174,-0.2087
320,0.0766,-9.8483,2.5291,0.2087,2.1565,-0.1391
325,-0.0766,-9.8866,2.6824,0.0,2.4348,-0.0696
330,0.0,-9.925,2.6441,0.0696,2.8522,0.0
335,-0.0383,-9.8866,2.6058,0.2783,3.3391,0.0
340,-0.0383,-9.9633,2.7591,0.8348,3.5478,0.0696
345,-0.0766,-9.8483,2.7591,1.6,3.687,0.0696
350,-0.3066,-9.7334,2.5675,2.3652,3.7565,0.2783
355,-0.1533,-9.925,2.7207,3.0609,3.3391,0.4174
360,-0.115,-9.8866,2.6058,3.6174,3.0609,0.487
365,-0.1916,-9.8866,2.6824,3.8261,2.713,0.5565
370,-0.1533,-9.81,2.6441,3.8957,2.4348,0.6261
375,0.0383,-9.8483,2.7591,3.8261,2.1565,0.5565
380,-0.2299,-9.925,2.6058,3.5478,2.3652,0.487
385,-0.115,-9.81,2.5291,3.2,2.5043,0.4174
390,-0.1916,-9.9633,2.4908,2.7826,2.6435,0.2783
395,-0.2299,-9.8866,2.6441,2.5043,2.9913,0.2783
400,-0.1916,-10.0399,2.5291,2.2261,3.4783,0.1391
405,-0.2682,-9.8483,2.6824,2.1565,3.9652,0.0
410,-0.1533,-10.0782,2.4525,2.2957,4.5217,-0.1391
415,-0.1533,-9.9633,2.7974,2.5739,5.0783,0.0
420,-0.1533,-9.8866,2.8357,2.9913,5.4957,-0.0696
425,-0.2682,-9.8866,2.9507,3.2,5.7043,0.0
430,-0.1916,-9.9633,2.874,3.3391,5.7739,0.0696
435,-0.2682,-9.8483,2.9123,3.2696,5.4957,0.2087
440,-0.1916,-9.81,2.6058,2.9913,5.1478,0.2783
445,-0.115,-9.81,2.6058,2.5739,4.7304,0.3478
450,-0.3449,-9.81,2.6058,2.1565,4.2435,0.3478
455,-0.2299,-9.81,2.5675,2.0174,3.8957,0.4174
460,-0.1916,-9.7717,2.4525,1.8087,3.5478,0.487
465,-0.1916,-9.9633,2.5291,1.9478,3.2696,0.487
470,-0.1533,-9.8866,2.6058,2.1565,3.1304,0.487
475,-0.1916,-9.81,2.6441,2.5739,3.2,0.487
480,-0.3066,-9.8866,2.7591,2.8522,3.2696,0.487
485,-0.2299,-10.0016,2.6824,3.2,3.4783,0.5565
490,-0.1916,-9.8483,2.7974,3.4783,3.5478,0.4174
495,-0.1916,-9.925,2.7974,3.7565,3.8261,0.3478
500,-0.2299,-9.8866,2.6824,3.9652,3.9652,0.2087
505,-0.0766,-9.8866,2.6824,4.0348,4.1043,0.1391
510,-0.3066,-9.8483,2.6824,4.0348,4.2435,0.1391
515,-0.0766,-9.6567,2.5675,4.0348,4.3826,0.1391
520,-0.2299,-9.8483,2.8357,4.0348,4.4522,0.0696
525,-0.115,-9.7717,2.7207,3.8957,4.5217,0.0
530,-0.1916,-9.8866,2.7974,3.9652,4.5217,-0.0696
535,-0.1533,-9.81,2.7974,4.0348,4.5217,-0.1391
540,-0.2299,-9.8483,2.874,4.1043,4.8,-0.2087
545,-0.1916,-9.7717,2.7974,3.9652,4.9391,-0.2783
550,-0.1533,-9.81,3.1039,3.8261,5.1478,-0.2783
555,-0.115,-9.7334,2.8357,3.7565,5.3565,-0.4174
560,-0.1916,-9.81,2.9123,3.5478,5.4261,-0.4174
565,-0.1916,-9.81,2.9123,3.2696,5.4261,-0.3478
570,-0.115,-9.7717,2.874,2.7826,5.4957,-0.2087
575,-0.2299,-9.7717,2.8357,2.2957,5.4261,0.0
580,-0.1916,-9.7334,2.8357,1.8087,5.3565,0.0
585,-0.1916,-9.8483,2.8357,1.5304,5.2174,0.0
590,-0.2299,-9.8483,2.9507,1.2522,5.2174,0.0696
595,-0.0766,-9.81,2.9507,1.113,5.287,0.0
600,-0.115,-9.8483,2.9507,0.9043,5.287,0.0
605,-0.2299,-9.8483,2.7974,0.6957,5.4261,0.0
610,-0.3832,-9.7717,2.9507,0.6261,5.5652,-0.0696
615,-0.3066,-9.81,2.9123,0.487,5.7043,-0.0696
620,-0.2682,-9.7717,2.9123,0.5565,5.7739,-0.1391
625,-0.3832,-9.9633,3.0273,0.6261,5.7739,-0.2087
630,-0.2299,-9.7717,2.874,0.7652,5.8435,-0.2087
635,-0.2682,-9.7717,2.8357,0.8348,5.9826,-0.2087
640,-0.3066,-9.695,2.9123,0.8348,6.1217,-0.2783
645,-0.2299,-9.81,2.874,0.7652,5.9826,-0.2087
650,-0.3066,-9.695,2.9123,0.8348,5.8435,-0.2087
655,-0.2682,-9.7717,2.7974,0.6957,5.7043,-0.2087
660,-0.1916,-9.81,2.874,0.6261,5.5652,-0.2087
665,-0.1916,-9.8866,2.9123,0.4174,5.4261,-0.1391
670,-0.2299,-9.7717,2.874,0.2783,5.4261,-0.2783
675,-0.2299,-9.8866,2.9123,0.2087,5.4261,-0.3478
680,-0.2682,-9.7334,2.9123,0.1391,5.3565,-0.4174
685,-0.2299,-9.8483,2.7974,0.0,5.3565,-0.487
690,-0.2299,-9.7334,2.7207,-0.0696,5.4957,-0.5565
695,-0.2299,-9.7717,2.9123,0.0,5.4261,-0.6261
700,-0.2682,-9.7334,2.9507,0.1391,5.5652,-0.6261
705,-0.3449,-9.7717,2.874,0.1391,5.5652,-0.5565
710,-0.2682,-10.0399,2.989,0.2087,5.7043,-0.487
715,-0.0766,-9.925,3.0273,0.2087,5.7043,-0.3478
720,-0.1533,-9.8483,2.989,0.2783,5.8435,-0.487
725,-0.1533,-9.81,2.9123,0.4174,5.8435,-0.4174
730,-0.1916,-9.81,2.874,0.4174,5.7739,-0.3478
735,-0.2299,-9.7334,2.9507,0.2783,5.4957,-0.3478
740,-0.2299,-9.7717,3.0656,0.2087,5.1478,-0.2783
745,-0.1916,-9.695,2.9123,0.0,4.5913,-0.2087
750,-0.1533,-9.8483,2.874,-0.2087,4.4522,-0.2087
755,-0.1916,-9.7717,2.7974,-0.4174,4.313,-0.1391
760,-0.1533,-9.7717,2.874,-0.6957,4.2435,-0.2087
765,-0.2299,-9.81,2.7207,-0.9739,4.3826,-0.2087
770,-0.0766,-9.8483,2.7591,-1.3217,4.5913,-0.2783
775,-0.1533,-9.7717,2.7974,-1.3913,5.0087,-0.4174
780,-0.2299,-9.81,2.8357,-1.1826,5.4957,-0.3478
785,-0.2299,-9.8483,2.874,-0.9043,5.9826,-0.487
790,-0.1916,-9.8866,2.9123,-0.4174,6.1913,-0.4174
795,-0.2299,-9.8866,3.1039,0.0696,6.2609,-0.4174
800,-0.3066,-9.7717,2.9123,0.4174,5.913,-0.2783
805,-0.3066,-9.7717,2.8357,0.6261,5.5652,-0.2087
810,-0.3066,-9.81,2.874,0.7652,5.1478,-0.1391
815,-0.1916,-9.81,2.9123,0.7652,4.7304,0.0696
820,-0.1916,-9.8483,2.8357,0.8348,4.3826,0.1391
825,-0.1533,-9.81,2.874,0.6957,4.1043,0.2783
830,-0.1533,-9.8483,2.9507,0.487,3.8261,0.2087
835,-0.2299,-9.81,2.7974,0.487,3.7565,0.0696
840,-0.3832,-9.8483,2.874,0.4174,3.7565,0.0696
845,-0.1916,-9.7717,2.9507,0.4174,3.9652,0.0
850,-0.1533,-9.81,2.7591,0.3478,4.1739,-0.0696
855,-0.2682,-9.8866,2.8357,0.6957,4.3826,-0.2087
860,-0.1916,-9.8483,2.7974,0.7652,4.5913,-0.1391
865,-0.0766,-9.8866,2.7591,0.9043,4.5913,-0.1391
870,-0.2682,-9.81,2.989,1.0435,4.6609,-0.1391
875,-0.2299,-9.81,3.0273,1.0435,4.6609,-0.0696
880,-0.2299,-9.81,2.7974,1.0435,4.4522,-0.0696
885,-0.3066,-9.6567,2.874,0.8348,4.3826,0.0
890,-0.2682,-9.7334,3.0273,0.6957,4.4522,0.0
895,-0.3066,-9.8483,2.9507,0.6957,4.313,0.0
900,-0.2299,-9.7717,2.874,0.7652,4.313,0.0
905,-0.3449,-9.695,2.9123,0.8348,4.3826,-0.0696
910,-0.2682,-9.7717,2.9507,1.113,4.3826,0.0
915,-0.115,-9.7717,2.9507,1.113,4.4522,-0.0696
920,-0.115,-9.7717,2.9123,1.113,4.7304,-0.1391
925,-0.2299,-9.7717,2.8357,0.9043,4.8,-0.2087
930,-0.1533,-9.7334,2.874,0.8348,4.9391,-0.2783
935,-0.3066,-9.7717,2.989,0.8348,4.9391,-0.3478
940,-0.115,-9.7717,2.989,0.6957,5.1478,-0.487
945,-0.2299,-9.695,2.9507,0.6957,5.1478,-0.487
950,-0.1916,-9.7334,2.989,0.5565,5.1478,-0.5565
955,-0.1916,-9.8483,3.1039,0.3478,5.287,-0.487
960,-0.2299,-9.7717,2.9123,0.2783,5.0783,-0.487
965,-0.2299,-9.81,2.9123,0.2783,4.8696,-0.4174
970,-0.1533,-9.8483,3.0656,0.3478,4.5913,-0.3478
975,-0.1533,-9.925,3.0273,0.3478,4.5913,-0.2783
980,-0.115,-9.8866,2.9507,0.2783,4.3826,-0.2087
985,-0.2299,-9.7717,2.874,0.2783,4.2435,-0.2087
990,-0.1916,-9.81,2.9507,0.3478,4.0348,-0.2087
995,-0.2682,-9.81,2.7591,0.2783,4.0348,-0.1391
1000,-0.3066,-9.7717,3.0273,0.2087,4.2435,-0.2087
1005,-0.115,-9.81,3.0656,0.2783,4.313,-0.2783
1010,-0.2682,-9.7334,2.9507,0.0,4.5217,-0.2087
1015,-0.1916,-9.7334,2.9507,-0.0696,4.5913,-0.2087
1020,-0.1916,-9.695,2.9123,0.0,4.7304,-0.4174
1025,-0.1533,-9.7717,3.0273,0.0,4.9391,-0.2783
1030,-0.1916,-9.7717,2.989,-0.0696,5.1478,-0.2783
1035,-0.2682,-9.7717,2.9507,-0.0696,5.287,-0.3478
1040,-0.2299,-9.7717,2.9507,0.0696,5.4261,-0.3478
1045,-0.1533,-9.81,2.9507,0.0,5.2174,-0.2087
1050,-0.2299,-9.7717,2.9507,0.0,5.1478,-0.2783
1055,-0.1533,-9.7334,2.9507,0.0,4.9391,-0.2087
1060,-0.2299,-9.7334,2.989,-0.2087,4.8696,-0.2087
1065,-0.1533,-9.81,2.9123,-0.4174,4.7304,-0.2087
1070,-0.2299,-9.695,2.989,-0.5565,4.5913,-0.2087
1075,-0.0766,-9.7717,2.9123,-0.5565,4.5217,-0.2783
1080,-0.1533,-9.7717,2.9123,-0.487,4.5913,-0.2783
1085,-0.0383,-9.81,2.874,-0.4174,4.6609,-0.2783
1090,-0.1533,-9.7717,3.1423,-0.3478,4.6609,-0.2783
1095,-0.1916,-9.8483,3.0656,-0.2087,4.9391,-0.4174
1100,-0.3449,-9.81,2.9507,-0.2087,5.0783,-0.3478
1105,-0.2682,-9.81,2.989,-0.2783,5.1478,-0.4174
1110,-0.1533,-9.7717,2.9507,-0.2783,5.2174,-0.4174
1115,-0.115,-9.8866,2.874,-0.3478,5.0783,-0.487
1120,-0.2682,-9.7334,3.0656,-0.2087,5.0087,-0.5565
1125,-0.2299,-9.8483,2.9507,-0.2087,4.8,-0.487
1130,-0.2682,-9.8483,2.9507,0.0,4.8,-0.487
1135,-0.2299,-9.8483,2.8357,0.0696,4.8,-0.3478
1140,-0.3066,-9.7717,2.9507,0.1391,4.8696,-0.487
1145,-0.1916,-9.81,2.8357,0.0696,5.1478,-0.5565
1150,-0.2299,-9.81,2.989,-0.0696,5.287,-0.6261
1155,-0.115,-9.81,2.874,0.0,5.3565,-0.5565
1160,-0.1916,-9.7334,2.9507,0.0,5.5652,-0.6261
1165,-0.2299,-9.8483,2.9123,0.1391,5.7739,-0.6957
1170,-0.2299,-9.81,2.989,0.3478,5.913,-0.6261
1175,-0.1533,-9.8483,3.0656,0.6261,5.7043,-0.6261
1180,-0.2682,-9.6567,3.0656,0.8348,5.5652,-0.487
1185,-0.1916,-9.695,2.989,1.0435,5.287,-0.4174
1190,-0.1916,-9.7717,3.0273,1.113,5.0087,-0.3478
1195,-0.3066,-9.7334,2.9507,1.0435,4.8,-0.2087
1200,-0.1533,-9.7334,3.0273,0.8348,4.5913,-0.1391
1205,-0.1533,-9.7717,2.9123,0.6261,4.4522,0.0
1210,-0.1533,-9.81,2.9507,0.2087,4.1043,0.1391
1215,-0.2682,-9.7334,2.7591,-0.2783,3.8957,0.0696
1220,-0.2682,-9.6567,2.9123,-0.8348,3.7565,0.2087
1225,-0.1533,-9.81,3.0273,-1.2522,3.687,0.1391
1230,-0.2682,-9.7334,2.989,-1.5304,3.7565,0.0696
1235,-0.1916,-9.8483,3.1039,-1.7391,3.8957,0.0696
1240,-0.2299,-9.7334,3.0656,-1.7391,4.313,-0.1391
1245,-0.2682,-9.81,3.1423,-1.8087,4.5913,-0.2783
1250,-0.2299,-9.7717,3.0656,-1.6696,4.8,-0.3478
1255,-0.3066,-9.8483,2.9507,-1.5304,5.0783,-0.2783
1260,-0.3066,-9.8866,3.0273,-1.1826,5.3565,-0.4174
1265,-0.2682,-9.8483,3.1039,-1.0435,5.4957,-0.3478
1270,-0.3066,-9.81,2.874,-0.8348,5.5652,-0.487
1275,-0.1533,-9.7717,2.989,-0.7652,5.4957,-0.4174
1280,-0.2682,-9.7334,3.1039,-0.6261,5.3565,-0.2783
1285,-0.1533,-9.7717,3.0273,-0.5565,5.1478,-0.2783
1290,-0.2682,-9.8483,2.9507,-0.487,4.8,-0.2783
1295,-0.2299,-9.81,3.0273,-0.3478,4.5913,-0.2783
1300,-0.3066,-9.7717,2.874,-0.2087,4.5217,-0.3478
1305,-0.3449,-9.7717,3.1039,-0.2783,4.5217,-0.3478
1310,-0.2682,-9.7334,2.989,-0.2783,4.4522,-0.4174
1315,-0.3066,-9.7717,2.7974,-0.2783,4.5217,-0.3478
1320,-0.2299,-9.8483,2.9123,-0.3478,4.5217,-0.3478
1325,-0.1916,-9.8483,2.8357,-0.5565,4.5913,-0.2087
1330,-0.2682,-9.81,2.9123,-0.6261,4.6609,-0.2087
1335,-0.1533,-9.8483,3.0273,-0.6261,4.6609,-0.2783
1340,-0.1916,-9.8483,3.0273,-0.5565,4.7304,-0.2783
1345,-0.1533,-9.7717,3.0656,-0.487,4.8,-0.2783
1350,-0.2299,-9.8866,3.0273,-0.2783,4.9391,-0.2087
1355,-0.1533,-9.925,2.989,0.0,5.0087,-0.2783
1360,-0.3449,-9.81,3.0656,0.0696,5.0783,-0.3478
1365,-0.1916,-9.81,3.0273,0.2087,5.0087,-0.3478
1370,-0.1533,-9.695,3.0656,0.2087,4.8696,-0.2783
1375,-0.1916,-9.81,2.9507,0.2087,4.8,-0.0696
1380,-0.3066,-9.81,2.874,0.0,4.6609,0.0
1385,-0.1916,-9.7717,2.8357,-0.2087,4.5217,0.0696
1390,-0.3066,-9.7717,2.9507,-0.4174,4.3826,0.0
1395,-0.1916,-9.8483,2.989,-0.5565,4.4522,0.2087
1400,-0.2682,-9.7717,2.989,-0.7652,4.313,0.2087
1405,-0.1916,-9.7717,2.9123,-0.9739,4.313,0.1391
1410,-0.1916,-9.8483,2.9123,-1.113,4.3826,0.1391
1415,-0.2299,-9.8483,2.7974,-1.2522,4.4522,0.1391
1420,-0.1916,-9.81,2.9507,-1.2522,4.5217,0.1391
1425,-0.2299,-9.81,2.989,-1.1826,4.6609,0.0696
1430,-0.2682,-9.7717,3.0273,-1.0435,4.5913,0.0
1435,-0.1533,-9.7717,3.0273,-0.9043,4.5913,-0.0696
1440,-0.3066,-9.81,2.9507,-0.8348,4.5217,0.0
1445,-0.3449,-9.7717,3.0273,-0.8348,4.313,0.0696
1450,-0.2299,-9.7334,2.989,-0.8348,4.2435,0.1391
1455,-0.1533,-9.8866,3.0656,-0.8348,4.1739,0.2087
1460,-0.1533,-9.7717,3.0273,-0.7652,4.313,0.2087
1465,-0.3066,-9.7334,3.1039,-0.7652,4.2435,0.2087
1470,-0.1916,-9.7717,3.0656,-0.7652,4.3826,0.2087
1475,-0.2299,-9.81,2.874,-0.6957,4.5217,0.3478
1480,-0.1916,-9.81,3.0273,-0.6957,4.5913,0.2087
1485,-0.1916,-9.695,3.2189,-0.6261,4.5913,0.2783
1490,-0.1916,-9.7717,3.1423,-0.5565,4.3826,0.2087
1495,-0.1916,-9.81,3.1039,-0.4174,4.3826,0.2783
1500,-0.115,-9.7717,2.9123,-0.2783,4.2435,0.2087
1505,-0.2299,-9.81,2.989,-0.3478,4.3826,0.1391
1510,-0.2682,-9.7334,2.9507,-0.4174,4.3826,0.0696
1515,-0.2682,-9.7717,2.8357,-0.5565,4.5913,0.0696
1520,-0.3066,-9.7717,2.874,-0.7652,4.7304,0.0
1525,-0.3449,-9.81,2.8357,-0.9739,4.8,0.0
1530,-0.2682,-9.81,2.874,-1.3217,4.9391,-0.0696
1535,-0.3449,-9.695,2.8357,-1.7391,5.0087,-0.1391
1540,-0.3832,-9.81,2.989,-1.8087,5.1478,-0.2087
1545,-0.2299,-9.7717,3.0273,-1.9478,5.2174,-0.2087
1550,-0.2682,-9.81,2.989,-1.7391,5.1478,-0.2783
1555,-0.2682,-9.81,2.9507,-1.4609,5.0087,-0.1391
1560,-0.2299,-9.695,3.0656,-1.2522,5.0087,-0.2087
1565,-0.0766,-9.8483,3.0273,-0.9739,4.9391,-0.1391
1570,-0.3066,-9.7334,3.0656,-0.9739,4.7304,0.0
1575,-0.3832,-9.7334,3.0273,-0.9739,4.5913,-0.0696
1580,-0.3066,-9.7717,2.989,-0.9043,4.4522,0.0
1585,-0.2682,-9.7717,3.0656,-1.113,4.3826,-0.1391
1590,-0.1916,-9.8866,2.989,-1.2522,4.313,-0.0696
1595,-0.2299,-9.6567,3.1423,-1.2522,4.1739,-0.1391
1600,-0.3449,-9.81,2.7591,-1.2522,4.1739,-0.2087
1605,-0.2299,-9.81,2.9507,-1.0435,4.313,-0.1391
1610,-0.1916,-9.7717,2.9507,-0.8348,4.5913,-0.1391
1615,-0.0766,-9.81,2.874,-0.487,4.8696,-0.2783
1620,-0.3449,-9.695,2.9507,-0.4174,5.1478,-0.4174
1625,-0.2299,-9.81,2.9507,-0.4174,5.287,-0.5565
1630,-0.115,-9.81,2.8357,-0.487,5.4261,-0.6261
1635,-0.1533,-9.8866,3.0656,-0.487,5.4957,-0.6261
1640,-0.2299,-9.695,3.0273,-0.5565,5.3565,-0.7652
1645,-0.2299,-9.695,3.0273,-0.6261,5.2174,-0.6957
1650,-0.1916,-9.7717,3.0656,-0.9043,5.1478,-0.6261
1655,-0.2299,-9.7334,3.0273,-1.113,4.8696,-0.6261
1660,-0.2299,-9.7717,2.9507,-1.3217,4.6609,-0.487
1665,-0.1533,-9.81,3.0273,-1.6,4.5217,-0.4174
1670,-0.1916,-9.7717,3.0656,-1.8087,4.3826,-0.2087
1675,-0.3449,-9.7717,2.9123,-1.8783,4.3826,-0.2087
1680,-0.2299,-9.7717,3.1423,-1.8087,4.3826,-0.1391
1685,-0.1533,-9.8483,2.989,-1.7391,4.3826,-0.0696
1690,-0.115,-9.81,3.1423,-1.5304,4.3826,0.0
1695,-0.2682,-9.695,2.989,-1.4609,4.5217,0.0696
1700,-0.1533,-9.695,2.6058,-1.1826,4.5913,0.0696
1705,-0.3066,-9.7334,2.8357,-1.113,4.6609,0.1391
1710,-0.2682,-9.7717,2.7974,-1.113,4.5913,-0.0696
1715,-0.2299,-9.81,2.8357,-1.0435,4.5913,-0.1391
1720,-0.2682,-9.81,2.874,-1.1826,4.6609,-0.1391
1725,-0.3449,-9.7334,2.9507,-1.3217,4.6609,-0.1391
1730,-0.1916,-9.7717,2.874,-1.3217,4.5913,-0.2783
1735,-0.1533,-9.81,2.989,-1.2522,4.5913,-0.2783
1740,-0.2682,-9.81,3.0273,-1.3217,4.5217,-0.3478
1745,-0.2299,-9.7717,2.9123,-1.3217,4.5217,-0.2783
1750,-0.2299,-9.8483,2.989,-1.3913,4.5217,-0.2783
1755,-0.1916,-9.81,2.989,-1.3913,4.5217,-0.2087
1760,-0.2682,-9.81,3.0656,-1.4609,4.5913,-0.2783
1765,-0.1916,-9.7717,2.989,-1.5304,4.5913,-0.2783
1770,-0.2682,-9.7717,2.9123,-1.5304,4.5913,-0.4174
1775,-0.2682,-9.7334,2.989,-1.5304,4.5913,-0.4174
1780,-0.1916,-9.8483,2.9507,-1.5304,4.5217,-0.3478
1785,-0.2299,-9.7717,2.9507,-1.4609,4.5217,-0.3478
1790,-0.1916,-9.8483,2.9507,-1.3913,4.6609,-0.4174
1795,-0.1533,-9.7717,2.7974,-1.3217,4.7304,-0.3478
1800,-0.2682,-9.81,2.9123,-1.3913,4.7304,-0.4174
1805,-0.1533,-9.81,2.874,-1.3217,4.6609,-0.3478
1810,-0.4215,-9.695,2.8357,-1.2522,4.5217,-0.3478
1815,-0.1916,-9.8483,2.874,-1.3217,4.2435,-0.3478
1820,-0.2682,-9.81,2.9123,-1.3913,4.1739,-0.3478
1825,-0.1533,-9.81,3.0273,-1.6,4.2435,-0.4174
1830,-0.2299,-9.7717,2.9507,-1.7391,4.1739,-0.2783
1835,-0.2299,-9.81,3.0273,-1.8087,4.2435,-0.4174
1840,-0.1916,-9.7717,2.9507,-1.8087,4.313,-0.4174
1845,-0.3066,-9.7334,2.874,-1.8783,4.4522,-0.5565
1850,-0.2682,-9.8483,2.989,-1.8783,4.5913,-0.5565
1855,-0.1916,-9.8866,2.989,-1.6696,4.5913,-0.6261
1860,-0.2299,-9.81,2.8357,-1.5304,4.5217,-0.5565
1865,-0.3066,-9.7717,2.9507,-1.3913,4.6609,-0.487
1870,-0.2299,-9.81,2.9507,-1.2522,4.6609,-0.487
1875,-0.2299,-9.7717,3.0273,-1.3217,4.8,-0.5565
1880,-0.2299,-9.7334,2.9123,-1.2522,4.8,-0.487
1885,-0.2682,-9.7717,2.8357,-1.4609,4.9391,-0.487
1890,-0.2299,-9.7717,2.7974,-1.5304,5.0087,-0.5565
1895,-0.1533,-9.7334,3.0273,-1.8087,4.9391,-0.487
1900,-0.115,-9.7334,3.0273,-2.0174,5.0087,-0.487
1905,-0.1533,-9.7334,2.9507,-1.9478,5.0087,-0.487
1910,-0.2299,-9.7717,2.874,-1.8783,4.9391,-0.5565
1915,-0.2299,-9.7334,2.9123,-1.8783,4.7304,-0.4174
1920,-0.0766,-9.8483,2.989,-1.8087,4.6609,-0.4174
1925,-0.2682,-9.7717,2.9507,-1.6696,4.5913,-0.4174
1930,-0.1533,-9.81,2.9507,-1.5304,4.4522,-0.2087
1935,-0.1916,-9.8483,2.9123,-1.5304,4.2435,-0.2087
1940,-0.3066,-9.7717,2.989,-1.5304,4.1043,-0.1391
1945,-0.2299,-9.8483,2.7974,-1.6,4.1043,-0.1391
1950,-0.1916,-9.8483,2.989,-1.6,4.1043,-0.2087
1955,-0.2682,-9.81,2.9507,-1.5304,4.2435,-0.1391
1960,-0.2299,-9.7334,2.9123,-1.4609,4.313,-0.2783
1965,-0.2682,-9.81,2.989,-1.5304,4.3826,-0.3478
1970,-0.2682,-9.7717,2.989,-1.3913,4.5913,-0.487
1975,-0.3066,-9.7717,2.989,-1.3913,4.7304,-0.5565
1980,-0.1916,-9.7717,2.9507,-1.2522,4.9391,-0.6261
1985,-0.2299,-9.81,2.9507,-1.1826,5.0087,-0.7652
1990,-0.2682,-9.7334,2.989,-1.1826,5.1478,-0.8348
1995,-0.3066,-9.7334,3.0656,-1.113,5.1478,-0.9043
2000,-0.2299,-9.81,2.9123,-1.0435,5.0783,-0.9043
2005,-0.3066,-9.7717,2.9507,-1.0435,5.0783,-0.9043
2010,-0.1916,-9.81,3.0273,-0.9739,4.8,-0.6957
2015,-0.3449,-9.7334,2.874,-1.0435,4.6609,-0.6261
2020,-0.1916,-9.81,2.8357,-0.9739,4.4522,-0.5565
2025,-0.2299,-9.6567,2.9123,-1.113,4.3826,-0.4174
2030,-0.3066,-9.8483,3.2189,-1.1826,4.1739,-0.2783
2035,-0.2299,-9.7717,2.9123,-1.1826,4.1043,-0.2087
2040,-0.2682,-9.7717,2.9123,-1.2522,4.1739,-0.2087
2045,-0.1916,-9.81,3.0273,-1.2522,4.1043,-0.1391
2050,-0.1916,-9.7334,2.9507,-1.3913,4.1043,-0.1391
2055,-0.2299,-9.7717,2.8357,-1.4609,4.1043,-0.1391
2060,-0.1916,-9.7717,2.9507,-1.5304,4.3826,-0.2087
2065,-0.1916,-9.7717,3.0273,-1.6,4.5913,-0.2087
2070,-0.2682,-9.695,2.989,-1.7391,4.7304,-0.2783
2075,-0.0383,-9.81,3.1039,-1.6,4.8,-0.2783
2080,-0.1916,-9.81,2.874,-1.6,4.8,-0.4174
2085,-0.2682,-9.7334,2.9123,-1.5304,4.7304,-0.4174
2090,-0.2682,-9.81,2.9507,-1.3913,4.7304,-0.487
2095,-0.1916,-9.8483,2.9507,-1.2522,4.6609,-0.487
2100,-0.2682,-9.81,3.0273,-1.3217,4.5913,-0.4174
2105,-0.1533,-9.81,2.9507,-1.3913,4.4522,-0.4174
2110,-0.1916,-9.81,3.0273,-1.3913,4.5217,-0.4174
2115,-0.3066,-9.7717,3.0273,-1.4609,4.5913,-0.487
2120,-0.1533,-9.7717,2.9123,-1.5304,4.5913,-0.5565
2125,-0.1916,-9.8483,3.0273,-1.6696,4.5217,-0.487
2130,-0.3066,-9.7717,2.9507,-1.6696,4.5217,-0.4174
2135,-0.0766,-9.925,3.0273,-1.7391,4.4522,-0.487
2140,-0.1916,-9.81,2.7974,-1.6,4.5217,-0.487
2145,-0.1533,-9.8866,2.989,-1.5304,4.6609,-0.487
2150,-0.2299,-9.81,2.9507,-1.6,4.6609,-0.4174
2155,-0.2682,-9.7334,2.8357,-1.6696,4.8,-0.2783
2160,-0.3066,-9.81,2.9123,-1.7391,4.7304,-0.3478
2165,-0.1916,-9.8483,2.9507,-1.7391,4.7304,-0.3478
2170,-0.2299,-9.7717,2.9123,-1.8087,4.5913,-0.3478
2175,-0.0766,-9.8866,2.9123,-1.8783,4.5913,-0.3478
2180,-0.1916,-9.7334,2.874,-2.0174,4.5913,-0.2087
2185,-0.1533,-9.81,2.8357,-2.1565,4.4522,-0.2087
2190,-0.1533,-9.81,2.874,-2.1565,4.5913,-0.2087
2195,-0.2299,-9.7717,2.9507,-2.1565,4.7304,-0.1391
2200,-0.1916,-9.7717,2.9123,-2.0174,4.7304,-0.1391
2205,-0.2682,-9.7717,3.0273,-1.8783,4.6609,-0.1391
2210,-0.1916,-9.8866,3.1039,-1.5304,4.5913,-0.2087
2215,-0.2299,-9.7717,2.9507,-1.2522,4.5217,-0.2087
2220,-0.2299,-9.7334,3.0656,-0.9739,4.4522,-0.2087
2225,-0.1916,-9.7717,2.989,-0.7652,4.5217,-0.1391
2230,-0.2299,-9.7717,2.989,-0.5565,4.4522,-0.0696
2235,-0.1916,-9.7334,2.9507,-0.487,4.5217,-0.0696
2240,-0.1533,-9.7717,3.0273,-0.4174,4.5217,-0.0696
2245,-0.2682,-9.7717,2.9507,-0.5565,4.4522,0.0
2250,0.0,-9.81,2.9123,-0.7652,4.5913,0.0
2255,-0.115,-9.81,2.8357,-1.0435,4.4522,0.0
2260,-0.1533,-9.7717,2.874,-1.4609,4.5217,0.0696
2265,-0.2299,-9.7717,2.9123,-1.8087,4.5217,0.0696
2270,-0.1916,-9.81,2.874,-2.1565,4.5913,0.1391
2275,-0.1916,-9.81,2.874,-2.5043,4.5913,0.2087
2280,-0.1916,-9.81,2.989,-2.5739,4.7304,0.2087
2285,-0.0383,-9.81,2.8357,-2.5739,4.8696,0.2783
2290,0.0,-9.81,2.7974,-2.5043,4.8696,0.487
2295,-0.0766,-9.7717,2.8357,-2.2957,5.0783,0.487
2300,-0.1533,-9.81,2.9123,-2.1565,5.0783,0.6261
2305,-0.0383,-9.7334,2.989,-2.087,5.0783,0.6261
2310,-0.1533,-9.81,2.8357,-2.0174,5.1478,0.6957
2315,-0.1916,-9.7717,2.8357,-1.8783,5.1478,0.7652
2320,-0.1533,-9.7717,2.9507,-1.8087,5.287,0.8348
2325,-0.1533,-9.7717,2.8357,-1.7391,5.3565,0.7652
2330,-0.115,-9.8866,2.9123,-1.8783,5.287,0.487
2335,-0.2299,-9.81,2.9123,-2.0174,5.4261,0.487
2340,-0.3066,-9.7334,2.9507,-2.3652,5.4957,0.4174
2345,-0.3066,-9.7334,2.874,-2.5739,5.4957,0.2087
2350,-0.2299,-9.81,2.8357,-2.713,5.3565,0.2087
2355,-0.1533,-9.81,2.7207,-2.9913,5.1478,0.2087
2360,-0.2682,-9.7717,2.6824,-3.1304,4.9391,0.1391
2365,-0.1916,-9.8483,2.9123,-3.2696,4.8696,0.2087
2370,-0.1916,-9.8483,2.874,-3.2696,4.7304,0.1391
2375,-0.2682,-9.8483,2.7974,-3.4087,4.8696,0.2087
2380,-0.1916,-9.81,2.874,-3.4783,4.8,0.2087
2385,-0.2682,-9.9633,2.8357,-3.5478,4.8696,0.2783
2390,-0.1916,-9.8483,2.6824,-3.3391,4.8696,0.2087
2395,-0.2682,-9.81,3.0273,-3.3391,5.0087,0.2783
2400,-0.2299,-9.8483,2.9123,-3.2696,5.0783,0.3478
2405,-0.3449,-9.8483,2.8357,-3.2,5.3565,0.2783
2410,-0.3066,-9.81,2.6824,-3.2,5.3565,0.3478
2415,-0.2299,-9.8866,2.7207,-3.2,5.3565,0.3478
2420,-0.2682,-9.8866,2.6824,-3.1304,5.3565,0.3478
2425,-0.3449,-9.8483,2.7207,-3.1304,5.1478,0.3478
2430,-0.3066,-9.8483,2.7974,-3.0609,5.0783,0.2783
2435,-0.2299,-9.925,2.6441,-3.1304,5.2174,0.1391
2440,-0.3832,-9.8866,2.7974,-3.1304,5.287,-0.0696
2445,-0.3066,-9.925,2.6441,-2.9913,5.3565,-0.1391
2450,-0.3832,-9.8483,2.6824,-2.8522,5.3565,-0.2783
2455,-0.4215,-9.8866,2.7591,-2.6435,5.4261,-0.487
2460,-0.4982,-9.8866,2.7591,-2.3652,5.4957,-0.6261
2465,-0.4982,-9.8483,2.874,-1.9478,5.5652,-0.8348
2470,-0.3832,-9.8866,2.7591,-1.4609,5.7043,-0.9739
2475,-0.2682,-9.8866,2.7974,-1.0435,5.8435,-1.1826
2480,-0.2299,-9.8866,2.8357,-0.6261,5.913,-1.2522
2485,-0.2682,-9.81,2.6824,-0.2783,5.7043,-1.2522
2490,-0.2682,-9.8866,2.8357,0.0,5.7739,-1.3217
2495,-0.2682,-9.81,2.9507,0.2783,5.5652,-1.3217
2500,-0.3449,-9.8483,2.9507,0.5565,5.4261,-1.2522
2505,-0.2682,-9.8866,2.7591,0.6261,5.3565,-1.2522
2510,-0.1533,-9.925,2.874,0.8348,5.0783,-1.1826
2515,-0.2299,-9.8483,2.874,1.0435,4.9391,-1.0435
2520,-0.115,-9.81,2.7974,1.3913,4.7304,-0.9739
2525,0.0766,-9.7717,3.2955,1.8087,4.6609,-0.9043
2530,-0.1916,-9.925,2.989,2.0174,4.4522,-0.6957
2535,-0.1533,-9.81,2.5291,2.087,4.2435,-0.4174
2540,-0.0766,-10.1549,2.6824,1.9478,4.0348,-0.4174
2545,0.0766,-9.8483,2.989,1.7391,3.9652,-0.4174
2550,-0.0766,-9.9633,3.0273,1.4609,3.8261,-0.2087
2555,0.115,-9.5418,2.6441,1.2522,4.1043,-0.2087
2560,0.3066,-9.4268,2.7974,1.1826,4.1043,-0.2087
2565,0.3832,-9.8483,2.6058,1.3913,4.1043,-0.1391
2570,0.2682,-9.7717,2.989,1.6,3.8957,-0.1391
2575,-0.2299,-9.7717,3.0273,1.8783,3.7565,-0.0696
2580,-0.1916,-9.7717,2.8357,2.0174,3.687,0.0
2585,0.0,-9.8866,2.874,2.2261,3.687,0.0
2590,-0.2299,-9.7334,3.0273,2.2261,3.8261,0.0696
2595,0.115,-9.81,3.0273,2.2261,4.0348,0.0
2600,-0.1533,-10.0016,3.4488,2.1565,4.1739,0.0
2605,-0.2682,-10.0399,2.9507,2.1565,4.313,-0.1391
2610,-0.0766,-9.5801,2.874,1.9478,4.4522,0.0
2615,-0.115,-9.7717,3.0656,1.9478,4.6609,0.0
2620,-0.2299,-9.7334,2.7591,1.8783,4.9391,-0.1391
2625,0.0383,-9.8866,2.7591,1.7391,5.2174,-0.0696
2630,-0.3066,-9.9633,3.0656,1.3913,5.3565,-0.0696
2635,-0.2682,-9.81,2.874,1.3217,5.7043,0.0696
2640,0.0,-10.0399,2.9123,1.2522,5.7739,0.1391
2645,0.115,-10.0399,2.9123,1.4609,5.8435,0.1391
2650,-0.2299,-9.8483,2.874,1.8087,5.7739,0.2783
2655,-0.1533,-9.81,3.0273,2.2261,5.7043,0.2783
2660,-0.115,-9.925,2.9123,2.4348,5.4261,0.2783
2665,-0.115,-10.0016,2.8357,2.5739,5.0783,0.3478
2670,-0.5365,-10.2315,2.9123,2.6435,4.8696,0.2783
2675,-0.0766,-9.925,2.3375,2.6435,4.8696,0.2087
2680,-0.4215,-9.6184,2.3375,2.5739,4.9391,0.2087
2685,-0.0766,-9.5034,2.9123,2.5043,5.287,0.2783
2690,-0.2682,-9.695,2.7974,2.6435,5.6348,0.1391
2695,-0.2299,-9.6567,2.9123,2.8522,5.7043,0.0696
2700,-0.1916,-9.6567,2.9507,2.9913,5.9826,0.1391
2705,0.0766,-9.8483,2.8357,2.9217,6.2609,0.0
2710,-0.1533,-9.7334,3.1039,2.713,6.4,0.0
2715,-0.0766,-9.8483,2.6441,2.3652,6.8174,0.0696
2720,-0.0766,-9.3885,2.989,1.9478,7.1652,0.0696
2725,-0.1916,-9.7717,2.989,1.4609,7.3043,0.2087
2730,-0.1533,-9.7717,2.7974,0.7652,7.2348,0.3478
2735,-0.2682,-9.7334,2.989,0.0696,7.0261,0.2783
2740,-0.2299,-9.7717,3.0273,-0.6957,6.887,0.5565
2745,-0.0383,-9.7717,3.0656,-1.3217,6.6087,0.6957
2750,-0.115,-9.6184,3.2572,-1.8087,6.4696,0.7652
2755,-0.3449,-10.1932,3.1039,-2.4348,6.7478,0.6957
2760,-0.2682,-9.7717,2.874,-2.8522,6.9565,0.487
2765,-0.0766,-9.695,3.2955,-3.2696,7.3739,0.2783
2770,-0.2682,-9.5034,3.1039,-3.5478,7.7913,0.1391
2775,-0.2299,-9.7717,2.8357,-3.8261,8.1391,-0.1391
2780,-0.3066,-9.7334,2.7591,-4.1043,8.4174,-0.4174
2785,-0.2299,-9.6184,2.7207,-4.8696,8.6261,-0.7652
2790,-0.1916,-9.695,3.1423,-5.9826,8.8348,-1.1826
2795,-0.2299,-9.4268,2.6824,-7.513,8.7652,-1.6
2800,-0.2682,-9.6184,2.989,-9.1826,8.9739,-1.8087
2805,-0.2682,-9.695,2.9507,-11.0609,9.113,-2.1565
2810,-0.3449,-9.6567,2.9507,-13.1478,9.1826,-2.2957
2815,-0.3449,-9.6567,3.0273,-15.0957,9.113,-2.5043
2820,-0.9197,-9.695,3.1423,-16.5565,8.9043,-2.8522
2825,-0.115,-9.5801,3.1423,-17.4609,8.8348,-2.9913
2830,-0.3832,-9.7334,3.5255,-18.1565,8.6957,-3.1304
2835,-0.4982,-9.5418,3.2189,-18.7826,8.487,-3.4783
2840,-0.4982,-9.4268,3.2189,-19.4783,8.3478,-3.8957
2845,-0.4598,-9.3885,3.0656,-20.3826,8.2783,-4.313
2850,-0.5748,-9.4651,2.874,-21.5652,8.2087,-4.7304
2855,-0.5748,-9.2735,2.9507,-23.1652,8.2783,-5.2174
2860,-0.2299,-9.0053,2.9507,-25.5304,8.4174,-5.7739
2865,-0.4982,-9.1202,2.9507,-28.3826,8.6261,-6.1217
2870,-0.4982,-8.737,2.874,-31.6522,8.6957,-6.5391
2875,-0.3832,-9.0819,2.9123,-35.0609,8.6957,-6.8174
2880,-0.4215,-9.1586,2.874,-38.4,8.4174,-7.0261
2885,-0.5365,-9.1586,2.7591,-41.9478,8.2087,-7.3043
2890,-0.4598,-9.1586,2.8357,-45.5652,7.7913,-7.513
2895,-0.4982,-9.0436,2.4908,-49.2522,7.3043,-7.5826
2900,-0.1533,-9.5034,2.8357,-53.4261,7.0261,-7.7217
2905,-0.5365,-9.0819,3.4871,-58.0174,6.7478,-8.0696
2910,-0.2682,-8.6987,3.1039,-62.9565,6.6087,-8.2087
2915,-0.6898,-8.6604,2.989,-67.8957,6.4,-8.5565
2920,-0.1533,-8.9286,3.0656,-71.5826,6.4696,-8.8348
2925,-0.6131,-8.852,2.8357,-75.6174,6.6087,-9.113
2930,-0.3832,-9.6184,3.1039,-79.3043,6.7478,-9.2522
2935,-0.6131,-9.5034,3.2189,-82.713,6.4696,-9.2522
2940,-0.115,-9.925,2.9123,-85.7043,5.6348,-9.113
2945,0.0766,-9.5034,3.5255,-88.3478,4.8,-8.9739
2950,-0.2299,-9.695,3.1806,-90.5043,3.8957,-8.6957
2955,-0.2682,-9.8866,3.1806,-92.5913,2.9913,-8.2783
2960,-0.3066,-10.1549,3.3339,-94.3304,2.0174,-7.3043
2965,-0.3066,-10.2698,3.1039,-95.513,0.5565,-6.4
2970,0.0383,-10.5764,2.8357,-96.5565,-0.6261,-6.1913
2975,0.0,-10.6914,2.7591,-97.0435,-0.7652,-6.1217
2980,0.0766,-10.5764,2.5675,-96.6957,-0.3478,-6.1217
2985,0.1916,-10.2698,2.6441,-96.2783,0.0,-6.0522
2990,0.1533,-10.0399,1.8011,-96.1391,0.4174,-6.0522
2995,0.3449,-10.1166,1.916,-96.487,1.6696,-6.9565
