timestamp,accX,accY,accZ,gyroX,gyroY,gyroZ
0,-9.81,-0.6131,1.8394,6.1217,0.2783,-1.2522
5,-9.7717,-0.6131,1.8394,6.1913,0.5565,-1.2522
10,-9.81,-0.5748,1.8011,6.1217,0.6957,-1.1826
15,-9.7717,-0.6514,1.7627,5.9826,0.7652,-0.9739
20,-9.7717,-0.6131,1.8011,5.9826,0.8348,-0.9043
25,-9.81,-0.6514,1.7627,6.0522,1.0435,-0.8348
30,-9.8866,-0.6898,1.7627,6.1217,1.113,-0.9043
35,-9.7717,-0.6898,1.6861,6.1913,1.0435,-0.7652
40,-9.8483,-0.6131,1.6095,6.3304,0.9043,-0.8348
45,-9.7717,-0.5748,1.7244,6.6087,0.6957,-0.8348
50,-9.8483,-0.6514,1.6478,6.887,0.5565,-0.8348
55,-9.8483,-0.5748,1.6478,6.887,0.4174,-0.6261
60,-9.7717,-0.5748,1.5711,6.8174,0.487,-0.6957
65,-9.8483,-0.6131,1.6095,6.3304,0.487,-0.487
70,-9.8483,-0.5365,1.6478,6.0522,0.3478,-0.3478
75,-9.8483,-0.4982,1.6861,5.7043,0.2087,0.2087
80,-10.0016,-0.6514,1.8011,5.3565,0.0,0.6261
85,-9.6567,-0.3832,1.6861,4.6609,-0.4174,1.3913
90,-9.8866,-0.4598,1.6095,4.3826,-0.3478,1.113
95,-9.7717,-0.3832,1.8011,4.0348,-0.1391,1.0435
100,-9.8483,-0.4598,1.8394,3.4783,-0.1391,0.9739
105,-9.8866,-0.4598,1.5328,2.9913,-0.3478,1.0435
110,-9.8483,-0.4598,1.3795,2.713,-0.2783,0.9739
115,-9.81,-0.4598,1.6861,2.5043,-0.2783,0.9043
120,-9.81,-0.6131,1.7244,2.2261,-0.2087,1.0435
125,-9.8483,-0.5748,1.4562,1.9478,0.0,1.0435
130,-9.81,-0.5365,1.7244,1.7391,0.2087,1.0435
135,-9.8866,-0.6131,1.6478,1.6696,0.4174,1.0435
140,-9.925,-0.5365,1.5711,1.6696,0.4174,1.0435
145,-9.7334,-0.6898,1.5328,1.7391,0.5565,0.8348
150,-9.925,-0.5365,1.7244,1.8087,0.4174,0.6957
155,-9.81,-0.7281,1.7244,1.9478,0.4174,0.6261
160,-9.81,-0.6514,1.7244,1.9478,0.2087,0.487
165,-9.7717,-0.6514,1.7627,2.1565,0.1391,0.4174
170,-9.6567,-0.5748,1.8777,2.1565,0.0,0.487
175,-9.8483,-0.3832,1.8011,2.3652,-0.1391,0.487
180,-9.8866,-0.3832,1.6095,2.4348,-0.3478,0.5565
185,-9.7334,-0.6131,1.6478,2.4348,-0.5565,0.7652
190,-9.8483,-0.5748,1.6095,2.2957,-0.6957,0.7652
195,-9.925,-0.6131,1.6861,2.2957,-0.7652,0.9043
200,-9.9633,-0.5365,1.6478,2.2957,-0.9739,0.9043
205,-9.7717,-0.6131,1.8011,2.2261,-0.9739,0.9043
210,-9.7334,-0.6514,1.8011,2.5043,-1.0435,0.6957
215,-9.925,-0.6131,1.4562,2.8522,-0.9043,0.5565
220,-9.81,-0.6898,1.6861,3.2,-1.0435,0.3478
225,-9.81,-0.5748,1.8011,3.4783,-0.9043,0.2087
230,-9.925,-0.4982,1.5711,3.7565,-0.9043,-0.0696
235,-9.7334,-0.6514,1.7627,3.8957,-1.0435,-0.0696
240,-9.8866,-0.5748,1.6478,3.8957,-1.0435,-0.2087
245,-9.8483,-0.4982,1.7627,3.9652,-1.113,-0.2087
250,-9.7717,-0.5365,1.916,3.9652,-1.113,-0.2087
255,-9.8483,-0.6131,1.7244,3.9652,-1.0435,-0.0696
260,-9.8483,-0.3832,1.8394,4.0348,-1.0435,-0.2783
265,-9.7334,-0.5748,1.8394,4.1043,-0.9739,-0.2783
270,-9.81,-0.4982,1.8394,4.2435,-0.9739,-0.3478
275,-9.8866,-0.5748,1.8394,4.313,-0.7652,-0.6261
280,-9.6567,-0.6131,1.8394,4.313,-0.3478,-0.6957
285,-9.81,-0.5365,1.8777,4.313,-0.2087,-0.7652
290,-9.7717,-0.5365,1.6861,4.313,-0.0696,-0.7652
295,-9.81,-0.5365,1.8011,4.4522,-0.0696,-0.9043
300,-9.925,-0.3449,1.7244,4.5913,0.0,-0.9043
305,-9.8483,-0.4598,1.8011,4.7304,0.0,-0.9739
310,-9.81,-0.3832,1.7244,4.9391,0.1391,-0.9739
315,-9.7717,-0.5365,2.031,5.0087,0.1391,-1.0435
320,-9.7717,-0.4982,1.8394,5.0783,0.3478,-1.113
325,-9.81,-0.4982,1.916,5.0087,0.487,-1.1826
330,-9.925,-0.6514,1.8394,4.8696,0.5565,-0.9739
335,-9.695,-0.5748,1.8011,4.5913,0.4174,-0.6261
340,-9.6567,-0.5748,1.916,4.8,0.6261,-0.8348
345,-9.81,-0.5365,1.8777,4.8696,0.8348,-1.2522
350,-9.81,-0.5748,1.8011,4.8,1.1826,-1.1826
355,-9.695,-0.4982,1.8394,4.6609,1.3913,-1.1826
360,-9.81,-0.4598,1.8011,4.5217,1.6,-1.2522
365,-9.7717,-0.6131,1.7244,4.3826,1.8087,-1.2522
370,-9.81,-0.4982,1.7627,4.313,2.0174,-1.2522
375,-9.7717,-0.5365,1.8011,4.313,2.1565,-1.3217
380,-9.7717,-0.5365,1.916,4.3826,2.1565,-1.3217
385,-9.7334,-0.6131,1.8394,4.4522,2.2957,-1.4609
390,-9.8483,-0.4982,1.8011,4.4522,2.2957,-1.5304
395,-9.7717,-0.4982,1.8777,4.5217,2.3652,-1.5304
400,-9.7717,-0.4982,1.9543,4.4522,2.3652,-1.3913
405,-9.81,-0.4215,1.8011,4.313,2.4348,-1.3217
410,-9.8483,-0.6514,1.7627,4.1739,2.3652,-1.1826
415,-9.7717,-0.5748,1.7244,4.0348,2.5043,-1.0435
420,-9.8866,-0.4982,1.7627,3.8957,2.4348,-0.8348
425,-9.8483,-0.7664,1.7244,3.8957,2.4348,-0.6957
430,-9.81,-0.6131,1.7244,3.687,2.3652,-0.7652
435,-9.7717,-0.4982,1.7627,3.5478,2.5739,-0.6261
440,-9.7334,-0.6898,1.7627,3.5478,2.5739,-0.6261
445,-9.8483,-0.5365,1.8011,3.3391,2.6435,-0.4174
450,-9.9633,-0.5365,1.7244,3.2,2.713,-0.2783
455,-9.8866,-0.5748,1.8011,3.1304,2.713,-0.3478
460,-9.8483,-0.4982,1.7244,3.0609,2.5043,-0.2087
465,-9.8483,-0.6131,1.7244,2.9217,2.5043,-0.0696
470,-9.695,-0.6131,1.8011,2.7826,2.2957,0.0
475,-9.9633,-0.5365,1.8011,2.6435,2.2957,0.3478
480,-9.8483,-0.6514,1.5711,2.5739,2.087,0.6261
485,-9.8483,-0.6131,1.6861,2.4348,2.0174,0.6957
490,-9.925,-0.4982,1.6861,2.5043,2.0174,0.7652
495,-9.7717,-0.6131,1.6861,2.5043,1.8087,0.8348
500,-9.8483,-0.4982,1.7244,2.4348,1.7391,0.9043
505,-9.8866,-0.4215,1.6095,2.4348,1.6,0.7652
510,-9.81,-0.4982,1.6095,2.3652,1.5304,0.7652
515,-9.8866,-0.3832,1.5711,2.2957,1.3913,0.487
520,-9.925,-0.5365,1.6478,2.2261,1.3217,0.3478
525,-9.925,-0.5365,1.6095,2.1565,1.3217,0.2087
530,-9.8483,-0.4598,1.6478,2.087,1.1826,0.2087
535,-9.925,-0.5748,1.6861,2.1565,1.113,0.2087
540,-9.8483,-0.5748,1.7244,2.1565,0.9739,0.2087
545,-9.8866,-0.5365,1.6478,2.2261,0.8348,0.3478
550,-9.81,-0.5365,1.7244,2.2261,0.7652,0.2783
555,-9.81,-0.5748,1.7244,2.4348,0.6261,0.2783
560,-9.8483,-0.6514,1.7627,2.713,0.487,0.2783
565,-9.8866,-0.3832,1.7627,2.713,0.3478,0.1391
570,-9.925,-0.4598,1.5328,2.8522,0.2087,0.1391
575,-9.8483,-0.6131,1.6095,3.1304,0.0,0.1391
580,-9.7717,-0.6131,1.6861,3.4087,0.0,0.1391
585,-9.8483,-0.5365,1.4945,3.4783,-0.0696,0.2783
590,-9.81,-0.3449,1.6095,3.5478,0.0,0.2087
595,-9.81,-0.4982,1.6478,3.4783,0.0,0.2783
600,-9.7717,-0.4598,1.6478,3.4087,0.0696,0.3478
605,-9.7717,-0.5365,1.7244,3.2696,0.0696,0.4174
610,-9.7717,-0.5748,1.6861,2.9913,0.0696,0.4174
615,-9.7334,-0.4982,1.6861,2.8522,0.0,0.2783
620,-9.8866,-0.4982,1.7627,2.6435,0.0,0.0696
625,-9.7717,-0.6131,1.6478,2.5043,0.1391,0.0
630,-9.8483,-0.6131,1.7244,2.5043,0.2087,-0.1391
635,-9.7334,-0.4215,1.7627,2.4348,0.2087,-0.2087
640,-9.695,-0.6131,1.7627,2.6435,0.2783,-0.2783
645,-9.6567,-0.4598,1.3029,2.7826,0.2783,-0.3478
650,-9.7334,-0.6131,1.6478,2.9913,0.3478,-0.487
655,-9.8483,-0.4982,1.8011,3.2696,0.2087,-0.487
660,-9.695,-0.5748,1.8777,3.6174,0.3478,-0.6261
665,-9.8483,-0.5748,1.8777,3.8261,0.2783,-0.5565
670,-9.8866,-0.4598,1.8394,4.0348,0.3478,-0.5565
675,-9.9633,-0.3832,1.6861,4.0348,0.2783,-0.6261
680,-9.8866,-0.5748,1.7244,4.1043,0.3478,-0.7652
685,-9.8866,-0.5365,1.7627,4.1739,0.487,-0.8348
690,-9.7717,-0.4598,1.8011,4.1043,0.6261,-0.9043
695,-9.7717,-0.5748,1.8011,4.1043,0.7652,-0.8348
700,-9.8483,-0.4982,1.8777,4.1043,0.9043,-0.9043
705,-9.8866,-0.4598,1.6478,4.1043,0.9739,-0.8348
710,-9.8483,-0.5748,1.7244,4.0348,1.113,-0.7652
715,-9.7717,-0.4598,1.8011,4.0348,1.2522,-0.9739
720,-9.81,-0.3066,1.8394,4.0348,1.3217,-1.0435
725,-9.7334,-0.4598,1.8011,4.0348,1.3913,-1.2522
730,-9.81,-0.4598,1.7244,3.8957,1.3913,-1.2522
735,-9.8483,-0.4598,1.6861,3.7565,1.6,-1.1826
740,-9.7717,-0.4598,1.8394,3.5478,1.6696,-1.3217
745,-9.925,-0.4982,1.6861,3.4783,1.7391,-1.113
750,-9.7334,-0.7281,1.6861,3.2696,1.8087,-1.1826
755,-9.81,-0.5365,1.7244,3.2696,1.9478,-0.9739
760,-9.7717,-0.4982,1.6095,3.2,1.9478,-0.9739
765,-9.7334,-0.6898,1.7244,3.2,1.9478,-0.9043
770,-9.81,-0.4215,1.9543,3.2696,1.9478,-1.0435
775,-9.7334,-0.6514,1.7627,3.2696,1.8783,-0.9739
780,-9.7717,-0.6131,1.6861,3.4087,1.8783,-0.9043
785,-9.81,-0.6131,1.8394,3.6174,1.8087,-1.113
790,-9.81,-0.6514,1.8394,3.8261,1.7391,-1.113
795,-9.7717,-0.6131,1.6478,4.1739,1.8783,-1.113
800,-9.7717,-0.4982,1.5711,4.5217,1.8783,-1.0435
805,-9.81,-0.4598,1.7244,4.7304,1.8783,-1.1826
810,-9.8866,-0.4982,1.8011,4.9391,1.9478,-0.9739
815,-9.8483,-0.5365,1.6861,5.0087,1.9478,-0.7652
820,-9.8866,-0.5365,1.6861,5.0087,1.9478,-0.487
825,-9.9633,-0.3832,1.6478,4.7304,1.8783,-0.4174
830,-9.8866,-0.4598,1.8394,4.3826,1.8087,-0.2783
835,-9.7334,-0.4982,1.8011,4.0348,1.7391,-0.1391
840,-9.81,-0.4982,1.8394,3.8957,1.6696,0.0
845,-9.81,-0.5748,1.8011,3.5478,1.8087,0.1391
850,-9.8866,-0.4598,1.6478,3.2,1.8087,0.2783
855,-9.8483,-0.4982,1.6478,2.9913,1.9478,0.3478
860,-9.8483,-0.3832,1.6478,2.5739,1.8783,0.3478
865,-9.7717,-0.4982,1.6095,2.3652,1.8783,0.4174
870,-9.925,-0.3449,1.7244,2.087,1.6696,0.2783
875,-9.8866,-0.3832,1.7627,1.7391,1.6,0.3478
880,-9.7334,-0.3832,1.6095,1.3913,1.6,0.3478
885,-9.81,-0.3449,1.5328,1.1826,1.6,0.3478
890,-9.8483,-0.2682,1.7627,0.8348,1.7391,0.3478
895,-9.7334,-0.4215,1.6478,0.5565,1.8087,0.487
900,-9.925,-0.4598,1.7244,0.4174,1.9478,0.5565
905,-9.8483,-0.4982,1.6478,0.2783,2.0174,0.487
910,-9.81,-0.5748,1.7244,0.1391,2.1565,0.5565
915,-9.8483,-0.5748,1.6095,0.1391,2.0174,0.4174
920,-9.695,-0.5365,1.6478,0.2087,2.0174,0.4174
925,-9.8866,-0.4215,1.5711,0.2783,1.8783,0.5565
930,-9.925,-0.4598,1.8011,0.2783,1.8783,0.487
935,-9.7717,-0.4598,1.6478,0.2783,1.8087,0.487
940,-9.925,-0.6131,1.6861,0.4174,1.6,0.4174
945,-9.8483,-0.5365,1.5711,0.3478,1.6,0.2783
950,-9.8483,-0.5748,1.6478,0.2783,1.3913,0.2783
955,-9.7717,-0.4982,1.5711,0.3478,1.3217,0.2783
960,-9.7717,-0.5365,1.6478,0.5565,1.2522,0.1391
965,-9.7717,-0.5748,1.6861,0.5565,1.1826,-0.0696
970,-9.8483,-0.4215,1.8011,0.6261,1.1826,-0.2783
975,-9.8866,-0.5748,1.5711,0.6957,1.113,-0.4174
980,-9.7717,-0.4982,1.7627,0.6957,1.1826,-0.4174
985,-9.8483,-0.4215,1.6861,0.8348,1.1826,-0.6261
990,-9.7334,-0.5365,1.6478,0.8348,1.1826,-0.6957
995,-9.8866,-0.5365,1.6861,0.9739,1.1826,-0.5565
1000,-9.8866,-0.4598,1.7244,1.0435,1.0435,-0.4174
1005,-9.81,-0.5365,1.6861,1.113,0.9739,-0.4174
1010,-9.8866,-0.4982,1.8011,1.113,0.9739,-0.4174
1015,-9.8866,-0.5365,1.7244,1.0435,0.9043,-0.4174
1020,-9.925,-0.4215,1.6478,1.0435,0.9043,-0.3478
1025,-9.7334,-0.6131,1.7627,1.0435,0.9739,-0.3478
1030,-9.7334,-0.4982,1.6861,0.9043,0.9739,-0.3478
1035,-9.7717,-0.6131,1.6861,0.8348,1.113,-0.3478
1040,-9.8483,-0.4598,1.7244,0.7652,1.113,-0.2783
1045,-9.8483,-0.4598,1.7244,0.8348,1.3217,-0.2087
1050,-9.81,-0.5748,1.7627,0.7652,1.3217,-0.0696
1055,-9.7717,-0.5365,1.5328,0.8348,1.5304,0.0
1060,-9.925,-0.5748,1.6478,0.9739,1.6,-0.1391
1065,-9.81,-0.5365,1.7627,1.113,1.7391,-0.0696
1070,-9.8866,-0.4598,1.7244,1.1826,1.9478,-0.2783
1075,-9.81,-0.4982,1.7627,1.1826,2.1565,-0.2783
1080,-9.81,-0.5748,1.7244,1.3217,2.2957,-0.3478
1085,-9.81,-0.6131,1.7627,1.2522,2.4348,-0.2783
1090,-9.7717,-0.5748,1.5328,1.0435,2.5043,-0.2087
1095,-9.8483,-0.4982,1.6861,0.9043,2.4348,-0.2087
1100,-9.81,-0.4982,1.6095,0.9043,2.4348,-0.0696
1105,-9.7334,-0.4982,1.7244,0.8348,2.2957,-0.1391
1110,-9.925,-0.4215,1.5711,0.6957,2.2957,-0.2087
1115,-9.8483,-0.3066,1.8011,0.5565,2.1565,-0.0696
1120,-9.7717,-0.6514,1.6861,0.487,2.2957,-0.0696
1125,-9.925,-0.4598,1.6861,0.487,2.2957,0.0
1130,-9.8866,-0.4982,1.5711,0.4174,2.3652,0.0
1135,-9.8866,-0.5365,1.6478,0.2783,2.3652,0.0696
1140,-9.81,-0.5748,1.6861,0.1391,2.3652,0.2087
1145,-9.8483,-0.5748,1.7627,0.0,2.3652,0.2087
1150,-9.8866,-0.5748,1.6478,0.0,2.2261,0.0696
1155,-9.8483,-0.4598,1.7627,0.0696,2.2261,0.1391
1160,-9.8866,-0.5365,1.6861,0.1391,2.1565,0.0
1165,-9.8866,-0.5748,1.5711,0.2087,2.1565,0.0
1170,-9.925,-0.4215,1.5711,0.1391,2.087,0.1391
1175,-9.8866,-0.5365,1.6095,0.2783,2.087,0.1391
1180,-9.8483,-1.0346,1.6478,0.2087,2.087,0.2087
1185,-9.8483,-0.4982,1.6478,0.2783,1.9478,0.1391
1190,-9.925,-0.3832,1.6478,0.2783,1.8087,0.2783
1195,-9.8866,-0.5365,1.5711,0.3478,1.7391,0.2783
1200,-9.8866,-0.5365,1.6095,0.2783,1.6,0.2087
1205,-9.925,-0.4598,1.6478,0.2087,1.4609,0.2087
1210,-9.925,-0.6514,1.6478,0.1391,1.3913,0.1391
1215,-9.8866,-0.4215,1.5711,0.0696,1.2522,0.2087
1220,-9.8483,-0.4598,1.6095,-0.1391,1.2522,0.2087
1225,-9.7717,-0.6131,1.6095,-0.0696,1.2522,0.3478
1230,-9.9633,-0.5365,1.8011,-0.0696,1.1826,0.487
1235,-9.925,-0.5365,1.7244,-0.1391,1.1826,0.487
1240,-9.8483,-0.5748,1.5711,-0.1391,1.1826,0.487
1245,-9.7717,-0.4598,1.7627,-0.1391,1.1826,0.4174
1250,-9.7717,-0.4982,1.5328,-0.2087,1.2522,0.3478
1255,-9.8866,-0.5365,1.6478,-0.2087,1.1826,0.3478
1260,-9.8483,-0.4982,1.6861,-0.2087,1.0435,0.2783
1265,-9.925,-0.4982,1.6095,-0.2783,1.0435,0.2783
1270,-9.81,-0.5748,1.5711,-0.3478,0.9043,0.3478
1275,-9.8866,-0.4982,1.4945,-0.3478,0.9043,0.4174
1280,-9.7334,-0.5748,1.7244,-0.4174,0.9043,0.6261
1285,-9.925,-0.5748,1.5328,-0.4174,0.9043,0.5565
1290,-9.8866,-0.4982,1.7627,-0.2783,0.9043,0.487
1295,-9.81,-0.5365,1.6095,-0.1391,1.0435,0.4174
1300,-9.8866,-0.4982,1.5711,0.0,0.9739,0.2783
1305,-9.925,-0.5365,1.6095,0.0,0.9739,0.2783
1310,-10.0016,-0.3832,1.6861,0.0696,0.9043,0.2783
1315,-9.8866,-0.3449,1.6478,0.1391,0.7652,0.2087
1320,-9.8866,-0.5365,1.6478,0.0696,0.8348,0.1391
1325,-9.8866,-0.4982,1.7244,0.0696,0.7652,0.1391
1330,-9.81,-0.4982,1.6095,0.0,0.6957,0.0696
1335,-9.8483,-0.4982,1.6861,-0.0696,0.7652,0.0696
1340,-9.9633,-0.5748,1.916,0.0,0.6957,0.0
1345,-9.81,-0.4982,1.6478,0.1391,0.8348,-0.0696
1350,-9.8483,-0.4598,1.7627,0.2783,0.8348,-0.0696
1355,-9.8483,-0.4215,1.6095,0.3478,0.9043,-0.0696
1360,-9.7717,-0.5365,1.5711,0.3478,0.8348,-0.2087
1365,-9.925,-0.4598,1.6478,0.4174,0.9739,-0.2783
1370,-9.8866,-0.3832,1.6861,0.5565,0.9043,-0.2783
1375,-9.8866,-0.4598,1.6478,0.487,0.9043,-0.2087
1380,-9.8866,-0.4598,1.6478,0.487,0.9739,-0.1391
1385,-9.8866,-0.4982,1.6095,0.3478,0.7652,-0.0696
1390,-9.3502,-0.4598,1.5328,0.3478,0.7652,0.0
1395,-9.8483,-0.5365,1.6478,0.3478,0.6261,0.0696
1400,-9.8483,-0.4982,1.6861,0.2087,0.5565,-0.0696
1405,-9.8866,-0.4598,1.4945,0.4174,0.5565,-0.1391
1410,-9.8866,-0.3832,1.5711,0.3478,0.5565,-0.4174
1415,-9.8866,-0.5748,1.4562,0.487,0.4174,-0.6261
1420,-9.925,-0.4982,1.4179,0.6261,0.2087,-0.9043
1425,-9.925,-0.5748,1.5328,0.8348,0.0696,-1.3217
1430,-9.9633,-0.5365,1.4562,1.1826,0.0,-1.8087
1435,-9.925,-0.4598,1.4945,1.4609,-0.1391,-2.1565
1440,-9.925,-0.4982,1.4179,1.6696,-0.3478,-2.5043
1445,-9.9633,-0.4982,1.3795,1.9478,-0.487,-2.7826
1450,-10.0016,-0.4215,1.4945,2.1565,-0.6261,-2.9913
1455,-10.0399,-0.4215,1.6095,2.4348,-0.6957,-3.0609
1460,-9.9633,-0.3449,1.5711,2.6435,-0.7652,-3.2696
1465,-9.925,-0.4982,1.4562,2.713,-0.5565,-3.6174
1470,-9.8866,-0.4215,1.5711,2.713,-0.5565,-3.8957
1475,-9.8866,-0.4982,1.5328,2.5739,-0.487,-4.1043
1480,-9.8483,-0.6131,1.5328,2.5043,-0.487,-4.6609
1485,-9.81,-0.4982,1.5711,2.5043,-0.5565,-5.1478
1490,-9.925,-0.4982,1.5328,2.5739,-0.6261,-5.3565
1495,-9.925,-0.5748,1.4945,2.5043,-1.113,-5.8435
1500,-9.925,-0.5365,1.5328,2.4348,-1.5304,-6.4
1505,-9.9633,-0.4982,1.6478,2.2261,-1.8783,-6.6087
1510,-9.925,-0.3449,1.5711,1.8087,-2.087,-7.0261
1515,-10.0399,-0.3832,1.6478,1.3913,-2.3652,-7.7217
1520,-10.0016,-0.2299,1.6861,0.5565,-2.7826,-8.4174
1525,-10.0399,-0.2682,1.6478,-0.487,-2.8522,-8.9739
1530,-10.0016,-0.3066,1.6478,-1.7391,-2.713,-9.3217
1535,-10.2315,-0.4598,1.5711,-2.3652,-2.5739,-9.6
1540,-10.3082,-0.4598,1.6861,-2.2261,-2.8522,-9.9478
1545,-10.3848,-0.4982,1.5711,-0.8348,-3.2,-10.4348
1550,-10.3848,-0.4215,1.4562,1.5304,-3.5478,-11.0609
1555,-10.3465,-0.6898,1.5328,5.7739,-3.5478,-12.0348
1560,-10.4614,-0.4982,1.3029,9.7391,-2.9913,-13.0087
1565,-10.4231,-0.4598,1.4562,13.5652,-2.5739,-14.0522
1570,-10.3848,-0.5365,1.4945,16.7652,-2.3652,-15.4435
1575,-10.4614,-0.5365,1.3412,18.4348,-2.5043,-16.5565
1580,-10.4614,-0.5748,1.4179,18.1565,-3.0609,-17.6696
1585,-10.4998,-0.6898,1.3412,16.2783,-3.9652,-18.1565
1590,-10.4614,-0.9963,1.4945,13.3565,-4.9391,-18.5043
1595,-10.4998,-1.1879,1.3795,10.087,-5.5652,-18.6435
1600,-10.5381,-1.4562,1.3029,7.4435,-5.8435,-18.0174
1605,-10.3082,-1.6478,1.4562,5.9826,-5.913,-16.9739
1610,-10.0399,-1.6095,1.5711,5.6348,-5.8435,-15.7913
1615,-9.8483,-1.6861,1.5711,5.9826,-5.4261,-14.9565
1620,-9.6184,-1.6095,1.3029,6.5391,-5.0783,-14.7478
1625,-9.5801,-1.6861,1.4562,6.887,-5.4261,-14.6783
1630,-9.3502,-1.6478,1.1496,6.8174,-6.4696,-14.1217
1635,-9.3118,-1.6861,1.1496,6.0522,-7.9304,-13.3565
1640,-9.3502,-1.6861,0.958,4.8696,-9.8783,-12.8
1645,-9.4268,-1.8011,0.843,3.5478,-12.5217,-12.3826
1650,-9.5418,-1.8777,0.7664,2.2957,-15.1652,-12.1043
1655,-9.5418,-2.3759,0.6514,1.5304,-17.3217,-11.687
1660,-9.7717,-2.7207,1.0346,1.3217,-18.5739,-10.6435
1665,-9.9633,-3.2572,0.9963,2.4348,-19.2,-9.0435
1670,-9.9633,-3.4488,1.3029,5.4261,-19.4087,-7.7913
1675,-10.0399,-3.832,1.3795,10.2957,-19.8957,-6.7478
1680,-10.1549,-3.832,1.4179,16.2783,-20.4522,-5.9826
1685,-10.2698,-3.7554,1.7244,22.8174,-21.0087,-5.2174
1690,-10.0016,-3.7554,1.7244,29.1478,-21.3565,-4.313
1695,-9.9633,-3.5255,1.7244,34.3652,-21.4957,-3.8261
1700,-9.8483,-3.3339,1.7627,37.913,-22.1913,-3.9652
1705,-9.695,-2.874,1.916,39.7217,-24.0,-4.9391
1710,-9.3118,-2.2992,1.9927,39.7913,-26.9217,-6.8174
1715,-9.1969,-1.7244,2.0693,38.5391,-30.1913,-9.6
1720,-9.1969,-1.1496,1.9927,36.1739,-33.1826,-13.287
1725,-9.3118,-0.6514,2.1843,32.7652,-35.3391,-17.3913
1730,-9.3502,-0.1916,2.3375,29.2174,-35.687,-21.5652
1735,-9.5034,0.1533,2.7207,26.087,-33.6,-25.3913
1740,-9.7334,0.1916,2.874,23.6522,-29.0783,-28.7304
1745,-9.925,0.115,2.9507,22.5391,-22.4696,-31.0957
1750,-10.0016,-0.0383,3.1423,23.1652,-14.6783,-33.0435
1755,-10.2698,0.0383,3.0273,25.8087,-6.3304,-34.4348
1760,-10.1166,0.3066,3.0273,29.4957,2.2261,-35.7565
1765,-10.3082,0.6131,3.3722,31.9304,7.3043,-37.4957
1770,-10.2315,1.1496,3.7937,30.887,10.5043,-39.0957
1775,-10.3848,1.4179,4.2152,26.2261,12.8,-40.5565
1780,-10.1932,1.5711,4.7134,18.6435,15.0261,-41.4609
1785,-10.3848,1.8394,4.905,9.0435,17.113,-42.1565
1790,-10.3465,1.7627,5.1349,-0.5565,18.9217,-42.6435
1795,-10.1166,1.916,5.1732,-8.7652,20.8,-42.9217
1800,-10.0016,1.7627,5.3265,-14.2609,23.2348,-42.8522
1805,-9.7717,1.6095,5.4798,-17.1826,27.3391,-42.0174
1810,-9.6184,1.7244,5.6331,-16.9739,31.0957,-41.0435
1815,-9.6567,1.8777,5.2882,-13.4957,32.6261,-40.9739
1820,-9.5418,2.1459,4.6751,-7.1652,29.1478,-41.9478
1825,-9.5801,2.6824,3.4488,-0.1391,20.2435,-43.8261
1830,-9.5034,3.0273,2.8357,4.6609,9.2522,-45.4261
1835,-9.4268,3.4105,3.1039,5.1478,-1.2522,-46.8174
1840,-9.2352,3.7937,3.4871,2.4348,-10.8522,-46.4696
1845,-8.6221,4.0236,3.3722,-2.6435,-18.9913,-44.8
1850,-8.2772,3.947,3.2572,-7.4435,-23.9304,-42.087
1855,-8.0473,3.9087,2.7591,-10.9217,-25.0435,-39.3739
1860,-7.6257,3.4488,2.0693,-13.4957,-23.5826,-37.5652
1865,-7.2042,3.4105,1.4179,-14.5391,-22.1913,-36.7304
1870,-6.936,3.3339,0.843,-14.4,-22.6783,-37.2174
1875,-6.3229,3.6787,0.1533,-13.4957,-23.7913,-40.0696
1880,-6.0929,3.1423,-0.5365,-12.4522,-23.0957,-44.1043
1885,-6.2845,2.7207,-0.958,-11.4087,-20.2435,-50.0174
1890,-6.4761,2.6441,-1.7244,-10.0174,-17.6696,-57.113
1895,-6.5528,2.5291,-1.9543,-10.4348,-16.9739,-62.9565
1900,-6.821,2.4525,-2.3759,-14.1913,-17.3913,-68.313
1905,-7.0509,2.2609,-2.6058,-20.8696,-19.2,-74.1565
1910,-7.0893,1.7244,-2.4142,-28.8,-22.7478,-81.1826
1915,-7.3575,0.958,-2.4908,-35.4087,-27.687,-89.5304
1920,-7.7407,0.0383,-2.7974,-40.7652,-33.3913,-100.1043
1925,-8.1622,-0.6898,-2.6441,-46.1217,-37.7043,-112.0696
1930,-9.2352,-1.8011,-2.1459,-52.5217,-40.3478,-123.2696
1935,-10.5381,-2.6058,-0.8814,-59.6174,-43.687,-132.7304
1940,-13.0672,-3.7554,0.6898,-65.2522,-49.0435,-141.287
1945,-18.0872,-4.3685,3.0656,-65.9478,-56.3478,-148.4522
1950,-23.7586,-4.4835,4.7134,-60.5217,-64.9043,-149.4957
1955,-30.0048,-3.8704,4.7517,-51.2,-75.4087,-139.1304
1960,-30.0814,-3.0273,2.1459,-42.6435,-83.7565,-119.0261
1965,-23.9885,-2.8357,-0.9963,-37.0087,-87.513,-99.7565
1970,-17.6273,-3.1423,-2.0693,-33.1826,-88.7652,-92.9391
1975,-13.6037,-2.7207,-1.3412,-24.9739,-96.4174,-105.3913
1980,-7.1659,-3.5255,0.115,-13.2174,-109.3565,-115.687
1985,-4.6368,-3.7171,1.4945,-1.1826,-110.6087,-129.0435
1990,-3.832,-4.062,2.6058,-0.9739,-107.9652,-144.6957
1995,-3.1423,-4.5218,3.3722,-9.8087,-104.4174,-155.4087
2000,-2.0693,-5.4415,4.0236,-21.2174,-98.3652,-160.6957
2005,-1.6478,-6.8593,3.9853,-30.1217,-90.2261,-162.713
2010,-2.6058,-7.7407,3.9087,-34.2957,-82.5739,-162.8522
2015,-4.5218,-8.5838,3.6021,-32.4174,-77.0783,-160.3478
2020,-6.0546,-8.7754,3.7937,-26.6435,-73.8087,-154.5739
2025,-7.3575,-8.4305,3.7171,-20.5217,-72.0696,-146.4348
2030,-7.9323,-7.7407,3.7937,-15.4435,-70.4,-137.1826
2035,-7.894,-7.1276,3.6787,-11.4087,-69.0783,-127.6522
2040,-7.2809,-6.2845,3.7171,-8.6261,-67.7565,-119.3043
2045,-6.7444,-5.6331,3.832,-6.6783,-64.6957,-112.5565
2050,-6.0929,-5.0966,4.062,-5.4261,-59.3391,-106.6435
2055,-5.863,-4.5984,4.3685,-5.287,-53.287,-102.2609
2060,-5.4032,-4.3302,4.5218,-6.6087,-48.6957,-99.8957
2065,-5.1732,-4.2919,4.79,-9.4609,-46.0522,-99.7565
2070,-5.02,-4.4835,4.9433,-13.4261,-44.5217,-101.7739
2075,-4.9816,-4.79,5.1732,-16.8348,-43.3391,-105.4609
2080,-4.7517,-5.2116,5.02,-18.4348,-41.9478,-109.4957
2085,-4.7517,-5.6714,4.8284,-18.0174,-40.2783,-112.8348
2090,-4.8284,-6.1313,4.5218,-16.2783,-38.6783,-114.9217
2095,-4.5218,-6.4761,4.3685,-13.5652,-37.287,-116.4522
2100,-4.0236,-6.8593,4.2536,-10.4348,-35.3391,-117.2174
2105,-3.7554,-6.9743,4.2536,-7.4435,-32.8348,-117.8435
2110,-3.832,-7.3575,4.4452,-5.3565,-30.6783,-118.1913
2115,-4.1386,-7.3192,4.5984,-3.9652,-29.287,-118.3304
2120,-4.5218,-7.4725,4.5601,-3.0609,-28.0348,-118.3304
2125,-5.02,-7.3958,4.5984,-2.3652,-26.9913,-118.1913
2130,-5.6331,-7.4725,4.6368,-1.8087,-26.9217,-117.2174
2135,-6.0163,-7.4341,4.79,-1.8087,-28.4522,-114.4348
2140,-6.4761,-7.2042,4.4835,-2.2957,-31.0261,-110.2609
2145,-6.7061,-6.936,4.4835,-2.9913,-33.5304,-104.8348
2150,-6.5145,-6.936,4.7134,-4.0348,-36.0348,-99.6174
2155,-6.3612,-6.9743,4.5984,-4.6609,-38.9565,-95.513
2160,-6.3995,-6.6677,4.5601,-4.3826,-41.9478,-92.3826
2165,-6.2079,-6.4761,4.79,-3.4087,-44.313,-90.0174
2170,-6.0546,-6.5528,4.5218,-1.8087,-45.913,-88.3478
2175,-6.0163,-6.7061,4.6751,0.1391,-47.1652,-87.5826
2180,-6.2845,-6.7827,4.5601,2.7826,-48.2087,-87.0261
2185,-6.0929,-7.0126,4.4452,5.287,-47.7913,-85.2174
2190,-5.9013,-6.936,4.5984,6.9565,-46.6087,-84.5217
2195,-5.1349,-7.3575,4.79,8.7652,-46.5391,-84.9391
2200,-4.4835,-7.6257,5.02,10.8522,-48.487,-86.8174
2205,-4.3685,-7.5108,5.0966,14.1913,-52.1043,-89.7391
2210,-4.3302,-7.5108,4.8667,16.4174,-55.1652,-91.2696
2215,-4.1769,-7.3192,4.2536,16.5565,-56.6957,-91.8261
2220,-4.062,-7.2425,4.1003,14.887,-57.3217,-92.4522
2225,-4.2152,-6.936,3.9087,11.9652,-57.4609,-93.3565
2230,-3.9853,-6.8593,3.9853,8.487,-57.3217,-94.4696
2235,-3.8704,-6.8593,3.947,5.4957,-56.487,-95.2348
2240,-3.7937,-6.8593,3.832,3.4783,-54.6783,-95.5826
2245,-3.7554,-6.936,3.7937,2.2261,-52.2435,-95.4435
2250,-3.6404,-7.0893,3.5638,1.3913,-50.1565,-95.3739
2255,-3.5255,-7.2425,3.7554,0.2087,-48.0,-95.9304
2260,-3.5638,-7.3575,3.8704,-1.3217,-45.9826,-96.8348
2265,-3.5255,-7.5108,3.832,-2.9913,-43.6174,-97.8783
2270,-3.6404,-7.5874,3.8704,-4.5913,-40.8348,-98.4348
2275,-3.6404,-7.5491,3.947,-6.1217,-37.5652,-98.4348
2280,-3.8704,-7.5491,3.6787,-7.7217,-34.087,-97.7391
2285,-3.9087,-7.5108,3.7554,-9.6,-30.887,-96.487
2290,-4.0236,-7.4341,3.9853,-11.3391,-27.6174,-94.5391
2295,-4.1003,-7.3575,3.7937,-12.8,-24.2087,-92.1739
2300,-3.9853,-7.4341,3.832,-13.913,-20.2435,-89.3217
2305,-3.7937,-7.4341,3.832,-15.0261,-15.6522,-86.4
2310,-3.6404,-7.4341,3.9853,-16.1391,-11.2696,-83.8261
2315,-3.4488,-7.3575,3.8704,-17.6,-7.0261,-81.3913
2320,-3.4871,-7.4725,3.9087,-19.8261,-3.687,-79.3043
2325,-3.5255,-7.4341,4.062,-22.7478,-0.9739,-77.2174
2330,-3.3722,-7.779,4.0236,-25.8783,0.8348,-75.2696
2335,-3.5255,-7.9706,4.062,-28.8,1.8783,-73.5304
2340,-3.6404,-8.2389,4.2536,-30.6087,2.8522,-71.7913
2345,-4.062,-8.2005,3.9853,-31.5826,4.1739,-69.7043
2350,-4.1769,-8.3155,3.947,-32.0,5.2174,-67.4783
2355,-4.3685,-8.5071,4.1386,-31.9304,5.8435,-65.0435
2360,-4.2152,-8.4305,4.3302,-31.513,6.1913,-62.0522
2365,-4.1386,-8.5454,4.1769,-29.7043,7.0957,-58.8522
2370,-4.2536,-8.4305,3.832,-26.9913,8.2087,-55.9304
2375,-4.2152,-8.4688,4.1003,-23.7217,9.1826,-53.5652
2380,-4.2536,-8.2389,4.062,-20.6609,9.3217,-52.1739
2385,-4.2536,-8.1622,4.1003,-18.2957,8.4174,-51.1304
2390,-4.5218,-8.1239,4.1769,-16.487,6.6783,-50.0174
2395,-4.3302,-7.894,4.0236,-15.0957,4.1739,-48.7652
2400,-4.4452,-7.779,3.9853,-14.0522,1.6,-47.0957
2405,-4.2536,-7.6257,3.832,-12.9391,-0.5565,-45.1478
2410,-4.2919,-7.5108,3.947,-12.0348,-2.0174,-43.7565
2415,-4.1769,-7.4341,4.062,-11.6174,-3.4783,-42.9217
2420,-4.0236,-7.3575,4.1003,-11.7565,-4.2435,-42.713
2425,-3.9087,-7.4341,4.1386,-12.1739,-4.8,-42.5739
2430,-3.5638,-7.4725,4.3302,-12.6609,-4.7304,-42.5043
2435,-3.4871,-7.5874,4.2536,-13.1478,-4.2435,-42.2261
2440,-3.1039,-7.779,4.2536,-13.3565,-3.6174,-42.1565
2445,-2.874,-7.7407,4.2536,-13.4957,-3.2,-42.4348
2450,-2.7974,-8.0473,4.2536,-13.2174,-2.5043,-43.1304
2455,-2.6824,-8.2005,4.4452,-12.9391,-1.6696,-44.4522
2460,-2.4142,-8.2772,4.5218,-12.5913,-0.8348,-46.2609
2465,-2.2609,-8.3538,4.3302,-12.1739,0.0,-48.487
2470,-2.1076,-8.6221,4.3302,-11.4783,0.487,-50.5043
2475,-2.0693,-8.737,4.062,-10.5739,0.487,-52.6609
2480,-1.9927,-8.737,4.0236,-9.3217,0.4174,-53.913
2485,-1.9927,-8.6987,4.0236,-7.6522,0.2783,-54.6087
2490,-1.8011,-8.7754,4.1003,-5.7739,0.7652,-55.0957
2495,-1.9543,-8.6987,4.062,-4.1739,1.5304,-55.3043
2500,-2.1076,-8.6987,4.1386,-2.713,2.5043,-55.2348
2505,-2.1076,-8.6987,3.832,-1.5304,3.2,-54.9565
2510,-2.2226,-8.6604,3.6787,-0.8348,4.1043,-53.8435
2515,-2.2992,-8.737,3.2955,-1.113,4.5217,-52.7304
2520,-2.0693,-8.967,3.3339,-2.3652,4.0348,-51.7565
2525,-2.3375,-9.0053,3.4105,-3.9652,2.7826,-51.2696
2530,-2.2226,-9.1586,3.832,-4.6609,1.5304,-50.7826
2535,-2.2992,-9.2352,3.7171,-3.8261,0.2087,-50.2957
2540,-2.1076,-9.3118,3.6404,-2.0174,-0.6957,-49.113
2545,-2.1459,-9.1202,3.3339,-0.3478,-1.0435,-47.3043
2550,-1.8394,-9.2352,3.3339,0.5565,-1.3217,-45.287
2555,-1.7627,-9.2735,3.2572,0.2087,-1.8087,-43.3391
2560,-1.5328,-9.3118,3.1806,-1.1826,-2.5043,-41.8783
2565,-1.4562,-9.3118,3.2572,-3.3391,-3.3391,-40.7652
2570,-1.2646,-9.4651,3.4105,-5.0783,-4.5217,-40.2087
2575,-1.1496,-9.5801,3.832,-5.9826,-5.5652,-39.8609
2580,-0.4982,-9.6567,3.3722,-5.9826,-5.9826,-39.5826
2585,-1.3029,-9.2735,3.0273,-5.4957,-5.4261,-39.2348
2590,-0.6131,-8.4305,2.9507,-5.2174,-4.6609,-39.2348
2595,-0.6131,-8.967,2.7591,-5.2174,-4.2435,-39.0957
2600,-0.5748,-8.8137,2.989,-5.2174,-4.4522,-38.9565
2605,-0.4215,-8.6987,2.9123,-5.3565,-4.8696,-38.6783
2610,-0.1533,-8.5071,3.2189,-5.6348,-5.0783,-38.4
2615,0.0,-8.6987,3.1806,-6.1913,-4.5913,-38.6783
2620,0.115,-8.852,3.1806,-7.3739,-3.4087,-39.1652
2625,0.2682,-8.9286,3.2955,-9.113,-2.0174,-39.7913
2630,0.5365,-9.4651,3.832,-10.8522,-0.2783,-40.6261
2635,0.5748,-9.3885,3.1423,-12.5217,1.0435,-41.8087
2640,0.6514,-9.5418,2.9507,-14.1217,2.5043,-42.9217
2645,0.6131,-9.7717,2.874,-14.9565,3.8261,-44.1043
2650,0.843,-9.81,2.6824,-15.3739,5.1478,-45.0087
2655,0.7664,-9.9633,2.6441,-15.3739,6.4,-45.3565
2660,0.6514,-10.0016,2.5291,-15.513,7.4435,-44.9391
2665,0.5748,-10.1166,2.3375,-15.4435,8.487,-44.1043
2670,0.5748,-10.1549,2.7591,-15.1652,9.5304,-42.9913
2675,0.5748,-10.3465,2.7591,-14.4,10.2957,-41.8783
2680,0.5365,-10.3848,2.7591,-13.2174,10.7826,-40.5565
2685,0.6514,-10.4231,2.7974,-11.8957,11.2,-39.4435
2690,0.8814,-10.4998,2.8357,-10.2957,11.4783,-38.4696
2695,0.9197,-10.2698,2.7591,-8.7652,11.9652,-37.4957
2700,0.8814,-10.3082,2.6824,-7.0261,12.4522,-36.5913
2705,0.7664,-10.1166,2.7591,-5.5652,12.8696,-35.7565
2710,0.843,-10.0782,2.6058,-4.2435,13.2174,-35.4783
2715,1.0346,-9.925,2.6824,-2.8522,13.7043,-35.2
2720,1.073,-9.7717,2.6441,-1.4609,14.6087,-34.9217
2725,1.073,-9.81,2.7974,0.2783,16.0,-34.6435
2730,1.1496,-9.7334,3.0273,2.3652,17.6696,-34.5043
2735,0.9197,-9.6567,2.874,4.3826,19.3391,-34.1565
2740,0.9197,-9.5801,2.9123,6.1913,20.8,-34.2261
2745,0.8047,-9.5418,3.0273,7.4435,22.1217,-33.8783
2750,0.5748,-9.4268,3.1806,8.2783,23.3739,-33.3913
2755,0.4598,-9.3502,3.1039,9.4609,24.487,-32.4174
2760,0.2299,-9.4651,3.2955,11.4087,25.3913,-31.3739
2765,0.0383,-9.2352,3.6404,13.5652,25.1826,-30.4
2770,0.0766,-9.3502,3.6021,15.7217,24.3478,-29.6348
2775,0.2299,-9.1969,3.6404,17.6,23.7913,-29.1478
2780,0.0383,-9.0819,3.6404,18.7826,23.1652,-28.8696
2785,0.0383,-9.0436,3.7171,19.4783,22.6783,-28.313
2790,-0.1533,-8.9286,3.6787,19.9652,22.1217,-27.687
2795,-0.3066,-8.8903,3.832,19.8957,21.2174,-26.7826
2800,-0.4598,-8.852,4.0236,19.3391,20.1043,-26.1565
2805,-0.4215,-8.8137,3.7937,18.2261,18.9217,-25.6696
2810,-0.4598,-8.737,3.7937,17.113,17.9478,-25.1826
2815,-0.5748,-8.852,3.7554,15.9304,17.3217,-24.487
2820,-0.6898,-8.7754,3.6787,15.0957,16.6261,-23.8609
2825,-0.6898,-8.737,3.5638,14.2609,15.9304,-22.9565
2830,-0.7281,-8.8903,3.7554,13.7739,15.5826,-22.0522
2835,-0.7281,-8.9286,3.7554,13.1478,15.3043,-21.1478
2840,-0.6514,-8.852,3.6404,12.0348,14.6087,-20.5217
2845,-0.8814,-8.967,3.4105,10.8522,13.5652,-19.687
2850,-1.073,-9.1586,3.6787,9.3217,12.0348,-18.9913
2855,-1.2646,-9.0436,3.6787,8.0696,9.8783,-17.7391
2860,-1.4562,-9.0819,3.6787,7.7913,8.2783,-15.7217
2865,-1.3412,-9.1969,3.4871,8.8348,8.0,-12.6609
2870,-1.1496,-9.1586,3.6021,10.3652,8.9739,-9.2522
2875,-0.7664,-9.1586,3.4488,11.5478,9.9478,-6.8174
2880,-0.5748,-9.3118,3.5638,12.1043,10.6435,-5.3565
2885,-0.1916,-9.2352,3.4488,12.4522,11.2,-4.2435
2890,0.115,-9.2735,3.7171,12.9391,11.8957,-3.6174
2895,0.115,-9.3502,3.6404,13.7043,12.5217,-3.7565
2900,0.0383,-9.3502,3.7554,14.1913,12.5913,-4.7304
2905,0.0766,-9.1202,3.8704,14.6783,11.9652,-6.2609
2910,-0.0766,-9.0436,3.9087,15.3739,10.9217,-7.7217
2915,-0.0766,-8.967,3.6404,15.6522,9.6,-8.9043
2920,-0.115,-8.967,3.8704,15.6522,8.0696,-9.6
2925,-0.2299,-8.7754,3.947,15.5826,6.4,-9.8087
2930,-0.115,-8.852,4.2919,15.7217,4.5913,-9.8087
2935,-0.115,-8.6987,4.3685,16.1391,2.7826,-9.6
2940,-0.1533,-8.8903,4.4835,16.7652,1.0435,-9.3913
2945,-0.115,-8.8903,4.4068,17.6,-0.487,-9.1826
2950,-0.1533,-8.852,4.4835,18.4348,-1.8783,-9.2522
2955,-0.2299,-8.8903,4.3685,18.9217,-3.1304,-9.3913
2960,-0.1533,-8.8137,4.1769,18.9913,-3.7565,-9.4609
2965,-0.2299,-8.8137,3.8704,18.3652,-3.8957,-9.8087
2970,-0.115,-8.8137,3.9087,17.1826,-3.4087,-10.0174
2975,-0.1533,-8.737,3.9087,15.6522,-2.5043,-10.5043
2980,-0.2299,-8.6987,3.9853,13.8435,-1.6696,-10.8522
2985,-0.4598,-8.6221,4.0236,11.9652,-1.113,-11.2
2990,-0.3832,-8.4305,4.1003,10.2261,-0.9739,-11.4783
2995,-0.4215,-8.5071,3.9087,8.9043,-0.7652,-11.3391
