timestamp,accX,accY,accZ,gyroX,gyroY,gyroZ
0,-0.1533,-9.3118,1.073,-3.5478,0.7652,-0.4174
5,-0.0766,-9.2735,1.1496,-3.5478,0.7652,-0.487
10,-0.0383,-9.3502,1.0346,-3.3391,0.8348,-0.487
15,-0.0766,-9.3502,0.9963,-3.2696,0.9043,-0.4174
20,-0.0766,-9.2735,1.0346,-3.0609,0.9739,-0.5565
25,-0.0766,-9.2735,1.1879,-2.8522,0.9739,-0.6261
30,-0.0383,-9.1586,1.0346,-2.9217,1.0435,-0.5565
35,-0.0766,-9.3502,0.9963,-2.8522,1.113,-0.5565
40,-0.1916,-9.3118,1.1113,-2.7826,1.113,-0.487
45,-0.115,-9.3502,1.1113,-2.7826,0.9739,-0.6261
50,-0.115,-9.3118,0.9963,-2.5739,0.8348,-0.5565
55,-0.0383,-9.3885,1.0346,-2.6435,0.8348,-0.487
60,-0.1533,-9.3502,1.1496,-2.5739,0.6261,-0.487
65,-0.1533,-9.2735,0.9963,-2.5043,0.5565,-0.487
70,-0.115,-9.3885,1.1113,-2.3652,0.4174,-0.4174
75,-0.0383,-9.3118,0.9963,-2.2957,0.4174,-0.3478
80,-0.115,-9.3118,1.1496,-2.2957,0.3478,-0.3478
85,-0.0766,-9.3118,1.073,-2.2957,0.4174,-0.3478
90,-0.1533,-9.2352,1.1496,-2.2957,0.4174,-0.3478
95,-0.115,-9.3502,1.1113,-2.2261,0.5565,-0.2087
100,-0.115,-9.3502,1.1496,-2.3652,0.487,-0.1391
105,-0.115,-9.2352,0.9963,-2.5043,0.4174,0.0
110,-0.0766,-9.3885,1.1113,-2.5739,0.4174,0.0696
115,-0.115,-9.3118,1.073,-2.6435,0.487,0.0696
120,-0.0766,-9.2352,1.2646,-2.8522,0.487,0.1391
125,-0.115,-9.2352,1.1879,-2.9217,0.4174,0.2087
130,-0.1916,-9.2352,1.1879,-2.9217,0.4174,0.1391
135,-0.3066,-9.2352,1.1879,-2.9217,0.5565,0.1391
140,-0.1916,-9.1969,1.1496,-2.9217,0.6261,0.2087
145,-0.115,-9.3118,1.2646,-2.9217,0.5565,0.2087
150,-0.0383,-9.2352,1.1113,-2.713,0.6957,0.0696
155,-0.115,-9.3502,1.2646,-2.6435,0.7652,0.1391
160,-0.0766,-9.3502,1.1496,-2.4348,0.9739,0.1391
165,-0.115,-9.3502,1.1496,-2.2261,1.0435,0.0696
170,-0.1533,-9.3118,1.1496,-2.1565,1.0435,0.0
175,-0.0766,-9.1586,0.958,-1.8783,1.0435,-0.0696
180,-0.0766,-9.2735,1.1879,-1.7391,1.113,-0.0696
185,-0.0766,-9.3118,1.1113,-1.5304,1.113,-0.0696
190,-0.1916,-9.2735,1.073,-1.5304,1.113,0.0
195,0.0,-9.1586,1.2646,-1.4609,1.113,0.0
200,-0.0383,-9.2735,0.958,-1.5304,1.0435,0.1391
205,-0.1533,-9.3118,1.073,-1.8087,0.9043,0.0696
210,-0.1916,-9.2735,1.073,-2.1565,0.8348,0.1391
215,-0.1916,-9.1969,1.1879,-2.5043,0.6957,0.0696
220,-0.115,-9.3118,1.1113,-2.8522,0.5565,0.0
225,-0.1533,-9.3118,1.0346,-3.2,0.5565,0.0696
230,-0.1533,-9.2735,0.9197,-3.5478,0.4174,0.0696
235,-0.2299,-9.1202,1.1879,-3.7565,0.2783,0.0
240,-0.0383,-9.3118,1.073,-3.8957,0.2783,0.0
245,-0.0383,-9.3118,1.1113,-4.1043,0.2783,0.0
250,-0.2682,-9.3118,0.958,-4.1043,0.3478,0.0696
255,-0.115,-9.1969,1.073,-4.1043,0.4174,-0.0696
260,-0.1916,-9.3502,1.073,-4.1043,0.6261,0.0
265,-0.2299,-9.3118,1.1496,-3.8957,0.6957,0.0696
270,-0.0766,-9.3118,1.0346,-3.8261,0.9043,0.1391
275,-0.0383,-9.4651,1.0346,-3.4783,0.9043,0.1391
280,-0.1533,-9.3502,1.073,-3.1304,0.9739,0.1391
285,-0.1533,-9.3502,1.1113,-3.0609,1.0435,0.2087
290,-0.1533,-9.3502,1.2646,-2.8522,0.9739,0.2783
295,-0.2299,-9.3118,1.0346,-2.7826,0.9739,0.2087
300,-0.115,-9.3502,0.958,-2.7826,1.0435,0.2087
305,-0.115,-9.3502,1.0346,-2.8522,1.113,0.1391
310,-0.0383,-9.2352,1.0346,-2.9217,1.2522,0.1391
315,-0.0383,-9.3118,1.1113,-3.1304,1.1826,0.0696
320,-0.0766,-9.2735,1.073,-3.0609,1.1826,0.2087
325,-0.0766,-9.3118,1.073,-3.2696,1.2522,0.0696
330,-0.115,-9.2352,1.1879,-3.2,1.3217,0.0
335,-0.115,-9.3885,1.1879,-3.2696,1.3217,0.0
340,-0.1533,-9.1969,1.2646,-3.2,1.1826,0.0696
345,-0.0766,-9.3118,1.2646,-3.2,1.1826,0.0696
350,-0.0766,-9.2735,1.3029,-3.0609,1.0435,-0.0696
355,-0.1916,-9.1969,1.073,-3.1304,1.0435,0.0
360,-0.1533,-9.2352,0.9963,-3.2,0.9739,-0.0696
365,-0.1533,-9.3118,1.1113,-3.4783,0.9739,-0.1391
370,-0.0383,-9.2735,1.1113,-3.6174,0.9739,0.0
375,-0.115,-9.1969,0.9963,-3.9652,1.113,-0.1391
380,-0.115,-9.3118,1.0346,-4.1739,1.3217,-0.1391
385,-0.0766,-9.2735,1.2646,-4.4522,1.4609,-0.0696
390,-0.1533,-9.2735,1.1879,-4.3826,1.5304,-0.1391
395,-0.115,-9.3118,1.073,-4.313,1.5304,-0.0696
400,-0.1916,-9.2735,1.073,-4.2435,1.5304,-0.0696
405,-0.115,-9.2352,1.3029,-4.1739,1.3913,-0.0696
410,-0.1533,-9.1586,1.0346,-4.2435,1.1826,0.0
415,0.0383,-9.3502,0.9197,-4.3826,0.9739,0.1391
420,-0.0766,-9.3118,1.1496,-4.6609,0.9043,0.2087
425,-0.0766,-9.3502,1.1496,-4.8696,0.9043,0.0696
430,-0.0766,-9.3118,0.9963,-4.7304,0.8348,0.2087
435,-0.0383,-9.2735,0.958,-4.5913,0.9043,0.1391
440,-0.1916,-9.3118,1.073,-4.5913,0.9739,0.0696
445,-0.1533,-9.3118,1.073,-4.6609,1.0435,-0.0696
450,-0.115,-9.1969,1.073,-4.6609,1.2522,-0.2087
455,-0.1916,-9.2735,0.9197,-4.8696,1.3217,-0.3478
460,-0.115,-9.3118,0.9963,-5.0087,1.6,-0.3478
465,-0.115,-9.3118,1.2263,-5.4261,1.6696,-0.3478
470,-0.0383,-9.3118,0.8814,-5.5652,1.7391,-0.4174
475,-0.1533,-9.2735,0.958,-5.7043,1.7391,-0.4174
480,-0.1533,-9.3118,1.2263,-5.6348,1.6696,-0.2783
485,-0.2299,-9.2352,1.2263,-5.6348,1.6,-0.2783
490,-0.1916,-9.3118,1.1113,-5.4261,1.4609,-0.1391
495,-0.115,-9.3885,1.073,-5.4261,1.2522,-0.0696
500,-0.115,-9.3502,1.073,-5.287,1.0435,0.0
505,-0.115,-9.3502,1.1496,-5.0783,0.9043,0.0696
510,-0.0766,-9.4268,1.1496,-4.8696,0.8348,0.1391
515,-0.1916,-9.3885,1.073,-4.5913,0.6957,0.2087
520,-0.0766,-9.3502,1.0346,-4.5913,0.5565,0.2087
525,-0.0766,-9.3118,1.1113,-4.4522,0.5565,0.1391
530,-0.1533,-9.3118,0.9963,-4.313,0.6261,0.1391
535,-0.115,-9.2735,1.073,-4.4522,0.8348,0.0696
540,-0.0766,-9.3502,0.958,-4.3826,0.9043,-0.0696
545,-0.0766,-9.2352,0.958,-4.4522,0.9739,0.0
550,-0.115,-9.3502,0.8814,-4.5217,1.0435,-0.0696
555,-0.0383,-9.2735,1.1496,-4.6609,1.113,-0.1391
560,-0.1916,-9.1969,1.1113,-5.0087,1.1826,-0.1391
565,-0.1916,-9.3502,0.9197,-5.2174,1.113,-0.1391
570,-0.2299,-9.2352,1.1496,-5.287,1.2522,-0.0696
575,-0.0383,-9.3502,1.1496,-5.1478,1.2522,-0.0696
580,-0.115,-9.3502,1.0346,-5.287,1.3217,-0.2087
585,-0.0766,-9.3118,0.9197,-5.0783,1.3217,-0.1391
590,-0.115,-9.3502,0.9963,-5.0783,1.3217,-0.1391
595,-0.115,-9.3118,0.8814,-4.8696,1.3217,-0.0696
600,-0.2299,-9.3118,1.073,-4.4522,1.3217,-0.0696
605,-0.115,-9.3502,0.9197,-4.2435,1.3217,-0.1391
610,-0.1533,-9.3502,1.2646,-3.8261,1.2522,-0.1391
615,-0.1533,-9.3502,1.073,-3.6174,1.1826,-0.1391
620,-0.115,-9.4651,0.958,-3.3391,1.1826,-0.1391
625,-0.115,-9.3118,1.1496,-3.1304,1.113,-0.2087
630,0.0,-9.0819,1.1496,-3.0609,1.113,-0.1391
635,-0.1533,-9.3502,1.1113,-2.8522,0.9043,-0.0696
640,-0.0766,-9.3885,1.0346,-2.9217,1.0435,0.0
645,-0.1533,-9.3118,0.958,-2.8522,1.1826,-0.0696
650,-0.1533,-9.3885,0.843,-2.7826,1.1826,-0.0696
655,-0.2682,-9.2735,1.073,-2.7826,1.3217,-0.1391
660,-0.115,-9.3502,0.8814,-2.6435,1.3913,-0.1391
665,-0.115,-9.3118,0.8047,-2.5739,1.3913,-0.2783
670,-0.2299,-9.1586,1.0346,-2.6435,1.5304,-0.2087
675,-0.1916,-9.2735,1.1879,-2.5739,1.5304,-0.3478
680,-0.2299,-9.3118,0.9197,-2.5739,1.4609,-0.4174
685,-0.1533,-9.3118,1.1496,-2.5043,1.4609,-0.5565
690,-0.0766,-9.4651,0.8814,-2.3652,1.4609,-0.6261
695,-0.115,-9.3118,0.843,-2.2957,1.3217,-0.5565
700,-0.1533,-9.2735,1.0346,-2.2261,1.3913,-0.6261
705,-0.1916,-9.3502,0.9963,-2.2261,1.3913,-0.6261
710,-0.1533,-9.3118,0.958,-2.1565,1.3217,-0.5565
715,-0.115,-9.3118,0.9197,-2.1565,1.3913,-0.5565
720,-0.0766,-9.3118,0.9197,-2.087,1.2522,-0.5565
725,-0.1533,-9.3118,0.9963,-2.0174,1.1826,-0.487
730,0.0,-9.4268,0.8047,-2.0174,1.2522,-0.6261
735,-0.2299,-9.3118,0.9197,-1.9478,1.1826,-0.5565
740,-0.1533,-9.3502,0.8814,-1.8783,1.1826,-0.5565
745,-0.2299,-9.2735,1.1496,-1.8087,1.1826,-0.6957
750,-0.0766,-9.3118,1.0346,-1.7391,1.3217,-0.6957
755,-0.115,-9.3118,1.1113,-1.7391,1.2522,-0.6957
760,-0.2299,-9.1969,1.0346,-1.7391,1.2522,-0.5565
765,-0.1916,-9.2735,0.958,-1.8783,1.3913,-0.6957
770,-0.115,-9.3118,0.9963,-1.9478,1.5304,-0.6957
775,-0.115,-9.1969,1.1496,-1.8783,1.6,-0.6957
780,-0.0766,-9.3885,1.1496,-1.8783,1.6,-0.7652
785,0.0,-9.4268,0.843,-1.9478,1.4609,-0.6957
790,-0.0766,-9.3118,1.1879,-2.1565,1.4609,-0.6261
795,-0.2299,-9.1969,1.0346,-2.2957,1.4609,-0.6957
800,-0.115,-9.3502,1.1879,-2.2957,1.4609,-0.6261
805,-0.1533,-9.3502,0.9963,-2.4348,1.3913,-0.5565
810,-0.0383,-9.3118,1.1113,-2.5739,1.4609,-0.5565
815,-0.115,-9.3118,1.1113,-2.4348,1.3913,-0.6261
820,-0.115,-9.3502,1.073,-2.4348,1.4609,-0.5565
825,-0.0766,-9.3502,1.073,-2.5043,1.3913,-0.6261
830,-0.0383,-9.3118,1.1496,-2.2957,1.3913,-0.6957
835,-0.1533,-9.3502,1.1496,-2.2261,1.5304,-0.487
840,-0.1916,-9.3118,0.9963,-2.2261,1.3913,-0.5565
845,0.0,-9.3885,1.1496,-2.0174,1.4609,-0.487
850,-0.0766,-9.5801,0.9963,-1.7391,1.4609,-0.487
855,-0.0766,-9.3502,1.1879,-1.5304,1.4609,-0.5565
860,-0.1533,-9.3118,1.1496,-1.2522,1.3913,-0.487
865,-0.115,-9.3502,0.958,-1.113,1.4609,-0.487
870,-0.0766,-9.3502,1.073,-0.9043,1.4609,-0.5565
875,-0.115,-9.3502,0.958,-0.7652,1.4609,-0.5565
880,-0.1916,-9.3502,1.0346,-0.8348,1.4609,-0.7652
885,-0.1916,-9.3118,0.958,-0.8348,1.4609,-0.8348
890,-0.1533,-9.2735,1.073,-0.9043,1.3913,-0.7652
895,-0.1533,-9.2352,0.9963,-1.1826,1.2522,-0.8348
900,-0.1916,-9.3502,0.9963,-1.4609,1.3217,-0.8348
905,-0.115,-9.2352,1.2263,-1.5304,1.3913,-0.9043
910,-0.115,-9.3118,1.073,-1.7391,1.3913,-0.9739
915,-0.115,-9.3502,1.0346,-1.7391,1.4609,-0.9739
920,-0.115,-9.3118,1.1113,-1.7391,1.4609,-0.9739
925,-0.2299,-9.3118,1.2263,-1.7391,1.3913,-0.9043
930,-0.0766,-9.3502,1.1496,-1.7391,1.3913,-0.7652
935,-0.115,-9.3885,1.1113,-1.6696,1.1826,-0.6957
940,-0.2299,-9.3118,0.958,-1.6,1.113,-0.7652
945,-0.2682,-9.2352,1.1113,-1.6,0.9739,-0.6957
950,-0.1916,-9.4651,1.1113,-1.4609,0.8348,-0.487
955,-0.0383,-9.3885,1.073,-1.1826,0.6957,-0.487
960,-0.1533,-9.5034,0.9197,-0.7652,0.6957,-0.5565
965,-0.115,-9.2352,1.1496,-0.4174,0.7652,-0.6261
970,-0.115,-9.3118,1.0346,-0.0696,0.9043,-0.6261
975,-0.115,-9.3118,1.073,0.0696,1.0435,-0.7652
980,-0.115,-9.3118,1.1113,0.1391,1.113,-0.7652
985,-0.2299,-9.2352,1.1496,0.1391,1.3217,-0.9043
990,-0.1533,-9.2735,0.9963,0.2087,1.3913,-0.9043
995,-0.1533,-9.3118,1.1879,0.0,1.5304,-0.9043
1000,-0.1916,-9.3502,1.073,-0.0696,1.6,-0.9739
1005,-0.1916,-9.3502,0.9963,-0.0696,1.5304,-1.0435
1010,-0.1533,-9.3118,1.3029,0.0,1.5304,-1.0435
1015,-0.1916,-9.3885,1.1496,0.0696,1.5304,-0.9739
1020,-0.115,-9.2735,1.1879,0.0696,1.4609,-0.9739
1025,-0.115,-9.3502,1.1496,0.2783,1.4609,-0.9043
1030,-0.115,-9.3502,0.9963,0.3478,1.4609,-0.8348
1035,-0.115,-9.3118,1.1879,0.487,1.3217,-0.7652
1040,-0.1533,-9.3118,1.073,0.6261,1.1826,-0.6957
1045,-0.115,-9.3502,1.2646,0.7652,1.1826,-0.7652
1050,-0.0383,-9.3502,1.2646,1.0435,1.113,-0.6957
1055,-0.0383,-9.3885,1.1879,1.2522,0.9739,-0.6957
1060,-0.0766,-9.3118,1.2263,1.3217,1.0435,-0.6261
1065,-0.0766,-9.3118,1.073,1.2522,0.9739,-0.6957
1070,-0.1533,-9.2352,1.1879,1.3217,0.9739,-0.6957
1075,-0.1533,-9.3118,1.1113,1.113,1.1826,-0.6261
1080,-0.0766,-9.1969,1.1879,0.9739,1.1826,-0.6957
1085,-0.1916,-9.1586,1.1113,0.7652,1.3217,-0.6261
1090,-0.0383,-9.2352,1.1496,0.5565,1.4609,-0.6957
1095,-0.0766,-9.2735,1.1496,0.2783,1.6,-0.6261
1100,-0.1533,-9.1969,1.3412,0.0696,1.6696,-0.6957
1105,-0.0383,-9.3502,1.1496,0.0,1.6696,-0.5565
1110,-0.0383,-9.3118,0.8814,-0.0696,1.7391,-0.6261
1115,-0.0766,-9.3118,1.2263,-0.1391,1.6696,-0.6957
1120,-0.0766,-9.3502,1.1879,-0.0696,1.7391,-0.6957
1125,-0.115,-9.1586,1.1496,-0.1391,1.7391,-0.6957
1130,-0.1533,-9.2735,1.2263,-0.2087,1.5304,-0.6957
1135,-0.115,-9.2352,1.2263,-0.487,1.5304,-0.6957
1140,-0.1533,-9.1969,1.3412,-0.5565,1.3217,-0.6957
1145,-0.0766,-9.2352,1.2646,-0.6957,1.3217,-0.6957
1150,-0.0383,-9.2735,1.1496,-0.9043,1.2522,-0.6261
1155,0.0383,-9.3502,1.2263,-1.0435,1.113,-0.5565
1160,-0.1916,-9.3502,1.2263,-0.9739,1.0435,-0.6261
1165,-0.0383,-9.4268,1.4179,-0.9739,0.9739,-0.487
1170,-0.1916,-9.3118,1.4945,-0.7652,1.0435,-0.4174
1175,-0.115,-9.2735,1.3029,-0.5565,1.113,-0.3478
1180,-0.115,-9.3118,1.2646,-0.2087,1.1826,-0.3478
1185,-0.115,-9.3118,1.2646,-0.0696,1.113,-0.3478
1190,-0.1533,-9.2735,1.1496,0.2087,1.1826,-0.4174
1195,-0.2299,-9.1586,1.3029,0.0696,1.113,-0.487
1200,-0.115,-9.3118,1.2263,0.1391,1.3217,-0.487
1205,-0.115,-9.3118,1.1879,-0.0696,1.3913,-0.5565
1210,-0.1533,-9.2735,1.3795,-0.2087,1.3217,-0.6261
1215,-0.1916,-9.2352,1.1113,-0.5565,1.3217,-0.6957
1220,-0.115,-9.2352,1.3412,-0.9043,1.3217,-0.5565
1225,0.0766,-9.3502,1.1879,-1.113,1.3217,-0.5565
1230,-0.1533,-9.4268,1.073,-1.3217,1.2522,-0.6261
1235,-0.1533,-9.1202,1.3795,-1.5304,1.1826,-0.6261
1240,-0.0383,-9.2352,1.3412,-1.6,1.2522,-0.6261
1245,0.0,-9.2735,1.2646,-1.7391,1.2522,-0.6261
1250,0.0,-9.2735,1.3412,-1.8087,1.3217,-0.487
1255,-0.115,-9.2735,1.3795,-1.7391,1.3217,-0.4174
1260,-0.0383,-9.2735,1.2263,-1.7391,1.3913,-0.487
1265,0.0,-9.2352,1.4945,-1.8087,1.3217,-0.487
1270,-0.115,-9.3502,1.2646,-1.7391,1.3913,-0.487
1275,-0.115,-9.1969,1.2646,-1.8087,1.5304,-0.5565
1280,-0.1533,-9.2352,1.2263,-1.6,1.4609,-0.487
1285,-0.3449,-9.1969,1.3795,-1.6,1.4609,-0.487
1290,-0.0766,-9.2735,1.3029,-1.5304,1.4609,-0.5565
1295,-0.115,-9.2735,1.4179,-1.5304,1.2522,-0.6261
1300,-0.0766,-9.3118,1.3412,-1.4609,1.3217,-0.5565
1305,-0.0383,-9.2352,1.3795,-1.6,1.0435,-0.5565
1310,0.0,-9.2735,1.2263,-1.8087,1.0435,-0.487
1315,-0.0766,-9.3118,1.3795,-1.8087,0.9043,-0.4174
1320,-0.1916,-9.1202,1.3029,-1.7391,0.9043,-0.4174
1325,-0.115,-9.3502,1.2263,-1.8087,1.0435,-0.4174
1330,-0.1533,-9.2735,1.3795,-1.7391,1.0435,-0.3478
1335,-0.115,-9.2735,1.6478,-1.8087,1.1826,-0.2783
1340,-0.1916,-9.3118,1.2263,-1.7391,1.2522,-0.3478
1345,-0.115,-9.2735,1.3029,-1.8087,1.4609,-0.2087
1350,-0.1533,-9.2735,1.2646,-1.9478,1.5304,-0.2783
1355,-0.1916,-9.3118,1.3412,-2.0174,1.6696,-0.2783
1360,-0.115,-9.3885,1.3412,-1.8087,1.6,-0.2783
1365,-0.1533,-9.2352,1.2646,-1.8087,1.5304,-0.2783
1370,-0.1916,-9.3118,1.3412,-1.8087,1.6,-0.3478
1375,-0.115,-9.0819,1.3029,-1.6696,1.6,-0.4174
1380,-0.0766,-9.2735,1.3412,-1.4609,1.4609,-0.3478
1385,-0.115,-9.1969,1.3412,-1.5304,1.3217,-0.4174
1390,0.0766,-9.1586,1.4945,-1.5304,1.1826,-0.4174
1395,-0.0383,-9.3502,1.3412,-1.6,1.1826,-0.4174
1400,-0.115,-9.2352,1.4179,-1.4609,1.113,-0.4174
1405,-0.115,-9.2735,1.2263,-1.4609,1.0435,-0.487
1410,0.0383,-9.3118,1.3412,-1.5304,1.1826,-0.4174
1415,-0.115,-9.2735,1.4562,-1.4609,1.113,-0.3478
1420,-0.0766,-9.2735,1.3795,-1.4609,1.2522,-0.3478
1425,0.0383,-9.1586,1.3795,-1.5304,1.2522,-0.3478
1430,-0.1916,-9.1202,1.3412,-1.5304,1.1826,-0.2783
1435,-0.0766,-9.2735,1.2263,-1.5304,1.1826,-0.3478
1440,-0.2299,-9.2735,1.3029,-1.8087,1.113,-0.4174
1445,-0.2682,-9.1586,1.2646,-2.0174,1.113,-0.5565
1450,-0.1916,-9.0819,1.3029,-2.2957,1.1826,-0.5565
1455,-0.1533,-9.1969,1.3412,-2.6435,1.1826,-0.6261
1460,-0.0766,-9.2352,1.3029,-2.9913,1.2522,-0.6957
1465,-0.115,-9.2352,1.5328,-3.2,1.3217,-0.7652
1470,-0.0766,-9.2735,1.2646,-3.4783,1.3913,-0.6957
1475,-0.0766,-9.3118,1.3412,-3.4783,1.4609,-0.6957
1480,-0.0766,-9.2735,1.3412,-3.4783,1.4609,-0.5565
1485,-0.1533,-9.2735,1.3412,-3.5478,1.4609,-0.5565
1490,-0.1533,-9.3118,1.4945,-3.5478,1.3913,-0.3478
1495,-0.0383,-9.3118,1.3029,-3.4783,1.1826,-0.2087
1500,-0.115,-9.3502,1.4562,-3.4783,0.9739,-0.2087
1505,-0.1533,-9.4268,1.3795,-3.2696,0.8348,-0.0696
1510,-0.0766,-9.3118,1.3795,-2.9913,0.6261,0.0
1515,0.0,-9.3118,1.2646,-2.4348,0.6957,0.0
1520,0.0,-9.3118,1.2646,-1.9478,0.6957,0.0
1525,-0.1533,-9.2352,1.1879,-1.8087,0.7652,-0.2087
1530,0.0,-9.2352,1.1879,-1.6696,0.9739,-0.2783
1535,-0.115,-9.2735,1.3412,-1.6696,1.113,-0.3478
1540,-0.1533,-9.2735,1.3412,-1.8783,1.3217,-0.487
1545,-0.2299,-9.2352,1.2646,-1.8783,1.4609,-0.6261
1550,-0.0766,-9.2352,1.4179,-2.1565,1.6696,-0.6261
1555,-0.1533,-9.1969,1.1879,-2.2261,1.8087,-0.6957
1560,-0.0383,-9.1969,1.3795,-2.2957,1.8087,-0.6261
1565,-0.0766,-9.2352,1.3795,-2.5043,1.7391,-0.5565
1570,-0.0766,-9.2352,1.4179,-2.5043,1.6,-0.487
1575,-0.0766,-9.1586,1.2646,-2.6435,1.3913,-0.4174
1580,-0.115,-9.2735,1.4562,-2.7826,1.1826,-0.2783
1585,-0.0383,-9.2735,1.4562,-2.7826,1.113,-0.1391
1590,-0.115,-9.2735,1.2646,-2.713,0.9043,-0.1391
1595,-0.0383,-9.1969,1.4945,-2.6435,0.6957,-0.0696
1600,0.0383,-9.2352,1.3029,-2.6435,0.6957,-0.0696
1605,-0.1916,-9.1969,1.3795,-2.7826,0.6957,-0.0696
1610,-0.4982,-9.2352,1.2263,-2.5739,0.6957,-0.1391
1615,-0.2299,-9.3118,1.3412,-2.713,0.6957,0.0
1620,0.0,-9.3118,1.3412,-2.7826,0.8348,-0.0696
1625,-0.115,-9.1969,1.3795,-2.7826,0.9043,-0.1391
1630,-0.0383,-9.2352,1.4945,-2.9217,1.0435,-0.1391
1635,-0.0383,-9.2735,1.2263,-3.1304,0.9739,-0.1391
1640,-0.0766,-9.3118,1.3795,-3.2,1.113,-0.1391
1645,0.0,-9.3118,1.1496,-3.2696,1.2522,-0.2087
1650,-0.1533,-9.3118,1.073,-3.3391,1.3217,-0.1391
1655,-0.1533,-9.1969,1.3029,-3.3391,1.3217,-0.1391
1660,-0.0766,-9.3118,1.2646,-3.2696,1.3913,-0.1391
1665,0.0383,-9.1969,1.3412,-3.4087,1.3913,-0.1391
1670,0.0,-9.2735,1.3795,-3.4087,1.3217,-0.2087
1675,-0.1533,-9.3118,1.2263,-3.4087,1.3217,-0.1391
1680,-0.115,-9.1969,1.1496,-3.4783,1.2522,-0.0696
1685,-0.1916,-9.1586,1.2646,-3.4783,1.1826,-0.0696
1690,-0.1533,-9.2352,1.3795,-3.5478,1.0435,-0.1391
1695,-0.0383,-9.3502,1.4179,-3.4087,0.9739,-0.2087
1700,-0.1533,-9.1586,1.2646,-3.4783,0.9739,-0.2087
1705,-0.0766,-9.1586,1.1879,-3.4783,0.8348,-0.0696
1710,0.0,-9.3885,1.2263,-3.4087,0.6957,-0.0696
1715,-0.1533,-9.2735,1.2263,-3.4087,0.7652,0.0
1720,-0.0383,-9.0819,1.4562,-3.2,0.7652,-0.1391
1725,-0.1533,-9.2352,1.3412,-2.9913,0.8348,0.0
1730,-0.115,-9.3502,1.4179,-2.8522,0.8348,-0.0696
1735,-0.0383,-9.2735,1.0346,-2.713,0.8348,-0.0696
1740,0.0383,-9.3502,1.4179,-2.5739,1.0435,-0.0696
1745,-0.115,-9.3502,1.2263,-2.5043,0.9739,0.0696
1750,-0.1916,-9.2735,1.3795,-2.5043,1.0435,0.0
1755,-0.115,-9.3118,1.2263,-2.5043,1.0435,-0.1391
1760,0.0383,-9.1969,1.3029,-2.6435,1.113,-0.1391
1765,-0.0766,-9.1202,1.2646,-2.6435,1.113,-0.2087
1770,-0.0766,-9.1586,1.3795,-2.9217,1.113,-0.1391
1775,-0.115,-9.2352,1.1496,-2.9913,1.113,-0.2087
1780,-0.115,-9.1586,1.4945,-3.1304,1.1826,-0.1391
1785,-0.0383,-9.2352,1.3412,-3.3391,1.1826,-0.2087
1790,-0.115,-9.2352,1.2263,-3.3391,1.113,-0.2087
1795,-0.0766,-9.1586,1.3412,-3.4087,1.113,-0.2087
1800,-0.1533,-9.2735,1.3795,-3.4087,1.0435,-0.1391
1805,-0.1533,-9.2352,1.3795,-3.3391,1.0435,-0.1391
1810,-0.1533,-9.2352,1.3795,-3.4087,1.113,-0.0696
1815,-0.0766,-9.2352,1.2263,-3.4783,1.113,0.0696
1820,0.0,-9.3885,1.3795,-3.4783,1.1826,0.0696
1825,-0.0383,-9.3502,1.2646,-3.3391,1.3217,0.0696
1830,0.0383,-9.5418,1.4945,-3.3391,1.4609,0.1391
1835,-0.1916,-9.2352,1.3412,-3.2696,1.4609,0.1391
1840,0.0,-9.3118,1.3412,-3.3391,1.6,0.1391
1845,-0.1533,-9.1969,1.3029,-3.2696,1.6,0.1391
1850,-0.0383,-9.3118,1.2646,-3.4087,1.5304,0.0696
1855,-0.115,-9.2735,1.2646,-3.4087,1.3913,-0.0696
1860,-0.0766,-9.1586,1.3412,-3.5478,1.3217,-0.1391
1865,-0.115,-9.3118,1.3029,-3.5478,1.113,-0.2087
1870,-0.1916,-9.2352,1.3795,-3.6174,0.9739,-0.2087
1875,-0.115,-9.2735,1.4179,-3.7565,0.6957,-0.1391
1880,-0.1916,-9.2735,1.3412,-3.8957,0.487,-0.0696
1885,0.115,-9.3118,1.3029,-3.8261,0.3478,-0.1391
1890,-0.1916,-9.2735,1.3412,-3.7565,0.3478,-0.1391
1895,-0.115,-9.2352,1.2646,-3.687,0.2087,0.0
1900,-0.0766,-9.3118,1.1879,-3.687,0.3478,-0.1391
1905,-0.1533,-9.2352,1.3795,-3.687,0.5565,-0.1391
1910,-0.115,-9.1969,1.4179,-3.8261,0.6261,-0.1391
1915,-0.0766,-9.2735,1.5328,-3.8261,0.7652,-0.1391
1920,-0.115,-9.2735,1.5328,-3.8261,0.8348,0.0
1925,-0.0766,-9.1969,1.3795,-3.7565,0.8348,0.0
1930,0.0,-9.2352,1.5711,-3.7565,0.8348,0.0696
1935,-0.1533,-9.2735,1.4562,-3.8261,0.9739,0.0696
1940,-0.1916,-9.3118,1.1496,-3.687,1.0435,0.0
1945,-0.1916,-9.2735,1.4945,-3.687,1.0435,0.0
1950,-0.0766,-9.2735,1.2646,-3.6174,1.0435,0.0
1955,-0.115,-9.2735,1.3029,-3.6174,1.113,0.1391
1960,-0.115,-9.2352,1.4179,-3.7565,1.0435,0.2087
1965,-0.0766,-9.3502,1.3412,-3.8261,0.9739,0.2783
1970,-0.1916,-9.2352,1.2646,-3.9652,0.9739,0.2087
1975,-0.2299,-9.1969,1.3795,-4.1739,0.9043,0.2783
1980,-0.1533,-9.1969,1.4945,-4.313,1.0435,0.2087
1985,-0.115,-9.1202,1.1879,-4.5217,1.0435,0.2783
1990,-0.3449,-9.1202,1.4562,-4.6609,1.113,0.2087
1995,-0.2682,-9.1586,1.2646,-4.7304,1.113,0.2087
2000,-0.0383,-9.3118,1.3412,-4.6609,1.113,0.1391
2005,0.0,-9.3118,1.2263,-4.6609,1.0435,0.1391
2010,0.0383,-9.3118,1.3029,-4.4522,0.8348,0.1391
2015,0.0,-9.2352,1.3029,-4.2435,0.9043,0.1391
2020,-0.1533,-9.1969,1.3795,-4.1043,0.7652,0.1391
2025,-0.0766,-9.3502,1.3412,-3.8957,0.6261,0.1391
2030,-0.1916,-9.3118,1.2263,-3.6174,0.5565,0.0
2035,-0.1916,-9.3118,1.3029,-3.687,0.5565,0.0
2040,-0.0383,-9.1969,1.4179,-3.5478,0.487,-0.0696
2045,-0.0766,-9.0819,1.4562,-3.6174,0.487,-0.0696
2050,0.0,-9.3118,1.1879,-3.9652,0.7652,-0.2087
2055,-0.115,-9.3118,1.3412,-4.313,0.9739,-0.1391
2060,-0.1533,-9.1969,1.4179,-4.5217,1.0435,-0.2087
2065,-0.0766,-9.3118,1.2646,-4.5913,1.3217,-0.2087
2070,-0.1533,-9.2735,1.3412,-4.6609,1.3217,-0.2087
2075,-0.1533,-9.3118,1.3412,-4.8,1.2522,-0.1391
2080,-0.0383,-9.3502,1.2646,-4.8696,1.2522,-0.0696
2085,-0.1916,-9.3885,1.2263,-4.8,1.113,0.2087
2090,-0.0383,-9.3118,1.3029,-4.8,0.9043,0.2783
2095,-0.0383,-9.3885,1.3795,-4.7304,0.6957,0.3478
2100,-0.1533,-9.2735,1.1496,-4.7304,0.5565,0.3478
2105,-0.0766,-9.3118,1.3412,-4.6609,0.487,0.487
2110,-0.0766,-9.3502,1.2646,-4.5217,0.4174,0.4174
2115,-0.0766,-9.3118,1.3412,-4.1043,0.487,0.2087
2120,-0.115,-9.3885,1.2646,-3.8261,0.6957,0.2783
2125,-0.1533,-9.2735,1.3412,-3.4783,1.0435,0.2087
2130,-0.0766,-9.2735,1.3029,-3.2696,1.1826,0.0696
2135,-0.0383,-9.2735,1.3795,-3.2696,1.3217,0.0
2140,-0.1916,-9.2735,1.1879,-3.2696,1.3913,-0.0696
2145,-0.1916,-9.2352,1.1879,-3.4087,1.6,-0.1391
2150,0.0383,-9.3502,1.1879,-3.5478,1.6696,-0.2087
2155,-0.2299,-9.1202,1.2263,-3.5478,1.8087,-0.2783
2160,-0.1916,-9.2735,1.3412,-3.5478,1.6696,-0.3478
2165,-0.0383,-9.3502,1.1879,-3.4783,1.5304,-0.1391
2170,-0.115,-9.2735,1.3412,-3.4783,1.2522,-0.1391
2175,-0.0766,-9.3118,1.3029,-3.4783,1.0435,-0.0696
2180,-0.0383,-9.3118,1.3029,-3.4783,0.9043,0.0
2185,0.0383,-9.3502,1.3029,-3.4087,0.6957,0.0696
2190,-0.0383,-9.2735,1.3412,-3.4087,0.6261,0.0
2195,-0.115,-9.2735,1.2263,-3.3391,0.5565,0.0
2200,-0.0383,-9.3885,1.073,-3.1304,0.487,0.0696
2205,-0.2299,-9.2352,1.3029,-2.9913,0.487,0.0
2210,0.0766,-9.4268,1.1879,-2.7826,0.487,-0.0696
2215,-0.1533,-9.3118,1.1496,-2.713,0.2783,-0.1391
2220,-0.115,-9.2352,1.2646,-2.713,0.4174,-0.1391
2225,-0.0766,-9.1202,1.3412,-2.8522,0.4174,-0.1391
2230,-0.0766,-9.2352,1.1496,-3.0609,0.5565,-0.1391
2235,-0.1916,-9.2352,1.2263,-3.2696,0.5565,-0.4174
2240,-0.0766,-9.2352,1.2646,-3.4783,0.6261,-0.3478
2245,-0.0766,-9.1969,0.9963,-3.687,0.6261,-0.3478
2250,-0.1533,-9.1202,1.0346,-3.9652,0.6957,-0.2783
2255,-0.115,-9.1202,1.2646,-4.2435,0.5565,-0.3478
2260,-0.2682,-9.2735,1.4562,-4.4522,0.5565,-0.2087
2265,-0.115,-9.2352,1.073,-4.4522,0.5565,-0.2783
2270,-0.1533,-9.3118,1.1879,-4.4522,0.6261,-0.3478
2275,-0.1533,-9.3118,1.2646,-4.3826,0.5565,-0.2087
2280,-0.0766,-9.2352,1.1879,-4.313,0.6261,-0.2087
2285,-0.1916,-9.2352,1.2263,-4.1043,0.6261,-0.2087
2290,-0.1533,-9.2735,1.1496,-3.9652,0.6261,-0.3478
2295,-0.1533,-9.2735,1.1496,-3.687,0.5565,-0.1391
2300,-0.2682,-9.1586,1.2646,-3.5478,0.5565,-0.0696
2305,-0.0383,-9.2735,1.3029,-3.6174,0.5565,-0.1391
2310,-0.1916,-9.2352,1.3795,-3.687,0.487,-0.1391
2315,-0.115,-9.1969,1.0346,-3.687,0.487,-0.0696
2320,-0.3066,-9.1969,1.3795,-3.8261,0.3478,0.0696
2325,-0.115,-9.1969,1.2646,-3.9652,0.4174,0.2087
2330,-0.0766,-9.3118,1.3029,-4.0348,0.5565,0.0696
2335,-0.1916,-9.1586,1.3795,-4.1043,0.5565,0.0696
2340,-0.1533,-9.2352,1.2263,-4.3826,0.7652,0.1391
2345,0.0383,-9.3118,1.2646,-4.5217,0.7652,0.2087
2350,-0.115,-9.3118,1.3795,-4.5217,0.9043,0.1391
2355,-0.1916,-9.1969,1.3029,-4.5913,0.9043,0.1391
2360,-0.1916,-9.1202,1.3412,-4.8,0.9043,0.1391
2365,-0.0766,-9.3118,1.3029,-4.9391,0.6261,0.2783
2370,-0.1533,-9.0819,1.3795,-5.0087,0.4174,0.2087
2375,-0.1533,-9.1202,1.1496,-5.1478,0.2087,0.2783
2380,-0.2299,-9.1586,1.2646,-5.2174,0.0,0.2783
2385,-0.115,-9.2735,1.0346,-5.4261,0.0696,0.3478
2390,-0.1916,-9.1202,1.3029,-5.5652,0.0696,0.487
2395,-0.0383,-9.2735,1.1879,-5.6348,0.3478,0.6261
2400,-0.0383,-9.1202,1.3412,-5.913,0.6261,0.6957
2405,-0.115,-9.1586,1.2646,-6.0522,0.9043,0.6261
2410,-0.115,-9.0436,1.4179,-6.4696,1.2522,0.9043
2415,-0.1533,-9.2352,1.1496,-7.0957,1.3217,1.0435
2420,-0.0383,-9.1586,1.4179,-7.7217,1.2522,1.1826
2425,-0.115,-9.0819,1.5328,-8.487,1.2522,1.1826
2430,-0.1916,-9.2735,1.2646,-9.1826,0.9739,1.0435
2435,-0.2299,-9.2735,1.3412,-9.8087,0.6261,0.9739
2440,-0.2682,-9.3118,1.3795,-10.1565,0.0696,0.9739
2445,-0.2682,-9.3502,1.5328,-10.2261,-0.6957,0.8348
2450,-0.2299,-9.2735,1.4562,-10.0174,-1.4609,0.7652
2455,-0.3832,-9.3118,1.3795,-9.9478,-2.2957,0.8348
2460,-0.3066,-9.2735,1.4562,-10.0174,-2.9913,0.7652
2465,-0.4598,-9.2352,1.5328,-9.9478,-3.7565,0.6261
2470,-0.3832,-9.3118,1.6095,-10.0174,-4.5913,0.487
2475,-0.3066,-9.1586,1.5328,-10.2261,-5.4261,0.487
2480,-0.2299,-9.0053,1.5328,-10.4348,-6.1217,0.8348
2485,-0.2299,-9.0053,1.3795,-10.713,-6.3304,1.3217
2490,-0.1916,-9.0436,1.2646,-11.0609,-6.0522,1.8783
2495,-0.2299,-8.8137,1.1496,-11.7565,-5.5652,2.2261
2500,-0.115,-8.8903,1.0346,-12.8,-5.0087,2.6435
2505,-0.0383,-8.9286,1.1496,-14.1217,-4.5913,2.8522
2510,0.0383,-8.9286,1.1496,-15.5826,-4.3826,3.2
2515,0.0383,-9.0053,1.2646,-16.6957,-4.1739,3.4087
2520,0.0383,-9.0053,1.2263,-17.6,-3.9652,3.4783
2525,0.0766,-8.9286,1.3029,-18.2957,-3.4783,3.4783
2530,0.1533,-8.967,1.3029,-19.1304,-2.9913,3.4087
2535,0.3066,-9.1586,1.1879,-19.6174,-2.5739,3.3391
2540,0.0766,-9.0436,1.2263,-20.2435,-2.2957,3.3391
2545,0.0766,-9.1202,1.3795,-20.8696,-2.1565,3.3391
2550,0.0766,-9.0053,1.5328,-21.6348,-1.8087,3.4087
2555,0.115,-8.967,1.3795,-22.4,-1.3913,3.5478
2560,0.115,-9.0436,1.4179,-23.3043,-0.6957,3.7565
2565,0.0766,-9.0819,1.4179,-24.2783,0.5565,4.0348
2570,0.115,-8.967,1.6478,-25.113,2.087,4.2435
2575,0.2299,-9.0053,1.4562,-26.087,3.9652,4.5217
2580,0.1533,-8.9286,1.4562,-27.4087,5.7739,4.5913
2585,0.1916,-8.7754,1.4562,-28.9391,7.1652,4.4522
2590,0.0766,-8.4305,1.3412,-30.9565,8.1391,3.9652
2595,0.2682,-8.6221,1.3412,-33.1826,8.5565,3.4087
2600,0.2682,-8.5454,1.2646,-35.6174,8.9739,2.713
2605,0.2682,-8.5838,1.1879,-38.1913,9.1826,2.087
2610,0.2682,-8.6604,1.3795,-40.9739,9.3913,1.3913
2615,0.3066,-8.5838,1.1113,-43.8957,9.6696,0.9043
2620,0.0766,-8.5838,1.1113,-46.5391,9.9478,0.3478
2625,-0.115,-8.737,1.0346,-49.0435,9.8783,-0.0696
2630,-0.3066,-8.737,1.0346,-51.3391,9.3913,-0.1391
2635,-0.3066,-8.8903,0.8814,-53.4957,8.487,-0.1391
2640,-0.4598,-8.8137,0.7664,-55.5826,7.5826,-0.0696
2645,-0.5365,-8.9286,0.6514,-57.6,6.5391,0.2087
2650,-0.5748,-9.3118,0.3449,-59.3391,5.7739,0.6957
2655,-0.5748,-9.3118,0.4982,-60.8696,5.4261,1.1826
2660,-0.5748,-9.3502,0.1916,-61.7043,5.287,1.6
2665,-0.5748,-9.3502,0.1533,-61.9826,5.287,1.9478
2670,-0.4982,-9.3885,0.115,-61.8435,5.2174,2.5739
2675,-0.4215,-9.4268,-0.1916,-60.8696,5.4261,3.0609
2680,-0.4215,-9.2735,0.0766,-59.0609,5.4957,3.3391
2685,-0.4982,-9.3118,-0.2299,-56.7652,5.4957,3.4783
2690,-0.3832,-9.1202,-0.4215,-54.4696,5.2174,3.6174
2695,-0.4598,-9.0436,-0.3832,-52.5913,5.0087,3.7565
2700,-0.4215,-9.1202,-0.4215,-51.1304,4.9391,4.1043
2705,-0.4215,-8.8137,-0.5365,-50.5739,4.8,4.313
2710,-0.4598,-8.737,-0.6131,-50.9913,4.8696,4.5913
2715,-0.5748,-8.6604,-0.8047,-52.0348,4.9391,5.0087
2720,-0.6131,-8.737,-0.7281,-53.7739,4.9391,5.4957
2725,-0.5748,-8.6987,-0.8047,-56.0696,4.6609,6.0522
2730,-0.5748,-8.737,-0.5365,-58.6435,4.313,6.9565
2735,-0.4982,-8.852,-0.4598,-61.0783,3.7565,7.6522
2740,-0.6131,-8.8137,-0.4215,-63.9304,3.1304,8.2087
2745,-0.4982,-8.8903,-0.2682,-67.2696,2.5739,8.6957
2750,-0.4982,-8.737,-0.1533,-71.3043,2.2261,9.113
2755,-0.3832,-9.0053,0.2299,-75.7565,1.9478,9.5304
2760,-0.4215,-8.8903,0.3449,-79.7217,2.2261,9.8087
2765,-0.4215,-8.967,0.4598,-83.8957,3.1304,10.2261
2770,-0.2682,-9.0436,0.6131,-88.487,4.9391,10.5739
2775,-0.2299,-9.2352,0.8047,-93.0783,7.6522,11.1304
2780,0.115,-9.4268,0.843,-97.6696,10.8522,11.4087
2785,0.0766,-9.5801,1.073,-102.6087,14.0522,11.3391
2790,0.0383,-10.0399,1.1496,-107.8261,17.0435,10.8522
2795,0.0383,-10.4614,1.2263,-113.5304,19.2696,9.8087
2800,-0.115,-11.0746,1.5328,-120.0,20.313,8.487
2805,-0.3449,-11.8793,1.3029,-126.887,19.7565,7.0261
2810,-0.3832,-12.684,1.4179,-134.0522,18.0174,5.3565
2815,-0.6514,-13.5654,1.3412,-141.4957,15.2348,3.8261
2820,-0.5748,-14.2935,1.073,-148.0348,12.5217,2.0174
2825,-0.7664,-15.1365,0.9197,-153.4609,10.2261,0.2087
2830,-0.8814,-15.673,0.6514,-156.8,8.3478,-1.3913
2835,-0.8814,-16.0562,0.4982,-157.287,6.9565,-2.8522
2840,-0.958,-16.2861,0.5365,-154.5043,5.913,-3.9652
2845,-1.1113,-16.4011,0.4598,-148.1739,5.4957,-3.9652
2850,-1.0346,-16.4777,0.4982,-139.4783,5.7043,-3.5478
2855,-1.1113,-16.5161,0.3449,-129.4609,6.0522,-2.4348
2860,-1.073,-16.3628,0.4598,-118.3304,5.7739,-1.2522
2865,-0.9963,-16.631,0.4215,-106.2261,5.287,-0.4174
2870,-1.2263,-16.6693,0.4598,-93.9826,4.5217,0.5565
2875,-1.073,-16.5927,0.2299,-81.1826,3.3391,1.3913
2880,-0.8047,-16.5161,-0.3449,-68.5217,1.8783,2.2261
2885,-0.6131,-16.3245,-0.8047,-56.6261,0.5565,2.5043
2890,-0.6898,-15.9796,-1.2646,-46.4,-0.2783,2.2261
2895,-0.6514,-15.8263,-1.9543,-38.0522,-0.9043,1.9478
2900,-0.7281,-15.3664,-2.3375,-32.2087,-1.2522,1.9478
2905,-0.4982,-15.2132,-2.7591,-27.5478,-1.3913,2.5043
2910,0.1916,-15.2132,-3.1806,-23.3043,-1.5304,3.2
2915,0.7281,-15.0599,-3.2955,-18.7826,-1.6,3.0609
2920,0.9963,-15.0982,-3.3722,-13.913,-1.9478,2.0174
2925,1.3795,-15.0599,-3.6404,-8.8348,-2.2957,0.2087
2930,1.3029,-15.1748,-3.6787,-3.6174,-2.3652,-1.3217
2935,1.073,-15.1748,-3.9087,1.8783,-1.8783,-2.0174
2940,0.8814,-15.1365,-4.062,7.6522,-1.3913,-2.3652
2945,0.6514,-15.2898,-3.947,13.2174,-0.9739,-2.6435
2950,0.4598,-15.3281,-3.7554,18.6435,-0.9739,-2.8522
2955,-0.115,-15.2515,-3.8704,23.6522,-0.9739,-2.8522
2960,-0.7281,-15.1748,-3.9853,27.8957,-1.2522,-2.7826
2965,-1.1879,-15.0599,-3.4488,31.3739,-1.8783,-2.4348
2970,-1.5328,-14.8683,-3.3339,34.9913,-2.713,-1.8087
2975,-1.6861,-14.715,-3.1806,38.887,-3.7565,-1.113
2980,-1.8777,-14.3318,-2.8357,43.8957,-4.2435,-0.6261
2985,-1.9927,-14.0252,-2.8357,49.3217,-4.4522,-0.2087
2990,-1.8777,-13.6804,-2.7591,54.0522,-4.5913,0.2087
2995,-1.8011,-13.1055,-2.7207,58.1565,-4.7304,0.487
