timestamp,accX,accY,accZ,gyroX,gyroY,gyroZ
0,0.4982,-7.6641,5.3265,26.5739,3.6174,-1.8087
5,0.6898,-7.9706,5.2882,24.1391,3.8261,-1.4609
10,0.6898,-8.1239,5.1732,22.2609,4.313,-1.4609
15,0.4982,-8.1622,5.2116,21.287,4.8,-1.8087
20,0.5365,-8.1622,5.3265,21.0087,5.2174,-2.4348
25,0.7664,-8.2389,5.2499,21.0087,5.287,-2.6435
30,0.7281,-8.1239,5.2116,21.0087,5.4261,-2.713
35,0.8047,-8.2005,5.1349,21.0087,5.6348,-2.9217
40,0.6898,-8.0473,5.02,21.4957,5.7739,-2.9913
45,0.6131,-7.9706,5.02,22.0522,5.8435,-2.9913
50,0.5748,-7.8557,4.9816,22.6087,5.4957,-2.9217
55,0.6131,-7.894,4.9816,23.0261,4.9391,-2.6435
60,0.6131,-7.7024,5.0966,23.0261,4.7304,-2.5043
65,0.6131,-7.7407,5.1732,22.6783,4.6609,-2.1565
70,0.6514,-7.7024,5.0966,22.4696,4.8,-1.8783
75,0.7281,-7.6641,5.2499,21.8435,4.4522,-1.6696
80,0.8814,-7.5874,5.1732,20.9391,4.2435,-1.6
85,0.9197,-7.5491,5.1349,19.2696,4.1739,-1.6696
90,0.9197,-7.5108,5.1349,17.2522,4.1739,-1.6
95,0.9963,-7.5108,5.02,14.9565,3.8957,-1.1826
100,1.1113,-7.5874,5.0966,12.6609,3.4783,-0.6957
105,1.1113,-7.7024,5.2116,10.9217,3.3391,-0.2783
110,1.1496,-7.7407,5.5564,9.8087,3.4087,-0.0696
115,1.1113,-7.779,5.4798,9.3217,3.2696,0.0696
120,1.2646,-8.0089,5.5564,9.1826,2.9913,0.0696
125,1.2646,-8.2005,5.3265,9.3913,2.8522,-0.2087
130,1.1879,-8.0473,5.3648,10.2261,2.9217,-0.6957
135,1.2263,-8.3155,5.2882,11.0609,2.8522,-1.2522
140,1.1496,-8.3155,5.3265,12.0348,2.713,-1.8087
145,1.0346,-8.3155,5.2882,12.8696,2.5739,-2.2261
150,0.958,-8.2005,5.2882,14.1217,2.5739,-2.6435
155,1.1113,-8.1239,5.4032,15.1652,2.7826,-2.9217
160,1.0346,-8.0856,5.4415,16.487,2.8522,-3.0609
165,0.9197,-7.8173,5.3648,17.5304,3.1304,-2.9913
170,1.1113,-7.779,5.2499,18.087,3.2696,-2.9217
175,1.2263,-7.7407,5.2499,18.1565,3.5478,-2.5739
180,0.9963,-7.5874,5.4032,17.5304,3.5478,-2.1565
185,1.0346,-7.5108,5.3265,16.7652,3.3391,-1.6696
190,0.9963,-7.5491,5.3265,15.9304,3.1304,-1.3913
195,0.9963,-7.5108,5.3265,15.1652,2.9217,-1.2522
200,0.8814,-7.6641,5.4798,14.5391,2.713,-1.1826
205,0.6514,-7.5491,5.2116,13.913,2.4348,-1.113
210,0.8047,-7.7024,5.2116,13.5652,2.087,-0.9739
215,0.6898,-7.7024,5.3648,13.287,1.8087,-0.9043
220,0.6514,-7.6641,5.3648,13.2174,1.6696,-0.9043
225,0.6514,-7.779,5.4032,13.0783,1.3913,-1.113
230,0.7281,-7.5108,5.3648,12.7304,1.3217,-1.0435
235,0.6514,-7.3958,5.4032,11.8957,1.2522,-0.9739
240,0.7281,-7.5108,5.6331,10.9913,1.0435,-0.8348
245,0.9963,-7.5874,5.4798,10.2261,0.9043,-0.8348
250,0.9197,-7.6257,5.4032,9.7391,0.9043,-0.8348
255,0.9197,-7.6257,5.4798,9.113,0.9043,-1.113
260,0.8047,-7.779,5.3648,8.7652,0.7652,-1.2522
265,0.9197,-7.7407,5.5181,8.6957,0.6261,-1.3217
270,0.7664,-7.9323,5.3648,8.9043,0.4174,-1.3913
275,0.9197,-8.0473,5.4415,9.2522,0.0696,-1.2522
280,0.843,-7.9323,5.5564,9.8087,0.0696,-0.9739
285,0.8814,-7.9323,5.6331,10.3652,0.1391,-0.6261
290,1.0346,-8.0856,5.4798,10.713,0.2087,-0.3478
295,0.8814,-7.9706,5.5181,10.9913,0.3478,-0.2783
300,0.958,-7.894,5.4032,11.0609,0.487,-0.2087
305,1.1113,-7.894,5.5564,10.7826,0.6261,0.0
310,0.9963,-7.7407,5.4798,10.3652,0.7652,-0.0696
315,1.0346,-7.7024,5.3648,9.7391,1.113,-0.2783
320,0.958,-7.7407,5.4798,9.0435,1.1826,-0.4174
325,0.8814,-7.6257,5.2882,8.2087,1.2522,-0.5565
330,0.843,-7.5491,5.5948,7.4435,1.4609,-0.6261
335,0.7664,-7.5108,5.4032,6.6087,1.3913,-0.6957
340,0.7281,-7.5108,5.4415,5.5652,1.2522,-0.6261
345,0.6898,-7.5108,5.3648,4.8,1.0435,-0.4174
350,0.6514,-7.6257,5.4415,4.0348,0.7652,-0.2087
355,0.7664,-7.6257,5.3648,3.687,0.487,0.0696
360,0.7664,-7.6641,5.3265,3.7565,0.2783,0.2087
365,0.7664,-7.779,5.4798,3.9652,0.0,0.487
370,0.8047,-7.779,5.5181,4.3826,-0.3478,0.5565
375,0.8047,-7.779,5.5564,4.8,-0.487,0.9043
380,0.843,-7.9323,5.3265,5.287,-0.5565,0.9043
385,0.958,-7.779,5.4415,5.7739,-0.7652,0.7652
390,1.073,-7.779,5.6714,6.0522,-0.6261,0.7652
395,0.958,-7.7407,5.7097,5.913,-0.5565,0.7652
400,0.958,-7.7024,5.5181,5.6348,-0.4174,0.6957
405,0.958,-7.7407,5.5564,5.287,-0.3478,0.5565
410,0.958,-7.7407,5.5564,4.9391,-0.2087,0.5565
415,0.958,-7.5874,5.4798,4.3826,-0.2087,0.5565
420,0.9197,-7.6257,5.4798,3.8261,-0.2783,0.487
425,0.958,-7.5108,5.5564,3.0609,-0.3478,0.4174
430,0.9963,-7.5874,5.5948,2.2957,-0.2087,0.4174
435,0.958,-7.7407,5.5564,1.7391,-0.2087,0.5565
440,1.073,-7.9323,5.4032,1.5304,-0.2087,0.6957
445,0.958,-7.9706,5.3648,1.8783,-0.2087,0.7652
450,0.9963,-8.0089,5.3265,2.4348,-0.2783,1.0435
455,1.0346,-7.9706,5.3648,3.2,-0.2087,1.113
460,0.8047,-7.894,5.2882,4.0348,0.0696,1.113
465,0.8047,-7.8557,5.1732,4.8696,0.2087,1.113
470,0.9197,-8.0089,5.5564,5.6348,0.1391,1.113
475,0.843,-7.8173,5.4415,6.3304,0.2783,0.9739
480,0.8047,-7.7407,5.3648,6.887,0.5565,0.9739
485,0.6898,-7.779,5.3648,7.3739,1.0435,0.8348
490,0.8047,-7.7407,5.3648,7.6522,1.2522,0.8348
495,0.8814,-7.779,5.4798,7.8609,1.5304,0.7652
500,0.8814,-7.7407,5.4798,7.8609,1.7391,0.7652
505,0.8814,-7.8173,5.5564,7.7913,1.8783,0.8348
510,0.8047,-7.779,5.3648,7.4435,2.087,0.8348
515,0.8047,-7.7407,5.7097,7.3043,2.0174,0.9043
520,0.9963,-7.8557,5.5181,7.0957,2.0174,0.9739
525,1.0346,-7.779,5.5564,6.887,2.087,0.9739
530,0.9197,-7.8173,5.5564,6.7478,2.0174,0.8348
535,0.9963,-7.8557,5.5564,6.7478,1.9478,0.7652
540,0.9197,-7.7407,5.5181,6.8174,1.9478,0.6261
545,0.9963,-7.779,5.4798,7.0261,1.9478,0.5565
550,1.1879,-7.894,5.5181,7.0957,1.8783,0.487
555,0.8814,-7.7407,5.4798,7.3043,1.8783,0.2783
560,0.8814,-7.7407,5.5181,7.3043,1.8783,0.0696
565,0.8814,-7.8173,5.4798,7.2348,1.8087,-0.0696
570,0.958,-7.8557,5.6714,7.1652,1.6696,-0.2087
575,0.958,-7.6257,5.4798,7.0957,1.6696,-0.2783
580,0.9197,-7.6641,5.4798,7.2348,1.7391,-0.2087
585,0.9197,-7.779,5.3648,7.1652,2.0174,-0.2783
590,0.843,-7.5491,5.4415,6.9565,2.1565,-0.4174
595,0.8814,-7.5874,5.4032,6.4,2.1565,-0.4174
600,0.8814,-7.5874,5.4032,5.7043,2.1565,-0.6261
605,0.8814,-7.5491,5.3648,4.8696,1.8783,-1.113
610,0.7281,-7.6257,5.5948,4.1739,1.4609,-1.4609
615,1.1113,-7.6257,5.4798,3.4087,1.2522,-1.6696
620,0.9197,-7.6257,5.4032,2.7826,0.9739,-1.8783
625,1.0346,-7.6641,5.5948,2.2261,0.8348,-1.9478
630,1.073,-7.8173,5.4798,1.8087,0.8348,-1.7391
635,0.9963,-7.779,5.6714,1.6696,0.9739,-1.6
640,0.8047,-7.7024,5.5948,1.6696,1.2522,-1.3217
645,0.8814,-7.7407,5.5948,2.0174,1.3913,-1.113
650,0.9197,-7.7407,5.4798,2.2957,1.3913,-0.9739
655,0.843,-7.6641,5.5564,2.713,1.3913,-0.9043
660,0.8047,-7.5108,5.6331,3.2,1.3913,-0.6957
665,0.8047,-7.7407,5.6714,3.4087,1.1826,-0.487
670,0.843,-7.779,5.4415,3.5478,1.1826,-0.4174
675,0.843,-7.7407,5.4415,3.687,0.9739,-0.2087
680,0.9197,-7.7407,5.5948,3.5478,1.2522,-0.2087
685,0.9963,-7.9323,5.4415,3.3391,1.3913,-0.2087
690,0.958,-7.9323,5.5948,3.0609,1.6,-0.2087
695,0.8814,-8.0089,5.4798,2.7826,1.8783,-0.2087
700,0.8047,-7.8173,5.5948,2.713,1.8087,-0.6261
705,0.8814,-7.9323,5.5948,2.7826,1.6696,-0.8348
710,0.843,-7.8557,5.6331,2.8522,1.3913,-1.1826
715,0.8047,-7.8557,5.5564,2.6435,1.2522,-1.3217
720,0.8047,-7.8173,5.3648,2.3652,1.3217,-1.4609
725,0.958,-7.9323,5.6714,2.2261,1.3913,-1.6
730,0.7664,-7.8557,5.5948,2.2957,1.3913,-1.5304
735,0.9197,-7.8173,5.4032,2.5739,1.5304,-1.3217
740,0.8047,-7.8173,5.5564,2.9217,1.6,-1.113
745,0.8047,-7.6641,5.5564,3.4087,1.7391,-0.9739
750,0.8047,-7.894,5.6331,3.8261,1.6696,-0.7652
755,0.7664,-7.7024,5.4798,4.2435,1.6696,-0.6261
760,0.7664,-7.7024,5.4798,4.5217,1.7391,-0.487
765,0.843,-7.7407,5.5948,4.8,1.7391,-0.487
770,0.958,-7.7024,5.4798,4.8696,1.7391,-0.2783
775,0.8814,-7.7024,5.5948,5.0087,1.7391,-0.0696
780,0.8047,-7.6257,5.4798,4.9391,1.8087,0.0
785,0.8047,-7.6257,5.5948,4.7304,1.9478,0.0
790,0.8047,-7.6641,5.4032,4.4522,1.9478,0.0696
795,0.7664,-7.6641,5.5181,4.2435,2.1565,0.2783
800,0.8814,-7.7407,5.4415,4.1043,2.1565,0.487
805,1.0346,-7.6641,5.4798,4.0348,2.0174,0.5565
810,0.843,-7.6641,5.3648,3.9652,1.9478,0.487
815,0.843,-7.779,5.4032,4.1043,1.8783,0.487
820,0.7281,-7.7407,5.3648,4.3826,1.8087,0.4174
825,0.8814,-7.8173,5.5564,4.6609,1.6696,0.3478
830,0.7664,-7.7407,5.3265,4.7304,1.4609,0.4174
835,0.8047,-7.7407,5.4032,4.9391,1.4609,0.3478
840,0.8047,-7.8173,5.4415,5.0783,1.3913,0.2783
845,0.7281,-7.7407,5.4415,5.0087,1.2522,0.2783
850,0.7664,-7.779,5.4032,5.0783,0.9739,0.3478
855,0.8047,-7.7407,5.5564,5.2174,0.7652,0.2087
860,0.7281,-7.779,5.5948,5.4261,0.6957,0.0
865,0.8047,-7.9706,5.6331,5.6348,0.5565,-0.0696
870,0.9197,-7.8557,5.7097,6.0522,0.5565,-0.2087
875,0.7281,-7.779,5.4798,6.6783,0.4174,-0.2087
880,0.843,-7.8173,5.4798,7.2348,0.3478,-0.0696
885,0.7664,-7.7407,5.3265,7.7217,0.2087,0.0
890,0.843,-7.7407,5.1732,7.8609,0.0696,-0.0696
895,0.843,-7.779,5.3648,7.8609,-0.0696,0.0
900,0.7664,-7.6641,5.4032,7.7217,-0.2783,-0.0696
905,0.958,-7.8557,5.3648,7.513,-0.2087,0.0
910,0.958,-7.894,5.4798,7.3043,-0.1391,-0.0696
915,1.0346,-7.894,5.4032,7.2348,0.0696,-0.1391
920,1.0346,-7.894,5.5564,7.1652,0.2087,-0.5565
925,0.9963,-7.8557,5.4798,7.0957,0.0696,-0.9739
930,1.0346,-7.9323,5.5948,7.0957,0.0696,-1.5304
935,0.8814,-7.8173,5.5181,7.0261,-0.0696,-2.0174
940,1.073,-7.6257,5.5948,7.0261,-0.3478,-2.3652
945,0.958,-7.7024,5.5564,7.0261,-0.487,-2.6435
950,0.8047,-7.7407,5.5564,6.8174,-0.5565,-2.713
955,0.8047,-7.8173,5.3648,6.6087,-0.6261,-2.6435
960,0.8814,-7.8173,5.4415,6.1217,-0.7652,-2.6435
965,0.7281,-7.6641,5.4798,5.7739,-0.8348,-2.713
970,0.958,-7.8557,5.4798,5.4957,-0.9043,-2.5739
975,0.958,-7.8557,5.5564,5.3565,-0.8348,-2.5739
980,0.843,-7.8173,5.5564,5.287,-0.8348,-2.5043
985,1.073,-7.779,5.5181,5.4261,-0.7652,-2.2957
990,0.9197,-7.7407,5.7097,5.7043,-0.6957,-2.087
995,0.8814,-7.6257,5.5181,6.0522,-0.5565,-1.9478
1000,0.843,-7.6641,5.5181,6.1913,-0.487,-1.7391
1005,0.958,-7.6641,5.6331,6.0522,-0.3478,-1.3913
1010,0.843,-7.5874,5.6714,5.8435,-0.2087,-1.2522
1015,0.9963,-7.779,5.6714,5.6348,0.0,-0.9739
1020,0.958,-7.6641,5.7864,5.4957,0.0696,-0.6261
1025,0.9197,-7.7407,5.6331,5.3565,0.2087,-0.5565
1030,0.958,-7.779,5.7864,5.3565,0.4174,-0.4174
1035,0.9197,-7.5108,5.5948,5.5652,0.4174,-0.2783
1040,0.9197,-7.5874,5.748,5.4957,0.2783,-0.3478
1045,0.9197,-7.5108,4.9816,5.4261,0.2783,-0.487
1050,0.843,-7.6257,5.5948,5.2174,0.2783,-0.487
1055,0.9963,-7.5108,5.5564,4.8696,0.487,-0.4174
1060,0.8814,-7.5491,5.7097,4.3826,0.6261,-0.487
1065,0.8814,-7.5874,5.748,3.8261,0.6261,-0.5565
1070,0.958,-7.6257,5.4798,3.2696,0.5565,-0.487
1075,1.0346,-7.6257,5.7097,2.7826,0.3478,-0.5565
1080,0.8814,-7.5491,5.6331,2.4348,0.4174,-0.6261
1085,0.9197,-7.5874,5.5948,2.3652,0.487,-0.8348
1090,0.958,-7.6257,5.6331,2.2957,0.487,-1.0435
1095,0.8814,-7.6641,5.7097,2.2261,0.4174,-1.113
1100,0.8814,-7.6641,5.6714,2.2957,0.4174,-1.3217
1105,0.6898,-7.4725,5.5948,2.3652,0.3478,-1.2522
1110,0.843,-7.6257,5.7097,2.2957,0.3478,-1.1826
1115,0.9197,-7.6641,5.5564,2.1565,0.2783,-1.113
1120,0.8814,-7.5491,5.5948,2.2261,0.4174,-1.0435
1125,0.9963,-7.6641,5.4415,2.1565,0.487,-0.9043
1130,0.8814,-7.6641,5.6714,2.2261,0.6261,-0.7652
1135,0.9197,-7.7407,5.5181,2.2261,0.6957,-0.6957
1140,0.8814,-7.6641,5.4032,2.3652,0.6957,-0.6261
1145,0.958,-7.779,5.7097,2.3652,0.5565,-0.487
1150,1.0346,-7.6641,5.4415,2.2261,0.5565,-0.4174
1155,0.9197,-7.779,5.6331,2.1565,0.5565,-0.3478
1160,0.9963,-7.7024,5.4032,2.087,0.6261,-0.2783
1165,0.9963,-7.8557,5.4798,2.0174,0.5565,-0.1391
1170,0.9963,-7.779,5.6331,2.0174,0.7652,0.0
1175,0.958,-7.7024,5.6331,1.8087,0.7652,0.0
1180,0.9197,-7.6641,5.6331,1.8087,0.7652,0.0
1185,0.9197,-7.8173,5.6331,2.0174,0.8348,0.0
1190,0.958,-7.6641,5.4798,2.2957,0.8348,-0.0696
1195,0.8814,-7.7407,5.6714,2.713,1.0435,-0.2087
1200,0.958,-7.6641,5.6331,3.1304,1.0435,-0.2087
1205,0.8047,-7.7407,5.6331,3.687,0.9739,-0.4174
1210,0.8814,-7.5874,5.5948,4.1043,0.9043,-0.5565
1215,0.8047,-7.6641,5.5564,4.4522,0.7652,-0.8348
1220,0.8814,-7.5491,5.5948,4.5913,0.6261,-1.1826
1225,0.8047,-7.5108,5.6331,4.5217,0.5565,-1.4609
1230,0.7664,-7.7407,5.4415,4.5217,0.2783,-1.6696
1235,0.843,-7.6257,5.5948,4.3826,0.1391,-1.6
1240,0.7664,-7.5874,5.4798,4.3826,0.0696,-1.6696
1245,0.7664,-7.6257,5.4032,4.2435,0.2783,-1.5304
1250,0.9197,-7.7024,5.5948,4.313,0.487,-1.6
1255,0.9197,-7.779,5.5564,4.2435,0.6261,-1.6
1260,0.9197,-7.7407,5.5181,4.4522,0.8348,-1.4609
1265,0.7281,-7.8557,5.6714,4.6609,0.9043,-1.4609
1270,0.843,-7.8557,5.5564,4.8696,0.8348,-1.4609
1275,0.9197,-7.7407,5.5564,5.0087,0.7652,-1.4609
1280,0.9963,-7.6641,5.6714,5.0783,0.6957,-1.6
1285,0.8814,-7.6641,5.748,5.0087,0.6261,-1.5304
1290,0.9963,-7.6641,5.5948,4.9391,0.7652,-1.7391
1295,0.9197,-7.7407,5.7097,4.6609,0.8348,-1.7391
1300,0.8047,-7.6641,5.7097,4.3826,0.7652,-1.8783
1305,0.6898,-7.7024,5.7864,4.1739,0.6957,-1.8087
1310,0.9197,-7.6641,5.5181,4.2435,0.6261,-1.6
1315,0.843,-7.779,5.6331,4.2435,0.487,-1.5304
1320,0.9197,-7.7024,5.5181,4.1043,0.6261,-1.2522
1325,0.9197,-7.5874,5.5564,3.8261,0.8348,-1.0435
1330,0.843,-7.6257,5.5181,3.5478,1.1826,-0.7652
1335,0.843,-7.6641,5.4798,3.1304,1.2522,-0.7652
1340,0.9197,-7.779,5.5564,2.9217,0.9043,-0.487
1345,0.8814,-7.779,5.3265,2.7826,0.6261,-0.487
1350,0.843,-7.7024,5.6331,2.7826,0.3478,-0.487
1355,0.9197,-7.8173,5.6714,2.9217,0.3478,-0.6261
1360,0.8814,-7.894,5.748,3.2,0.2783,-0.5565
1365,1.073,-7.8173,5.5948,3.687,0.2783,-0.6261
1370,1.1113,-7.7024,5.5181,4.1739,0.3478,-0.5565
1375,0.9963,-7.5874,5.5564,4.3826,0.487,-0.6957
1380,1.0346,-7.6641,5.5564,4.5913,0.5565,-0.8348
1385,0.9963,-7.7024,5.4032,4.7304,0.5565,-0.7652
1390,0.8814,-7.5108,5.4798,4.4522,0.5565,-0.7652
1395,0.9197,-7.5874,5.7097,4.0348,0.5565,-0.6957
1400,1.073,-7.6641,5.4415,3.2696,0.487,-0.5565
1405,0.9963,-7.6257,5.5948,2.5739,0.2783,-0.5565
1410,0.9197,-7.6257,5.6331,1.9478,0.2087,-0.487
1415,0.958,-7.7024,5.5181,1.5304,0.2783,-0.5565
1420,0.8814,-7.5491,5.5948,1.1826,0.2783,-0.5565
1425,0.8814,-7.5491,5.5948,0.9043,0.3478,-0.487
1430,1.0346,-7.8557,5.4032,0.9739,0.4174,-0.3478
1435,0.958,-7.8173,5.5564,0.9739,0.487,-0.2783
1440,0.9963,-7.7407,5.4032,1.3217,0.6957,-0.2087
1445,0.9197,-7.779,5.5948,1.3913,0.9739,-0.1391
1450,0.958,-7.894,5.5564,1.4609,1.0435,-0.2087
1455,0.8814,-7.8173,5.5181,1.4609,1.0435,-0.2087
1460,0.958,-7.779,5.4415,1.5304,0.9739,-0.2087
1465,0.843,-7.8173,5.5564,1.6,0.9043,-0.2783
1470,0.843,-7.8173,5.6331,1.6,0.7652,-0.2783
1475,0.958,-7.7407,5.6331,1.7391,0.7652,-0.2783
1480,0.8814,-7.8557,5.4798,1.7391,0.8348,-0.3478
1485,0.8047,-7.7024,5.7097,1.9478,0.9043,-0.4174
1490,0.7664,-7.7024,5.5181,2.1565,0.9739,-0.2783
1495,0.8047,-7.7024,5.6714,2.2261,0.9739,-0.2783
1500,0.8814,-7.6641,5.4798,2.3652,1.0435,-0.3478
1505,0.9963,-7.6257,5.4798,2.5043,0.9739,-0.3478
1510,0.958,-7.6641,5.5564,2.5739,0.8348,-0.4174
1515,0.9963,-7.5874,5.5181,2.5739,0.6957,-0.5565
1520,1.0346,-7.5874,5.3648,2.4348,0.7652,-0.6261
1525,0.9197,-7.6641,5.5181,2.2261,0.9043,-0.6957
1530,0.9963,-7.779,5.6331,1.9478,0.9043,-0.7652
1535,0.958,-7.7024,5.6714,1.7391,0.8348,-0.7652
1540,0.958,-7.8173,5.6331,1.4609,0.8348,-0.8348
1545,0.843,-7.779,5.6714,1.5304,0.8348,-1.0435
1550,0.958,-7.779,5.5564,1.9478,0.6957,-1.3913
1555,0.958,-7.7407,5.5181,2.4348,0.7652,-1.6696
1560,0.9963,-7.8173,5.8247,2.713,0.8348,-1.6696
1565,0.958,-7.7407,5.748,2.8522,0.8348,-1.7391
1570,1.073,-7.8557,5.6331,3.0609,1.113,-1.8783
1575,0.8814,-7.6641,5.5948,3.4783,1.1826,-1.8087
1580,0.9963,-7.8173,5.5564,4.1043,1.3913,-2.0174
1585,0.9963,-7.8557,5.5181,4.5913,1.5304,-2.0174
1590,0.9197,-7.7407,5.5564,5.1478,1.7391,-2.087
1595,0.958,-7.8173,5.3648,5.5652,1.7391,-2.087
1600,0.958,-7.7407,5.4032,5.9826,1.9478,-2.0174
1605,0.9197,-7.6641,5.4032,6.3304,2.1565,-2.0174
1610,0.843,-7.6641,5.4798,6.4,2.3652,-1.9478
1615,0.9197,-7.7024,5.6331,6.2609,2.5043,-1.8087
1620,0.6898,-7.5874,5.5181,5.9826,2.5739,-1.7391
1625,0.8047,-7.5874,5.5564,5.6348,2.5043,-1.8087
1630,0.6898,-7.5491,5.5181,5.1478,2.3652,-1.8087
1635,0.6898,-7.6641,5.5181,4.6609,2.3652,-1.8087
1640,0.7664,-7.5874,5.5948,4.2435,2.1565,-1.8087
1645,0.6514,-7.6641,5.5564,4.0348,2.087,-1.8783
1650,0.8047,-7.7024,5.4798,3.9652,2.0174,-1.7391
1655,0.6514,-7.8557,5.5181,4.0348,1.9478,-1.6696
1660,0.7281,-7.7407,5.5181,4.0348,1.8087,-1.6
1665,0.7664,-7.7024,5.7097,3.9652,1.8087,-1.6
1670,0.7664,-7.6257,5.5948,3.8957,1.8087,-1.5304
1675,0.843,-7.6641,5.748,3.7565,1.8783,-1.3217
1680,0.843,-7.6257,5.6714,3.7565,1.9478,-1.2522
1685,0.843,-7.6257,5.5181,3.6174,1.8783,-1.113
1690,0.958,-7.6257,5.5564,3.6174,1.8783,-1.1826
1695,0.8814,-7.7024,5.5564,3.5478,1.9478,-1.1826
1700,0.9963,-7.7024,5.5181,3.4783,1.8087,-1.113
1705,0.958,-7.5491,5.5564,3.2696,1.8783,-1.0435
1710,0.958,-7.6641,5.5181,3.1304,1.8087,-1.0435
1715,0.8814,-7.6257,5.5564,2.9913,1.8087,-0.9043
1720,0.958,-7.6257,5.6331,2.713,1.6696,-1.113
1725,0.9197,-7.6257,5.6714,2.5043,1.3913,-1.1826
1730,0.9963,-7.779,5.7097,2.2957,1.1826,-1.1826
1735,0.958,-7.7024,5.748,1.9478,1.0435,-1.1826
1740,0.958,-7.779,5.5181,1.6696,1.0435,-1.0435
1745,0.9197,-7.8173,5.7864,1.4609,1.0435,-0.9739
1750,0.9963,-7.8173,5.5564,1.4609,1.1826,-0.9739
1755,0.958,-7.779,5.5181,1.5304,1.0435,-0.7652
1760,0.9197,-7.779,5.4798,1.9478,1.113,-0.6957
1765,0.958,-7.8557,5.5948,2.4348,1.1826,-0.6957
1770,0.9197,-7.779,5.5181,2.8522,1.1826,-0.5565
1775,0.9197,-7.6641,5.3648,3.0609,1.2522,-0.5565
1780,0.7664,-7.7407,5.2116,3.1304,1.0435,-0.6261
1785,0.843,-7.7024,5.3648,3.2,0.6957,-0.6261
1790,0.9963,-7.6641,5.5948,3.2,0.6261,-0.6957
1795,0.9197,-7.6257,5.5948,3.3391,0.6261,-0.6261
1800,0.8047,-7.6641,5.4798,3.4783,0.5565,-0.487
1805,0.843,-7.7024,5.5948,3.5478,0.6957,-0.487
1810,0.7281,-7.6641,5.7097,3.6174,0.9043,-0.3478
1815,0.7664,-7.6257,5.6331,3.8261,1.0435,-0.5565
1820,0.7664,-7.7024,5.6714,4.0348,0.9739,-0.6261
1825,0.9197,-7.7024,5.6331,3.8261,1.0435,-0.6957
1830,0.9963,-7.6641,5.5948,3.5478,1.0435,-0.8348
1835,0.958,-7.5491,5.4798,3.0609,1.0435,-0.6261
1840,0.843,-7.7407,5.748,2.6435,0.9043,-0.6957
1845,0.8814,-7.7407,5.5948,2.3652,0.8348,-0.6957
1850,0.8814,-7.7407,5.5948,2.087,0.7652,-0.7652
1855,0.8047,-7.8557,5.6331,2.1565,0.6957,-0.5565
1860,0.8814,-7.9323,5.5181,2.5043,0.6957,-0.487
1865,0.9963,-7.8173,5.5948,2.6435,0.7652,-0.2783
1870,1.0346,-7.8173,5.5948,3.0609,0.8348,-0.4174
1875,0.9963,-7.779,5.4415,3.3391,0.6957,-0.4174
1880,0.8047,-7.5874,5.4415,3.4783,0.6261,-0.4174
1885,0.843,-7.6257,5.4032,3.5478,0.4174,-0.4174
1890,0.8814,-7.894,5.5564,3.5478,0.3478,-0.2783
1895,1.0346,-7.779,5.5181,3.4783,0.2783,-0.4174
1900,0.843,-7.7407,5.3265,3.5478,0.2783,-0.2087
1905,0.9197,-7.9323,5.5564,3.5478,0.2783,-0.1391
1910,0.958,-7.8173,5.5564,3.7565,0.2783,-0.2087
1915,1.1496,-7.6641,5.5181,3.9652,0.2783,-0.2087
1920,0.958,-7.6641,5.4415,4.313,0.5565,-0.3478
1925,0.843,-7.6641,5.5948,4.3826,0.6261,-0.3478
1930,0.958,-7.7024,5.3648,4.3826,0.7652,-0.4174
1935,0.8047,-7.6641,5.5564,4.4522,0.6261,-0.3478
1940,0.843,-7.7024,5.4798,4.3826,0.6957,-0.3478
1945,0.843,-7.6257,5.4798,4.313,0.6957,-0.3478
1950,0.8047,-7.6641,5.4798,4.2435,0.7652,-0.2783
1955,0.958,-7.7407,5.5564,4.1739,0.7652,-0.1391
1960,0.843,-7.6641,5.3648,4.1043,0.7652,0.0
1965,0.8047,-7.7407,5.4032,3.9652,0.8348,-0.1391
1970,0.8814,-7.7407,5.3648,3.9652,0.9043,-0.1391
1975,0.7281,-7.5491,5.4798,3.8261,0.9043,-0.2783
1980,0.9197,-7.779,5.4798,3.7565,0.9739,-0.3478
1985,0.843,-7.6641,5.3648,3.7565,0.8348,-0.2783
1990,0.9197,-7.779,5.4798,3.8261,0.6957,-0.3478
1995,0.7664,-7.779,5.6714,3.8957,0.6957,-0.487
2000,0.843,-7.7024,5.5948,3.8957,0.7652,-0.487
2005,0.7281,-7.6257,5.5564,4.0348,0.7652,-0.487
2010,0.8814,-7.894,5.4798,4.0348,0.6957,-0.487
2015,0.8047,-7.779,5.5948,4.1739,0.487,-0.487
2020,0.843,-7.779,5.5181,4.5217,0.6261,-0.6261
2025,0.958,-7.7407,5.5948,4.5913,0.6957,-0.6957
2030,0.9197,-7.6257,5.5181,4.7304,0.7652,-0.7652
2035,0.8814,-7.6641,5.8247,4.8696,0.7652,-0.7652
2040,0.843,-7.7407,5.6714,4.9391,0.7652,-0.6957
2045,0.843,-7.6641,5.5948,5.0783,0.8348,-0.7652
2050,0.8814,-7.6641,5.5948,5.2174,0.9043,-0.7652
2055,0.9197,-7.5874,5.4032,5.2174,0.8348,-0.8348
2060,0.958,-7.6641,5.748,5.1478,0.9043,-0.8348
2065,0.8814,-7.7407,5.5948,5.0783,0.8348,-0.9043
2070,0.9197,-7.5874,5.5948,4.8696,0.8348,-0.9043
2075,0.843,-7.6641,5.5948,4.6609,0.7652,-0.9043
2080,0.9197,-7.8173,5.5564,4.4522,0.7652,-0.8348
2085,0.7664,-7.5874,5.5948,4.1739,0.7652,-0.7652
2090,0.843,-7.6641,5.4798,4.0348,0.8348,-0.6261
2095,0.8814,-7.7407,5.5564,3.9652,0.9043,-0.6261
2100,0.8814,-7.7024,5.5564,3.687,1.0435,-0.6261
2105,0.843,-7.7407,5.4415,3.687,0.9739,-0.487
2110,0.8047,-7.7407,5.5948,3.7565,1.0435,-0.5565
2115,0.843,-7.7024,5.5564,3.8261,1.0435,-0.5565
2120,0.843,-7.7024,5.5564,3.9652,1.0435,-0.6957
2125,0.843,-7.779,5.4032,4.0348,1.0435,-0.7652
2130,0.8814,-7.6641,5.5181,4.0348,0.9043,-0.8348
2135,0.843,-7.7024,5.5181,3.9652,0.8348,-0.9739
2140,0.9197,-7.6641,5.5564,4.0348,0.7652,-0.9043
2145,0.843,-7.6641,5.5948,4.1043,0.7652,-0.9739
2150,0.9197,-7.8557,5.4415,4.1043,0.6957,-1.0435
2155,0.9963,-7.7407,5.6714,4.2435,0.6957,-0.9043
2160,0.958,-7.6257,5.4798,4.3826,0.6957,-1.0435
2165,0.9963,-7.7024,5.5181,4.4522,0.9043,-0.9043
2170,0.9963,-7.6641,5.5564,4.4522,1.0435,-0.9043
2175,0.8047,-7.5491,5.6331,4.313,1.0435,-0.7652
2180,0.958,-7.7024,5.748,4.1739,0.9739,-0.7652
2185,1.0346,-7.7407,5.5948,3.9652,0.9043,-0.6261
2190,0.958,-7.6257,5.5564,3.8957,0.7652,-0.6957
2195,0.843,-7.6641,5.6331,3.687,0.7652,-0.7652
2200,0.8047,-7.6641,5.8247,3.5478,0.6957,-0.7652
2205,0.843,-7.6641,5.748,3.5478,0.7652,-0.8348
2210,0.9197,-7.779,5.5948,3.7565,0.7652,-0.7652
2215,0.7664,-7.7407,5.5181,4.1043,0.6957,-0.8348
2220,0.843,-7.8557,5.5181,4.2435,0.6957,-0.9043
2225,0.958,-7.779,5.5181,4.313,0.6957,-0.8348
2230,0.6898,-7.7024,5.4415,4.2435,0.6957,-0.9043
2235,0.9197,-7.7024,5.4798,4.2435,0.7652,-0.8348
2240,0.9197,-7.779,5.4798,4.2435,0.8348,-0.8348
2245,0.8047,-7.779,5.4798,4.4522,0.9043,-0.6957
2250,0.7664,-7.779,5.5564,4.5217,0.8348,-0.8348
2255,0.8047,-7.7407,5.4798,4.8,0.8348,-0.8348
2260,0.843,-7.7407,5.6714,5.287,0.7652,-0.7652
2265,0.8047,-7.7407,5.5948,5.7043,0.9043,-0.8348
2270,0.958,-7.7024,5.6714,5.9826,0.9739,-0.8348
2275,0.7281,-7.6257,5.7097,6.1913,0.8348,-0.8348
2280,0.9197,-7.5874,5.6331,6.2609,0.9739,-0.8348
2285,0.843,-7.5874,5.5564,6.1217,0.9739,-0.9739
2290,0.958,-7.6257,5.5564,5.913,0.7652,-0.9043
2295,0.8047,-7.5874,5.4032,5.5652,0.6957,-0.9043
2300,0.8814,-7.5874,5.8247,5.2174,0.7652,-0.7652
2305,1.0346,-7.7024,5.5948,4.8696,0.8348,-0.6957
2310,0.958,-7.7024,5.5181,4.5913,0.9043,-0.6957
2315,0.9197,-7.6641,5.5948,4.6609,0.9043,-0.8348
2320,0.9963,-7.7024,5.5948,4.5217,0.8348,-0.6957
2325,0.9197,-7.7407,5.5564,4.313,0.6261,-0.6261
2330,0.843,-7.7407,5.5948,4.2435,0.5565,-0.4174
2335,0.958,-7.5874,5.6714,4.1043,0.5565,-0.4174
2340,0.9963,-7.779,5.7097,4.0348,0.5565,-0.4174
2345,0.958,-7.7024,5.4798,3.8957,0.487,-0.4174
2350,1.0346,-7.5874,5.4415,3.8261,0.5565,-0.6261
2355,0.9963,-7.5491,5.5564,3.8957,0.5565,-0.5565
2360,0.958,-7.7407,5.4415,3.8957,0.5565,-0.6261
2365,0.8814,-7.7024,5.6331,3.9652,0.6261,-0.6261
2370,0.958,-7.6641,5.4415,4.0348,0.5565,-0.5565
2375,0.9197,-7.6641,5.5948,4.1043,0.6261,-0.6261
2380,1.0346,-7.5874,5.7097,3.9652,0.6957,-0.5565
2385,0.8047,-7.6641,5.5564,3.7565,0.7652,-0.5565
2390,0.958,-7.7024,5.6331,3.7565,0.7652,-0.5565
2395,0.8814,-7.7407,5.6331,3.5478,0.8348,-0.5565
2400,0.843,-7.7024,5.6331,3.3391,0.9739,-0.487
2405,0.8047,-7.5874,5.6714,3.1304,0.9043,-0.6261
2410,0.843,-7.779,5.5564,2.9913,0.8348,-0.6261
2415,0.9197,-7.5491,5.5564,3.0609,0.6957,-0.7652
2420,0.843,-7.7024,5.748,2.9913,0.7652,-0.6957
2425,0.9197,-7.7407,5.4798,3.1304,0.6957,-0.5565
2430,0.958,-7.779,5.4415,3.1304,0.7652,-0.487
2435,0.843,-7.779,5.4798,3.2696,0.8348,-0.487
2440,0.958,-7.7407,5.6331,3.4087,0.9043,-0.487
2445,1.073,-7.779,5.5564,3.5478,0.9739,-0.6957
2450,0.8814,-7.779,5.5564,3.7565,0.9739,-0.6261
2455,0.8814,-7.6257,5.6331,3.8957,0.9043,-0.7652
2460,0.843,-7.7024,5.5181,3.9652,0.9043,-0.7652
2465,0.958,-7.5874,5.6331,3.8957,0.9739,-0.6957
2470,0.843,-7.7024,5.6331,3.8261,0.9739,-0.6957
2475,0.8047,-7.5874,5.5564,3.7565,1.1826,-0.6957
2480,0.843,-7.7407,5.5564,3.7565,1.113,-0.7652
2485,0.843,-7.6257,5.7097,3.5478,1.1826,-0.7652
2490,0.9197,-7.6641,5.5948,3.4783,1.1826,-0.6957
2495,0.9197,-7.7024,5.4415,3.4783,1.113,-0.6261
2500,0.9197,-7.5874,5.5564,3.4783,1.0435,-0.6957
2505,0.843,-7.7024,5.5181,3.3391,0.9043,-0.6261
2510,0.9197,-7.7407,5.6331,3.2,0.9739,-0.6261
2515,0.843,-7.779,5.7097,3.0609,0.9739,-0.6957
2520,0.8814,-7.7024,5.4032,3.2,1.0435,-0.6261
2525,0.8814,-7.6641,5.7097,3.2696,1.0435,-0.6957
2530,0.958,-7.5874,5.5564,3.2696,1.113,-0.7652
2535,0.8047,-7.7024,5.5948,3.2,1.2522,-0.7652
2540,0.843,-7.779,5.5564,3.1304,1.113,-0.7652
2545,0.843,-7.6257,5.5181,3.0609,1.1826,-0.9043
2550,0.8814,-7.6641,5.5948,3.0609,1.1826,-0.7652
2555,0.7664,-7.7407,5.5181,3.0609,1.1826,-0.8348
2560,0.843,-7.7024,5.5948,3.0609,1.2522,-0.8348
2565,0.843,-7.7024,5.7097,3.0609,1.3217,-0.9739
2570,0.5748,-7.9323,5.6714,3.1304,1.3913,-0.9739
2575,0.9197,-7.7407,5.5564,2.9913,1.3913,-0.9043
2580,0.9197,-7.5491,5.6331,2.713,1.3913,-0.9739
2585,0.9197,-7.6257,5.5181,2.4348,1.3217,-1.113
2590,0.843,-7.5874,5.7864,1.9478,1.2522,-1.0435
2595,0.8047,-7.6641,5.5948,1.6696,0.9739,-0.9739
2600,0.9197,-7.6641,5.5564,1.3913,0.8348,-0.9739
2605,0.843,-7.6257,5.5564,1.0435,0.6957,-0.9739
2610,0.8047,-7.4725,5.6331,0.5565,0.8348,-0.9043
2615,0.9197,-7.3575,5.6331,-0.6261,0.9043,-0.9043
2620,0.843,-7.3958,5.9396,-2.4348,0.7652,-0.8348
2625,0.958,-7.1659,6.0546,-5.0783,0.2783,-0.5565
2630,0.9197,-7.0509,5.978,-8.5565,-0.6261,-0.2783
2635,1.073,-7.2425,6.0929,-12.8696,-1.6696,0.0696
2640,0.958,-7.4725,5.978,-17.113,-2.5043,0.0696
2645,0.8047,-7.6257,5.8247,-19.8957,-2.7826,-0.1391
2650,0.8814,-7.9706,5.7097,-20.7304,-2.5739,-0.2783
2655,0.9197,-8.0089,5.6331,-20.2435,-2.4348,-0.6261
2660,0.9963,-8.0473,5.7097,-18.6435,-2.3652,-0.8348
2665,0.9197,-8.0473,5.1349,-16.9043,-2.5739,-0.9739
2670,0.9197,-8.0089,5.1349,-15.5826,-2.6435,-1.2522
2675,0.958,-8.0856,4.9433,-14.4,-2.3652,-1.5304
2680,0.9197,-8.1239,4.8667,-12.6609,-1.8087,-1.8783
2685,0.8814,-7.894,4.8667,-10.7826,-1.3217,-2.0174
2690,0.8814,-7.8173,5.1349,-9.6696,-1.0435,-2.087
2695,0.843,-7.8557,5.1732,-9.3217,-1.3217,-2.0174
2700,0.8047,-7.8557,5.2116,-9.6,-1.8087,-1.9478
2705,0.6514,-7.8173,5.4798,-10.5043,-2.4348,-1.7391
2710,0.8047,-7.779,5.4798,-11.6174,-2.8522,-1.7391
2715,0.843,-7.6641,5.5948,-12.7304,-3.0609,-1.6
2720,0.7281,-7.7024,5.748,-13.8435,-2.9217,-1.5304
2725,0.8047,-7.7407,5.7097,-14.9565,-2.7826,-1.3217
2730,0.9197,-7.8173,5.5948,-16.3478,-2.3652,-1.113
2735,0.7281,-7.779,5.4798,-17.3217,-1.6696,-0.8348
2740,0.843,-7.894,5.1732,-17.6,-0.7652,-0.6261
2745,0.7664,-7.8557,5.1732,-17.3913,-0.1391,-0.487
2750,0.8814,-8.0089,5.0966,-16.9043,0.2783,-0.4174
2755,0.9197,-7.7024,5.0966,-16.7652,0.2783,-0.2087
2760,1.1113,-7.7407,5.2499,-16.9739,0.2087,0.0
2765,1.1496,-7.8173,5.1732,-17.8087,-0.1391,0.4174
2770,1.2263,-7.7407,5.2116,-18.9217,-0.4174,0.4174
2775,1.1113,-7.779,4.9433,-20.0348,-0.6261,0.5565
2780,1.1879,-7.8557,4.905,-20.5913,-0.7652,0.6957
2785,1.1113,-7.8557,4.7134,-20.7304,-0.6957,0.8348
2790,1.073,-7.779,4.79,-20.8,-0.6261,0.9043
2795,1.0346,-7.8173,4.8284,-21.0087,-0.6261,0.7652
2800,1.1879,-7.8557,4.8667,-21.3565,-0.6957,0.6957
2805,1.073,-7.894,4.8284,-21.6348,-0.6261,0.3478
2810,0.9963,-7.9323,4.8284,-21.9826,-0.2087,0.0696
2815,1.0346,-7.8557,4.9816,-22.4696,0.1391,-0.1391
2820,0.958,-7.894,5.0583,-23.0261,0.0696,-0.1391
2825,0.9963,-8.0473,5.02,-23.3043,0.1391,-0.0696
2830,1.0346,-8.1239,4.9816,-23.3739,0.2087,0.0
2835,0.9963,-8.0856,5.0966,-23.3739,0.1391,0.1391
2840,0.958,-8.0856,5.0583,-23.3043,0.0696,0.487
2845,0.9197,-8.0089,5.0583,-23.4435,0.0696,0.7652
2850,0.6898,-7.8557,5.3265,-23.8609,0.0,1.0435
2855,1.0346,-8.0473,5.02,-24.2087,0.0696,1.5304
2860,0.8814,-8.0856,4.8667,-24.487,0.2783,1.8783
2865,0.8814,-8.0856,5.02,-24.5565,0.487,2.1565
2870,0.9197,-8.0089,4.9433,-24.6261,0.4174,2.3652
2875,0.958,-8.1622,4.9816,-24.5565,0.2087,2.4348
2880,1.0346,-8.0089,4.9433,-24.6261,0.1391,2.2261
2885,0.843,-7.8173,5.0583,-24.487,0.1391,2.087
2890,1.0346,-7.9706,4.905,-24.5565,0.1391,1.8783
2895,0.9197,-7.894,5.02,-24.9043,0.3478,1.6696
2900,0.843,-7.8557,4.9433,-25.4609,0.5565,1.6
2905,0.7664,-8.0089,4.905,-26.3652,0.6261,1.3217
2910,0.6898,-7.9706,4.9433,-27.4087,0.6261,1.1826
2915,0.843,-8.0856,5.0966,-28.3826,0.8348,0.9739
2920,0.958,-8.1239,5.0583,-29.6348,1.113,0.7652
2925,0.843,-8.0856,4.9433,-30.7478,1.3913,0.487
2930,0.843,-7.9323,4.905,-31.6522,1.6,0.2087
2935,0.6514,-7.779,4.905,-32.6261,1.8783,0.2087
2940,0.8047,-7.7407,4.905,-34.087,1.9478,0.6261
2945,0.6898,-7.4725,4.7517,-35.8957,2.1565,1.2522
2950,0.843,-7.5108,4.8284,-37.7739,2.1565,2.2957
2955,0.958,-7.5491,4.905,-39.7913,2.4348,3.3391
2960,0.9197,-7.4341,4.7134,-41.6696,2.9217,4.313
2965,0.8814,-7.6257,4.7517,-43.3391,3.3391,5.0783
2970,0.8814,-7.5874,4.5218,-44.9391,3.4783,5.8435
2975,0.8814,-7.779,4.5601,-46.5391,3.6174,6.3304
2980,0.958,-7.8557,4.4835,-47.9304,3.4783,6.7478
2985,0.958,-7.8557,4.5218,-49.2522,3.687,7.3739
2990,1.073,-7.9706,4.4068,-50.4348,4.0348,7.9304
2995,1.073,-8.0473,4.2536,-51.2696,4.5217,8.2783
