timestamp,accX,accY,accZ,gyroX,gyroY,gyroZ
0,0.0,-9.6567,-1.1879,-52.4522,5.2174,0.2783
5,0.0,-9.5801,-1.1879,-52.3826,5.0783,0.487
10,-0.0383,-9.5418,-1.2263,-52.1043,5.0783,0.8348
15,-0.115,-9.5801,-1.3029,-51.7565,4.9391,1.6696
20,-0.0766,-9.5418,-1.2263,-52.1043,4.6609,2.3652
25,-0.115,-9.6184,-1.1496,-52.3826,3.8957,3.1304
30,-0.0383,-9.6184,-1.3029,-52.8,2.9913,3.6174
35,0.0,-9.5801,-1.2646,-53.4957,2.087,4.0348
40,0.1533,-9.5801,-1.2646,-54.3304,1.5304,3.7565
45,0.0383,-9.5801,-1.4945,-55.0957,0.9739,3.7565
50,0.0,-9.6184,-1.4179,-55.513,0.8348,3.1304
55,0.0766,-9.4651,-1.4945,-55.6522,0.8348,2.7826
60,0.1916,-9.695,-1.5328,-55.7217,1.113,2.2261
65,0.0766,-9.695,-1.5328,-56.5565,1.6,2.5043
70,0.1916,-9.81,-1.4179,-57.113,1.6696,2.5739
75,0.115,-9.7334,-1.5711,-56.9739,1.8087,3.2
80,0.1533,-9.8483,-1.6861,-56.6957,1.8783,3.687
85,0.2299,-9.925,-1.7627,-56.0696,1.9478,4.6609
90,0.1916,-9.81,-1.6861,-55.513,2.2261,5.0783
95,0.2682,-9.8866,-2.0693,-54.5391,2.2957,5.5652
100,0.3066,-9.9633,-2.3375,-53.5652,2.4348,5.9826
105,0.3066,-9.925,-2.4142,-53.4261,2.9217,6.5391
110,0.3066,-9.8866,-2.5675,-53.5652,3.2696,6.8174
115,0.3449,-9.8483,-2.6441,-54.1913,3.6174,7.0261
120,0.3066,-9.7334,-2.3375,-54.4696,3.8261,6.4
125,0.3066,-9.8483,-2.2609,-54.5391,3.8957,5.9826
130,0.3066,-9.8483,-2.4142,-54.5391,3.8261,5.2174
135,0.115,-9.6184,-2.2992,-54.6087,3.8957,4.7304
140,0.115,-9.7717,-2.2226,-54.6087,3.9652,4.3826
145,-0.0383,-9.5801,-2.3375,-55.1652,4.0348,4.4522
150,0.0383,-9.5034,-2.3375,-55.5826,4.4522,4.2435
155,-0.0383,-9.5034,-2.2992,-56.2783,4.5913,4.3826
160,-0.0383,-9.4268,-2.2609,-57.5304,4.2435,3.7565
165,-0.1533,-9.6184,-2.2992,-60.6609,3.8957,3.4783
170,-0.1533,-9.6567,-2.2226,-63.513,3.4783,3.5478
175,-0.3066,-9.7717,-2.4525,-66.087,3.1304,4.5217
180,-0.3066,-9.7334,-2.2992,-68.2435,3.4783,5.6348
185,-0.1916,-9.7717,-2.5291,-70.0522,4.1043,7.2348
190,-0.0766,-9.81,-2.4908,-71.3043,5.0783,8.487
195,-0.0766,-9.7334,-2.3759,-71.9304,6.1913,9.5304
200,0.0766,-9.8483,-2.4525,-72.0696,7.0261,9.6696
205,0.3066,-9.6567,-2.2609,-72.487,7.9304,9.6696
210,0.2299,-9.5418,-2.1459,-74.087,8.4174,9.1826
215,0.3066,-9.5801,-2.2226,-77.6348,8.7652,9.4609
220,0.4598,-9.6567,-2.3759,-82.0174,9.113,9.7391
225,0.3066,-9.5801,-2.3759,-86.1913,10.2261,10.713
230,0.4982,-9.81,-2.5675,-89.1826,10.7826,11.2
235,0.3066,-9.4651,-2.8357,-91.4783,11.9652,11.4783
240,0.4215,-9.5418,-2.9123,-93.287,13.287,11.2
245,0.7281,-9.7334,-2.989,-95.3739,14.5391,10.8522
250,0.6131,-9.7717,-3.1806,-98.087,16.0,9.6
255,0.5365,-9.7334,-3.4105,-100.0348,17.3913,8.1391
260,0.5365,-9.6567,-3.4871,-101.3565,20.3826,6.3304
265,0.5748,-9.3502,-3.8704,-102.887,23.1652,5.0087
270,0.3449,-9.1586,-4.1003,-105.3217,24.9043,3.4783
275,0.1916,-8.8903,-4.4835,-108.7304,24.5565,2.4348
280,0.3449,-8.5454,-4.7134,-113.113,23.4435,1.0435
285,0.0,-8.2389,-4.6751,-119.1652,22.6783,-0.3478
290,0.2299,-8.2005,-5.0583,-126.9565,21.9826,-0.4174
295,0.1916,-8.1622,-5.02,-135.0957,21.3565,0.9043
300,0.4982,-8.3921,-5.5564,-141.7739,20.3826,1.6
305,0.5365,-8.6987,-5.3648,-146.8522,20.0348,2.1565
310,0.6131,-9.0053,-6.2079,-150.6087,17.7391,1.0435
315,0.3066,-9.3502,-6.1696,-151.7217,16.0696,-0.2087
320,0.4598,-9.695,-6.0929,-149.0783,13.2174,-0.6261
325,0.6131,-9.8483,-6.0163,-145.1826,10.6435,-0.8348
330,0.3832,-10.0782,-5.8247,-141.3565,9.1826,-1.8783
335,0.1533,-10.0016,-6.1696,-137.6696,8.9739,-2.3652
340,0.2682,-10.1549,-6.1313,-133.9826,8.5565,-1.7391
345,0.3449,-10.4231,-6.5528,-129.113,8.3478,-0.2783
350,0.5748,-10.1932,-6.5145,-123.1304,9.7391,1.2522
355,0.3449,-9.8866,-6.5528,-116.2435,12.7304,2.5739
360,-0.4215,-9.6567,-6.7827,-109.5652,15.4435,2.2261
365,-0.4215,-9.1202,-7.0893,-103.2348,17.113,2.4348
370,-0.4598,-8.737,-6.9743,-97.7391,19.8261,4.313
375,-0.2682,-8.6221,-7.0126,-92.8,20.1739,7.513
380,-0.4982,-8.4688,-7.3958,-87.8609,19.5478,9.3913
385,-0.6898,-8.3538,-7.4725,-82.2957,17.5304,10.713
390,-0.8814,-8.3155,-7.7407,-75.2,14.5391,10.4348
395,-1.073,-8.4688,-7.7407,-68.313,12.1043,9.4609
400,-0.9963,-8.5838,-7.7024,-62.6087,11.0609,7.3739
405,-0.8047,-8.5838,-7.5108,-57.3913,10.9217,5.913
410,-0.4215,-8.7754,-7.9706,-52.8696,10.2957,5.0783
415,-0.4598,-8.5838,-7.6257,-48.3478,11.1304,4.5217
420,-0.4215,-8.6221,-7.2809,-44.8,10.9217,3.9652
425,-0.3832,-8.3538,-7.2425,-41.3217,10.087,3.4783
430,-0.3832,-8.1239,-7.3958,-38.4,8.6957,3.0609
435,-0.4215,-7.7407,-7.4725,-35.8261,7.513,2.8522
440,-0.1533,-7.6257,-7.5108,-34.087,6.6087,2.4348
445,-0.2299,-7.5108,-7.8557,-33.0435,6.0522,2.6435
450,0.0383,-7.5874,-7.6641,-34.0174,5.2174,2.9913
455,0.0766,-7.6641,-7.779,-35.0609,5.0087,2.9217
460,-0.0383,-7.8173,-7.5108,-35.687,5.0087,1.9478
465,0.0,-7.7407,-7.5108,-34.9913,5.0783,0.7652
470,0.0766,-7.5874,-7.4725,-32.9739,4.9391,-0.7652
475,0.0,-7.7407,-7.3575,-29.7043,5.0783,-1.0435
480,-0.1916,-7.5108,-7.7024,-25.4609,5.2174,-0.7652
485,-0.115,-7.5491,-7.7024,-21.6348,5.2174,0.0696
490,-0.2682,-7.5491,-7.894,-18.9217,4.8,0.9043
495,-0.2299,-7.5108,-8.1239,-17.3913,4.4522,1.3217
500,-0.3449,-7.4341,-8.1239,-16.0696,4.8696,0.9739
505,-0.3832,-7.5108,-8.1239,-15.1652,5.2174,0.7652
510,-0.3066,-7.3958,-7.7407,-14.5391,4.9391,0.6261
515,-0.1533,-7.2809,-7.7024,-13.7739,4.8,0.6261
520,-0.1916,-7.2809,-7.894,-12.5217,4.5217,0.7652
525,-0.3449,-6.936,-7.894,-10.6435,4.6609,1.113
530,-0.3832,-6.936,-7.9323,-9.113,4.9391,1.6
535,-0.0383,-7.0893,-8.0473,-8.4174,4.7304,2.0174
540,-0.0766,-7.1659,-7.9706,-8.2783,4.9391,1.8783
545,-0.0766,-7.3575,-8.0089,-7.9304,4.9391,1.5304
550,0.0766,-7.3958,-7.7407,-7.4435,4.9391,0.9739
555,-0.0383,-7.4725,-7.5874,-6.5391,4.4522,1.113
560,0.115,-7.5108,-7.7407,-6.5391,3.4783,1.113
565,-0.1916,-7.3192,-7.7407,-7.3739,2.713,0.5565
570,-0.1916,-7.2809,-7.5491,-7.4435,2.2957,1.0435
575,0.0,-7.2042,-7.779,-7.1652,1.9478,2.0174
580,0.0383,-6.9743,-7.7407,-6.6783,2.2957,2.4348
585,0.1916,-7.0893,-7.7024,-6.0522,3.1304,2.7826
590,0.115,-7.2042,-7.5491,-5.7739,5.4261,2.4348
595,-0.1533,-7.2425,-7.7024,-5.7043,7.1652,2.2957
600,-0.0766,-7.2042,-7.6641,-5.7043,7.3043,2.713
605,0.0766,-7.2809,-8.0089,-5.4261,6.887,2.9913
610,-0.115,-7.0893,-7.779,-4.6609,6.7478,2.7826
615,-0.0766,-6.936,-7.894,-4.5217,6.4696,2.9913
620,-0.0766,-6.936,-8.0089,-5.287,6.0522,3.2696
625,0.1916,-7.2425,-8.0856,-6.5391,4.8696,3.4783
630,-0.0383,-7.2042,-7.9706,-7.8609,3.8957,3.1304
635,0.115,-7.3958,-7.9706,-8.9043,3.6174,3.3391
640,0.115,-7.4341,-8.0473,-8.9739,3.5478,3.4087
645,0.0,-7.4725,-8.0473,-8.6957,3.6174,3.9652
650,0.0766,-7.3958,-8.0473,-8.487,3.3391,4.313
655,0.0,-7.3958,-8.0089,-8.7652,3.0609,4.313
660,-0.0383,-7.1276,-8.0089,-9.6,1.8087,3.9652
665,0.0,-7.2042,-8.0089,-10.0174,0.6957,3.7565
670,-0.1916,-7.0509,-8.0856,-9.8783,0.2783,3.5478
675,0.0766,-7.1276,-8.0856,-9.2522,0.0,4.3826
680,-0.2299,-7.0126,-7.894,-8.0696,0.6957,4.9391
685,-0.2299,-7.0893,-8.0856,-6.8174,0.9043,5.913
690,-0.115,-6.8593,-8.2005,-6.1217,0.6261,6.4696
695,0.0,-6.936,-8.0089,-5.913,0.6957,6.6783
700,0.2682,-7.0126,-7.9323,-5.913,0.487,6.4
705,0.3832,-7.1276,-7.9706,-5.7739,0.4174,5.4957
710,0.3066,-7.0126,-7.8173,-5.4957,0.7652,4.5913
715,0.2299,-7.2042,-7.9323,-4.9391,0.8348,4.1043
720,0.115,-7.0509,-7.9323,-4.2435,1.1826,4.1043
725,0.2299,-7.0126,-8.1239,-3.0609,1.3217,4.5913
730,0.1916,-6.821,-8.2772,-2.0174,1.3913,5.1478
735,0.115,-6.7827,-8.2389,-1.3913,1.5304,5.4957
740,-0.0383,-6.7444,-8.3538,-1.0435,1.6696,5.5652
745,-0.0383,-6.7444,-8.2005,-0.9739,1.6,5.4261
750,0.0,-6.7444,-7.7024,-1.113,2.0174,4.7304
755,0.0383,-6.5911,-7.5874,-0.9739,2.8522,4.0348
760,0.0,-6.7444,-7.5108,-0.6261,3.9652,3.7565
765,0.0766,-6.821,-7.4341,-0.1391,4.313,3.4783
770,0.0383,-6.7827,-7.4341,0.2087,3.8957,3.0609
775,0.0,-6.6294,-7.5874,0.3478,2.9217,2.6435
780,0.0,-6.5911,-7.5108,0.2783,1.6696,2.4348
785,0.2299,-6.5911,-7.779,-0.1391,0.487,2.6435
790,0.1916,-6.4378,-7.6641,-0.7652,-0.0696,2.0174
795,0.2682,-6.5145,-7.4725,-1.2522,0.0696,1.0435
800,0.2682,-6.3612,-7.5108,-1.7391,0.9043,0.3478
805,0.2299,-6.4761,-7.3958,-1.8087,1.9478,-0.1391
810,0.1533,-6.3612,-7.3192,-1.113,2.713,-0.1391
815,0.0383,-6.3229,-7.3575,-0.1391,3.2,0.0
820,0.0383,-6.3229,-7.3192,0.6261,3.4087,0.0696
825,0.0766,-6.2845,-7.3575,0.9739,2.9217,0.1391
830,-0.1533,-6.0929,-7.3958,0.7652,2.1565,-0.2087
835,0.2682,-6.3229,-7.3958,0.2087,0.7652,-0.7652
840,0.115,-6.3229,-7.3958,-0.1391,-0.1391,-1.8087
845,0.115,-6.2845,-7.2809,-0.2783,-0.1391,-2.7826
850,0.0383,-6.2845,-7.0893,-0.0696,0.5565,-3.8261
855,0.0766,-6.3995,-7.0126,-0.2087,1.4609,-5.0087
860,0.115,-6.3229,-7.0126,0.0,1.4609,-5.5652
865,0.115,-6.2845,-7.1276,0.2087,0.9043,-5.9826
870,0.0766,-6.3612,-7.1276,0.2087,0.1391,-5.9826
875,-0.0383,-6.2845,-7.1276,0.8348,-0.6957,-5.8435
880,-0.0383,-6.4378,-7.0126,1.8087,-1.113,-5.8435
885,-0.1533,-6.2845,-7.0509,3.0609,-0.7652,-5.9826
890,-0.115,-6.2079,-6.9743,4.2435,-0.0696,-5.5652
895,-0.1916,-6.0546,-7.0126,5.0087,0.6957,-5.0087
900,-0.0383,-5.978,-7.0893,5.1478,0.9043,-4.5913
905,-0.115,-5.978,-7.0126,4.6609,0.9043,-4.1043
910,-0.0766,-5.9396,-6.8977,3.687,0.7652,-3.8261
915,-0.0383,-6.0163,-6.7827,3.1304,0.2783,-3.9652
920,0.0766,-5.8247,-6.7061,3.1304,0.1391,-4.0348
925,0.115,-5.863,-6.9743,3.2,0.2783,-3.9652
930,0.1533,-6.0546,-7.0126,3.0609,0.1391,-3.8261
935,0.1916,-6.1313,-7.0509,2.9217,-0.0696,-3.8261
940,0.2299,-6.0929,-7.0893,3.1304,-0.1391,-3.8957
945,0.2299,-6.1313,-7.0509,3.2696,0.0696,-4.0348
950,0.2682,-6.2462,-7.0126,3.8957,0.487,-4.0348
955,0.2682,-6.3612,-7.0509,4.4522,1.113,-3.8957
960,0.2299,-6.2462,-7.1276,4.9391,1.8087,-3.7565
965,0.1533,-6.3612,-7.2425,5.287,2.1565,-3.687
970,0.115,-6.3612,-7.1276,5.2174,2.0174,-3.4087
975,0.0,-6.3229,-7.0893,5.0087,1.2522,-3.2
980,-0.0383,-6.4378,-6.8977,4.8696,0.6261,-3.2
985,-0.1533,-6.3229,-6.8977,5.1478,0.4174,-3.1304
990,-0.115,-6.4761,-7.0126,5.287,0.4174,-2.9913
995,-0.2682,-6.3995,-6.936,5.3565,0.6957,-2.9217
1000,-0.3832,-6.4378,-6.821,5.2174,0.9043,-2.7826
1005,-0.3449,-6.5528,-7.0126,5.0783,0.7652,-2.713
1010,-0.3066,-6.4761,-6.9743,5.1478,0.5565,-2.7826
1015,-0.2299,-6.5911,-6.821,5.7043,0.487,-3.2696
1020,-0.3066,-6.6294,-6.9743,6.2609,0.8348,-3.3391
1025,-0.3832,-6.5911,-7.0509,6.7478,1.6,-3.6174
1030,-0.4215,-6.5911,-7.0509,6.5391,2.0174,-3.9652
1035,-0.3832,-6.4761,-7.0509,6.0522,1.8087,-4.3826
1040,-0.3832,-6.4378,-7.2042,5.5652,1.3913,-4.6609
1045,-0.3449,-6.5528,-7.2425,5.4261,0.9043,-4.9391
1050,-0.2299,-6.6294,-7.0893,5.8435,0.487,-4.8696
1055,-0.0766,-6.7061,-7.0509,6.887,0.6957,-4.3826
1060,-0.1916,-6.7827,-7.0509,8.2087,1.3217,-3.8957
1065,0.0383,-6.7061,-7.1276,9.113,1.8087,-3.5478
1070,0.0383,-6.7444,-7.1659,9.4609,2.0174,-3.3391
1075,0.0,-6.821,-6.9743,9.4609,1.9478,-3.3391
1080,-0.0383,-6.7444,-6.936,9.1826,1.8783,-3.3391
1085,-0.0766,-6.7827,-7.0893,9.1826,1.3913,-3.2696
1090,-0.115,-6.821,-7.0126,9.113,1.0435,-2.9913
1095,-0.115,-6.821,-7.0509,9.3913,0.8348,-2.6435
1100,-0.1533,-6.8593,-6.936,9.5304,0.6261,-2.2261
1105,-0.1533,-6.7827,-7.1276,9.6696,0.3478,-1.8087
1110,-0.1533,-6.6677,-6.8977,9.6,0.0,-1.4609
1115,-0.2682,-6.7061,-7.0509,9.1826,-0.3478,-1.2522
1120,-0.2299,-6.7444,-7.1276,8.6261,-0.9043,-1.2522
1125,-0.2299,-6.821,-7.0893,8.1391,-1.6,-1.3217
1130,-0.2299,-6.8977,-7.0893,8.2087,-2.0174,-1.3913
1135,-0.3066,-6.7827,-6.936,8.4174,-1.8087,-1.6
1140,-0.3066,-6.7061,-7.0126,8.9043,-1.2522,-1.4609
1145,-0.3449,-6.7827,-7.0509,9.1826,-0.487,-1.6696
1150,-0.3066,-6.821,-6.7827,9.4609,0.0696,-1.7391
1155,-0.2682,-6.8593,-7.0126,9.6,0.1391,-1.7391
1160,-0.2682,-6.7827,-6.9743,10.087,-0.4174,-1.7391
1165,-0.1916,-6.8593,-7.0126,10.4348,-0.6261,-1.8087
1170,-0.1916,-6.9743,-7.0893,10.713,-0.4174,-1.5304
1175,-0.2682,-6.8977,-7.0893,10.7826,-0.2087,-1.4609
1180,-0.1916,-7.0509,-6.936,10.9913,0.0696,-1.3217
1185,-0.115,-7.0509,-6.821,11.0609,0.5565,-1.3217
1190,-0.1916,-7.0126,-6.936,11.0609,0.9739,-1.3217
1195,-0.2299,-6.8593,-7.0126,11.2696,1.113,-1.6
1200,-0.1533,-6.7827,-6.9743,11.0609,1.0435,-1.5304
1205,-0.0766,-6.821,-6.936,10.5739,0.487,-1.5304
1210,-0.1533,-6.821,-6.8593,10.0174,-0.2783,-1.3913
1215,0.0383,-6.821,-6.7444,9.4609,-0.9739,-1.3217
1220,0.0,-6.7827,-6.6677,9.3913,-1.6,-1.0435
1225,-0.115,-6.8593,-6.821,9.6,-2.0174,-1.113
1230,0.0,-6.7827,-6.7061,10.2957,-1.8087,-1.0435
1235,-0.115,-6.936,-6.8593,10.713,-1.3217,-1.113
1240,-0.0383,-6.8977,-6.7444,10.9913,-0.6261,-1.0435
1245,-0.1916,-6.8593,-6.936,11.3391,0.2087,-1.1826
1250,-0.115,-6.9743,-6.7827,11.687,0.5565,-1.2522
1255,-0.1916,-6.8977,-6.8977,11.8957,0.6957,-1.2522
1260,-0.2682,-7.0509,-6.8977,11.8957,0.7652,-1.113
1265,-0.3066,-6.936,-6.8977,12.0348,0.6957,-1.4609
1270,-0.1916,-6.9743,-6.8593,12.2435,0.9043,-1.3217
1275,-0.3066,-7.0509,-6.9743,12.7304,0.9739,-1.3913
1280,-0.4215,-6.936,-6.7827,13.1478,0.9739,-1.3217
1285,-0.3832,-6.9743,-6.6677,13.3565,1.2522,-1.3913
1290,-0.4215,-6.8593,-6.5145,13.6348,1.2522,-1.113
1295,-0.3449,-6.821,-6.7061,13.4957,1.113,-1.0435
1300,-0.4215,-6.821,-6.4378,13.3565,0.9043,-0.9043
1305,-0.3832,-6.8593,-6.5528,13.3565,0.6957,-0.9043
1310,-0.2299,-6.8977,-6.7061,13.2174,0.6261,-0.7652
1315,-0.3066,-6.8593,-6.5911,13.0783,0.7652,-0.9043
1320,-0.115,-6.8593,-6.3229,13.0087,0.7652,-0.7652
1325,-0.115,-6.7061,-6.5145,13.0087,0.6957,-0.9739
1330,-0.0766,-6.7444,-6.4378,13.1478,0.5565,-1.0435
1335,-0.1533,-6.7444,-6.2462,13.4957,0.4174,-1.3217
1340,0.0766,-6.7444,-6.3612,13.7739,0.5565,-1.2522
1345,0.0383,-6.7444,-6.3612,13.9826,0.9739,-1.3913
1350,0.0,-6.7444,-6.5145,13.9826,1.5304,-1.2522
1355,0.0383,-6.7444,-6.5911,13.913,1.8783,-1.3913
1360,-0.0383,-6.7444,-6.3995,13.6348,1.9478,-1.2522
1365,-0.0766,-6.936,-6.4378,13.3565,2.087,-1.3217
1370,-0.1533,-6.7827,-6.5145,13.1478,2.2261,-1.113
1375,-0.1916,-6.821,-6.5528,13.1478,2.2261,-1.2522
1380,-0.2299,-6.821,-6.6294,13.287,2.0174,-1.113
1385,-0.2299,-6.936,-6.5145,13.2174,1.6,-1.1826
1390,-0.115,-6.9743,-6.2079,13.2174,1.3217,-0.9739
1395,-0.2682,-7.0893,-6.2079,13.287,1.2522,-0.9739
1400,-0.3066,-7.0893,-6.2462,13.5652,1.3217,-0.6261
1405,-0.1533,-7.0509,-6.3995,13.8435,1.6,-0.487
1410,-0.2299,-7.0509,-6.3229,14.2609,1.8783,-0.2087
1415,-0.1533,-7.0509,-6.3995,14.2609,2.1565,-0.4174
1420,-0.1916,-6.7827,-6.5528,13.8435,2.3652,-0.487
1425,-0.115,-7.0126,-6.3612,13.1478,2.6435,-0.7652
1430,0.0,-7.0509,-6.3229,12.6609,2.713,-0.6261
1435,-0.115,-7.0509,-6.3612,12.3826,2.8522,-0.8348
1440,-0.115,-6.8593,-6.4378,12.3826,3.0609,-0.7652
1445,0.0,-6.9743,-6.3995,12.5913,3.2,-0.8348
1450,0.0,-6.936,-6.5528,12.8696,3.6174,-0.6957
1455,0.0,-6.821,-6.6294,12.8,4.1043,-0.8348
1460,0.0,-7.0126,-6.3995,12.4522,4.1739,-0.7652
1465,-0.0766,-7.0893,-6.4378,12.313,4.1043,-1.0435
1470,-0.2299,-7.0126,-6.6294,12.1739,4.0348,-0.9043
1475,-0.1916,-7.1659,-6.5145,12.5217,4.2435,-1.0435
1480,-0.1916,-7.1659,-6.5911,12.8,4.5217,-0.7652
1485,-0.1533,-7.2809,-6.6294,13.1478,4.1739,-0.9043
1490,-0.3449,-7.3575,-6.821,13.4957,3.687,-0.6957
1495,-0.3449,-7.3575,-6.5911,13.6348,3.1304,-0.8348
1500,-0.3832,-7.3958,-6.6294,13.913,2.5739,-0.9739
1505,-0.3066,-7.3575,-6.6677,13.9826,1.9478,-1.2522
1510,-0.3066,-7.3958,-6.5145,14.1217,1.3913,-1.113
1515,-0.1916,-7.2425,-6.3612,14.5391,0.9739,-1.2522
1520,-0.115,-7.1659,-6.3612,14.9565,0.7652,-1.1826
1525,0.0,-7.0509,-6.3995,15.3043,0.6957,-1.3217
1530,0.0,-7.0126,-6.3612,15.513,0.6957,-1.4609
1535,0.0766,-6.936,-6.3995,15.513,1.2522,-1.8087
1540,0.0,-6.936,-6.4378,15.0261,1.8783,-1.6696
1545,-0.0766,-6.9743,-6.3612,14.4696,2.3652,-1.8087
1550,0.0383,-7.0126,-6.3612,13.7739,2.6435,-1.5304
1555,-0.0766,-6.8977,-6.2845,13.0783,2.4348,-1.6696
1560,-0.1916,-7.0126,-6.3995,12.5913,2.5739,-1.4609
1565,-0.115,-7.0893,-6.3229,12.1739,2.3652,-1.8087
1570,-0.1916,-7.2042,-6.2845,11.8957,2.2957,-1.6696
1575,-0.2299,-7.2425,-6.4378,12.1043,2.2261,-1.9478
1580,-0.1916,-7.2425,-6.2079,12.3826,2.3652,-1.8087
1585,-0.3066,-7.2042,-6.4378,12.7304,2.4348,-2.0174
1590,-0.3066,-7.2809,-6.2462,13.2174,2.5043,-1.9478
1595,-0.3832,-7.3192,-6.3995,13.7043,2.2261,-2.2957
1600,-0.3832,-7.3958,-6.3229,13.9826,2.0174,-2.4348
1605,-0.4215,-7.3575,-6.3995,14.0522,2.0174,-2.8522
1610,-0.3449,-7.3575,-6.2845,14.2609,2.0174,-2.5043
1615,-0.3066,-7.3575,-6.2462,14.5391,2.1565,-2.2957
1620,-0.1533,-7.3192,-6.2845,14.887,2.2957,-1.8783
1625,-0.115,-7.1659,-6.1696,15.1652,2.6435,-1.9478
1630,-0.2299,-7.1659,-6.1696,15.3043,3.1304,-1.7391
1635,-0.1533,-7.1276,-6.2845,15.3043,3.5478,-2.0174
1640,-0.0383,-7.0126,-6.1313,14.887,3.8957,-1.8087
1645,0.0,-7.0126,-6.0546,14.0522,3.8261,-1.8783
1650,-0.0383,-7.1659,-6.1313,13.8435,3.8261,-1.6696
1655,-0.1916,-7.0509,-6.0929,14.0522,4.2435,-1.8783
1660,-0.3066,-7.1276,-6.0163,14.3304,4.7304,-1.7391
1665,-0.115,-7.2425,-6.0546,14.4696,5.1478,-2.0174
1670,-0.115,-7.3192,-5.9396,14.2609,5.5652,-1.8087
1675,-0.2299,-7.2809,-5.978,14.1217,5.8435,-1.9478
1680,-0.2299,-7.4725,-5.7864,14.1217,5.287,-1.6
1685,-0.2682,-7.4725,-6.0163,14.6783,4.8696,-1.6696
1690,-0.1916,-7.4341,-5.978,15.5826,4.6609,-1.3217
1695,-0.4215,-7.3958,-5.978,16.5565,4.5913,-1.1826
1700,-0.3066,-7.3958,-5.9396,17.3217,4.7304,-0.6261
1705,-0.2682,-7.4341,-6.0163,17.8783,4.6609,-0.6261
1710,-0.3449,-7.3192,-5.7864,18.2261,4.8696,-0.3478
1715,-0.2682,-7.4725,-5.7864,18.5739,4.8,-0.5565
1720,-0.2299,-7.3958,-5.6714,18.9913,4.8,-0.5565
1725,-0.1916,-7.3192,-5.863,19.7565,4.6609,-0.9043
1730,-0.1916,-7.4341,-5.9396,20.3826,5.2174,-0.9043
1735,-0.3066,-7.2809,-5.9396,21.1478,5.9826,-1.113
1740,-0.2682,-7.2042,-5.9396,21.6348,6.4696,-0.9739
1745,-0.3066,-7.3575,-5.6714,21.5652,6.6783,-1.113
1750,-0.3832,-7.2425,-5.6714,21.287,6.7478,-0.9043
1755,-0.4215,-7.3192,-5.4798,20.8696,6.5391,-0.9043
1760,-0.3832,-7.3575,-5.4415,20.8,6.4696,-0.6957
1765,-0.4598,-7.4341,-5.4415,21.3565,6.7478,-0.9739
1770,-0.4215,-7.4341,-5.5181,22.1913,7.3043,-0.9043
1775,-0.4598,-7.3575,-5.5948,23.2348,8.0696,-1.1826
1780,-0.3832,-7.3958,-5.7864,24.4174,8.2087,-1.4609
1785,-0.3066,-7.3192,-5.863,25.6,7.7913,-1.9478
1790,-0.1533,-7.2042,-5.863,26.5043,7.0261,-2.2261
1795,-0.115,-7.0893,-5.978,27.0609,6.1217,-2.713
1800,-0.1533,-6.8593,-5.9013,27.0609,5.3565,-2.5043
1805,-0.0383,-6.936,-5.9396,26.5043,4.2435,-2.4348
1810,-0.0383,-6.9743,-5.8247,25.8783,3.5478,-1.8783
1815,0.0383,-7.1276,-5.6714,25.6,3.1304,-1.8087
1820,0.0383,-7.2042,-5.7864,25.8087,3.2696,-1.5304
1825,0.0,-7.3192,-5.7097,26.2261,3.6174,-1.6
1830,-0.115,-7.1276,-5.4798,27.1304,4.5217,-1.2522
1835,-0.0766,-7.2425,-5.4798,27.9652,5.4261,-1.1826
1840,-0.115,-7.3192,-5.4415,28.7304,6.1913,-0.9043
1845,-0.2682,-7.2425,-5.5181,29.2174,7.0957,-0.6957
1850,-0.3832,-7.2809,-5.5948,29.2174,7.4435,-0.2783
1855,-0.3832,-7.3958,-5.6331,29.6348,7.2348,-0.2087
1860,-0.3449,-7.3575,-5.4032,30.1913,7.0261,-0.2783
1865,-0.3449,-7.3958,-5.4798,31.0957,6.9565,-0.7652
1870,-0.3449,-7.2809,-5.5564,31.9304,6.8174,-0.9739
1875,-0.4598,-7.1659,-5.5181,32.4174,6.8174,-1.3913
1880,-0.4215,-7.1659,-5.5564,32.4174,6.6087,-1.3913
1885,-0.4215,-7.2425,-5.4798,31.8609,6.1217,-2.0174
1890,-0.3832,-7.2042,-5.2499,31.3739,5.913,-2.5043
1895,-0.2682,-7.3575,-5.1732,31.1652,6.0522,-3.0609
1900,-0.3066,-7.2425,-5.4032,31.4435,6.4696,-2.9217
1905,-0.2299,-7.3192,-5.3265,32.0,6.8174,-2.7826
1910,-0.2299,-7.3192,-5.5564,32.8348,6.7478,-2.2957
1915,-0.3449,-7.2425,-5.5564,33.5304,6.5391,-2.0174
1920,-0.3066,-7.4725,-5.5948,34.2957,6.3304,-1.3913
1925,-0.2299,-7.3575,-5.5181,34.8522,6.3304,-1.1826
1930,-0.1916,-7.3575,-5.2116,35.4783,6.2609,-0.8348
1935,-0.0383,-7.3575,-5.2882,36.2435,6.0522,-1.113
1940,-0.0383,-7.3958,-5.2882,36.9391,5.8435,-1.1826
1945,0.0766,-7.3958,-5.3265,37.6348,5.4957,-1.7391
1950,0.0766,-7.3958,-5.3648,38.2609,5.6348,-2.2261
1955,0.1533,-7.1659,-5.3648,38.7478,6.0522,-2.8522
1960,0.0383,-7.1276,-5.0966,39.2348,6.5391,-2.5739
1965,0.0383,-7.1276,-5.0966,39.6522,6.9565,-2.3652
1970,0.115,-7.1276,-5.0583,40.0696,6.8174,-1.7391
1975,0.2299,-7.0126,-5.02,40.5565,6.6087,-1.6696
1980,0.3832,-7.0893,-4.79,41.113,6.7478,-1.6
1985,0.3066,-7.1659,-4.7134,41.7391,7.0957,-2.0174
1990,0.1916,-6.936,-4.7134,42.4348,7.9304,-1.8783
1995,0.2682,-7.1659,-4.5984,43.2696,8.6957,-1.8087
2000,0.1916,-7.0509,-4.5218,44.1739,8.7652,-1.2522
2005,0.0766,-7.0126,-4.5218,45.1478,8.4174,-1.3217
2010,0.115,-7.0509,-4.5601,46.0522,7.9304,-1.3217
2015,-0.0766,-7.0509,-4.5218,46.9565,7.6522,-1.7391
2020,-0.115,-6.8977,-4.2919,47.8609,7.4435,-1.8087
2025,-0.115,-6.8593,-4.2152,48.8348,7.2348,-2.2261
2030,-0.0766,-6.8977,-4.3302,49.8783,7.2348,-2.3652
2035,-0.0383,-6.9743,-4.3302,50.5739,7.0957,-2.9217
2040,-0.0766,-6.821,-4.4452,50.9913,7.3739,-3.4783
2045,0.0766,-6.9743,-4.3685,51.4783,8.3478,-4.313
2050,-0.0383,-7.0126,-4.3685,51.9652,9.5304,-4.7304
2055,-0.2299,-7.2425,-4.4452,52.5913,9.9478,-5.2174
2060,-0.1916,-7.5108,-4.4835,53.4957,10.1565,-5.1478
2065,-0.115,-7.5491,-4.4835,54.5391,9.8783,-5.287
2070,-0.0383,-7.8557,-4.3302,55.4435,9.2522,-5.0783
2075,-0.115,-7.9706,-4.2919,56.5565,8.487,-5.0783
2080,-0.2299,-8.1622,-4.1769,57.6696,7.513,-4.5217
2085,-0.2682,-8.3921,-4.0236,58.9217,6.4696,-4.0348
2090,-0.2299,-8.5454,-3.7171,60.3826,5.1478,-3.0609
2095,-0.2299,-8.8903,-3.5255,62.2609,4.0348,-2.6435
2100,0.0,-9.3885,-3.2572,66.3652,3.2696,-1.9478
2105,0.1533,-9.695,-3.3339,71.513,2.8522,-1.5304
2110,0.1916,-9.6567,-3.5638,78.5391,2.7826,-1.1826
2115,0.0,-9.4651,-3.6021,85.4261,2.5043,-0.7652
2120,0.0,-9.1586,-3.4871,91.5478,2.0174,0.4174
2125,-0.0383,-8.852,-3.6404,96.4174,0.8348,1.8783
2130,0.115,-8.6604,-3.2955,99.2696,-0.9043,4.0348
2135,0.0383,-8.3538,-3.3722,100.0348,-2.5739,5.5652
2140,0.1916,-8.3155,-3.1423,99.4783,-3.5478,6.9565
2145,0.3066,-8.5838,-2.7207,98.5739,-3.4783,7.8609
2150,0.3832,-9.3502,-2.1459,98.6435,-2.6435,8.1391
2155,0.3832,-10.1549,-1.6478,101.287,-2.1565,7.6522
2160,0.3832,-11.2279,-1.4562,108.313,-1.113,7.8609
2165,0.0766,-13.0672,-0.7281,120.6261,0.2783,7.6522
2170,0.2682,-16.631,1.3029,141.0087,1.113,6.8174
2175,0.0766,-20.6163,0.8814,171.9652,-1.0435,3.0609
2180,-0.3449,-24.6016,1.0346,211.9652,-3.3391,-2.5043
2185,0.0,-30.503,3.1039,255.513,-2.087,-8.8348
2190,1.1496,-38.0904,4.9433,303.5826,2.0174,-15.3739
2195,1.5328,-42.1907,5.1349,357.7739,11.8261,-27.1304
2200,0.6131,-42.0374,-2.031,397.2174,22.6087,-36.9391
2205,-3.4488,-35.9828,-15.1365,345.8783,33.1826,-42.4348
2210,-7.0893,-28.5103,-16.5544,212.5913,34.9913,-34.1565
2215,-2.3375,-23.7969,-10.8446,89.8783,21.1478,-17.3913
2220,-0.4598,-20.8463,-6.4761,27.5478,0.0696,-7.0261
2225,0.7281,-16.6693,-4.2919,17.3913,-15.1652,4.5913
2230,1.4945,-11.2662,-4.3685,33.6696,-19.8261,16.487
2235,1.2263,-6.8593,-4.2536,48.0696,-18.2957,22.9565
2240,1.3795,-1.5711,-2.6058,49.9478,-13.2174,24.2783
2245,1.6095,2.874,1.1113,42.713,-1.113,22.1913
2250,1.3795,6.5528,4.905,31.513,9.8783,21.8435
2255,1.1496,9.6567,7.5491,22.9565,14.3304,23.3043
2260,1.1113,11.4961,9.2352,9.0435,9.5304,23.6522
2265,1.4179,10.8063,7.5108,-8.9043,-1.2522,20.1739
2270,1.1879,8.2005,4.5984,-27.0609,-11.1304,14.1913
2275,0.9197,5.02,2.4908,-37.8435,-16.6261,8.4174
2280,0.5748,0.3449,0.8047,-34.3652,-16.0,4.8696
2285,0.0,-5.2882,1.6478,-17.2522,-11.4087,1.1826
2290,-0.3066,-10.653,2.874,8.487,-5.7043,-3.2696
2295,-0.2682,-16.0945,3.0273,39.9304,0.0696,-9.0435
2300,0.1533,-20.5397,0.3449,79.0957,5.4261,-14.7478
2305,0.3449,-22.0342,-2.2609,99.687,13.5652,-22.9565
2310,0.3449,-22.1491,-1.1496,104.3478,19.9652,-28.4522
2315,0.6131,-22.1491,-0.0766,107.7565,14.0522,-31.7913
2320,0.4215,-20.8846,-0.9197,114.7826,2.9217,-35.7565
2325,0.5365,-18.2788,-1.3029,117.4261,-2.087,-37.9826
2330,0.4215,-15.2898,-1.0346,114.3652,-1.4609,-36.4522
2335,0.3449,-12.2625,-0.5365,108.5913,0.1391,-33.4609
2340,-0.115,-8.7754,0.3066,102.4696,1.1826,-28.8
2345,0.2682,-5.5181,0.4982,92.5217,2.6435,-23.9304
2350,0.3449,-4.4835,0.843,82.4348,4.0348,-17.9478
2355,0.3066,-3.7171,1.9543,77.287,5.8435,-11.6174
2360,0.3449,-3.4488,2.6824,76.1043,5.7739,-6.1217
2365,0.4598,-3.9087,2.4142,73.6696,3.687,-2.9913
2370,-0.115,-5.02,2.3759,70.6087,4.4522,-0.8348
2375,-0.3449,-6.5528,2.7591,69.0783,6.7478,0.2783
2380,-0.7281,-7.5108,3.0656,67.687,6.1913,0.4174
2385,-0.9197,-8.3155,3.1423,65.6696,4.2435,-0.6261
2390,-1.1113,-9.1969,3.0656,63.6522,3.2,-1.8087
2395,-1.1496,-9.6567,3.1423,62.4696,3.1304,-2.6435
2400,-1.3412,-9.8866,3.0656,62.7478,3.6174,-2.713
2405,-1.2646,-9.9633,3.2572,62.6087,3.9652,-2.5043
2410,-0.9963,-9.925,3.2572,61.9826,4.1739,-2.2261
2415,-0.9197,-9.4651,3.1806,60.9391,4.3826,-2.5043
2420,-0.4982,-9.1586,2.989,58.9217,4.4522,-2.9913
2425,-0.3449,-8.852,3.1423,55.7913,4.5913,-3.7565
2430,0.0383,-8.5454,2.9507,51.6174,4.5913,-4.313
2435,0.3449,-8.5071,2.7974,47.513,4.5217,-4.9391
2440,0.5365,-8.3538,2.4142,44.2435,4.5913,-5.287
2445,0.8047,-8.5454,2.4908,40.8348,4.313,-5.5652
2450,0.958,-8.8137,2.6058,37.913,3.687,-5.4261
2455,1.2646,-9.1969,2.8357,35.1304,3.4087,-5.287
2460,1.3029,-9.5418,3.0656,32.9043,3.8957,-4.8696
2465,1.2646,-9.4651,3.4105,31.3739,4.5217,-4.8
2470,1.1113,-9.6567,3.1423,30.3304,5.1478,-4.5913
2475,0.9197,-9.7334,3.1423,29.8435,5.4261,-4.5913
2480,0.6131,-9.5418,2.989,29.4957,5.4957,-4.1739
2485,0.3449,-9.0053,2.9123,29.0783,5.3565,-3.6174
2490,0.4598,-8.4688,3.0656,28.0348,5.7739,-2.3652
2495,0.3832,-8.1239,3.1039,25.113,6.1217,-1.8087
2500,0.4215,-7.779,3.2572,21.4957,6.3304,-1.6696
2505,0.5365,-7.5491,3.2572,17.5304,6.6783,-2.087
2510,0.6514,-7.4725,3.0273,13.6348,7.2348,-2.9217
2515,0.5748,-7.5108,2.989,10.0174,7.5826,-4.0348
2520,0.6514,-7.9706,2.8357,7.4435,7.3739,-4.8696
2525,0.6514,-8.2772,2.6824,6.1913,6.9565,-5.5652
2530,0.7664,-8.8137,2.4908,6.5391,6.5391,-5.9826
2535,0.958,-9.0053,2.4142,8.2087,5.8435,-6.2609
2540,0.7281,-9.1586,2.3759,9.7391,4.1739,-6.4
2545,0.8047,-9.4268,2.4525,10.5043,3.1304,-6.4
2550,0.6514,-9.8483,2.4908,10.2261,2.4348,-6.1217
2555,0.7281,-9.925,2.5291,10.087,2.4348,-5.913
2560,0.7664,-9.9633,2.3759,10.5043,2.9913,-5.7043
2565,0.7664,-10.0016,2.2992,10.8522,3.3391,-5.2174
2570,0.7281,-9.925,2.1076,10.8522,3.4783,-4.4522
2575,0.843,-9.695,2.1843,10.5043,3.8261,-3.8957
2580,0.843,-9.5801,2.3375,9.6696,4.1043,-3.2
2585,0.7281,-9.2352,2.4142,8.5565,4.5217,-2.8522
2590,0.6514,-9.0053,2.5675,7.2348,5.0087,-2.3652
2595,0.4982,-8.6987,2.5675,5.913,5.0783,-2.1565
2600,0.4215,-8.7754,2.4525,4.6609,4.9391,-1.9478
2605,0.3449,-8.5454,2.4525,3.687,4.9391,-2.0174
2610,0.3832,-8.5838,2.3375,2.713,4.8,-2.4348
2615,0.3066,-8.5454,2.2226,1.7391,4.3826,-3.2
2620,0.1533,-8.6987,2.1843,0.8348,4.1739,-3.9652
2625,0.2299,-8.967,2.1843,1.0435,4.1739,-4.3826
2630,0.1916,-9.1202,2.2992,2.6435,4.5913,-4.5217
2635,0.1916,-9.2735,2.2226,4.7304,5.0087,-4.2435
2640,0.3066,-9.2735,2.2226,6.5391,5.0783,-3.6174
2645,0.4215,-9.3502,2.1459,6.6783,4.6609,-2.8522
2650,0.5365,-9.4651,2.3759,6.2609,4.1043,-2.4348
2655,0.5748,-9.4268,2.7591,5.4957,3.7565,-1.9478
2660,0.4982,-9.3118,2.7207,4.5217,3.5478,-1.4609
2665,0.5748,-9.4268,2.5675,3.4783,3.5478,-0.8348
2670,0.2682,-9.2352,2.2609,2.2957,3.687,-0.2087
2675,0.2682,-9.1969,2.2992,1.1826,3.6174,0.3478
2680,0.1533,-9.0819,2.2992,-0.0696,3.4783,0.9043
2685,0.2299,-8.9286,2.4525,-1.2522,3.2696,1.3217
2690,0.1916,-8.8137,2.3375,-2.9913,3.0609,1.5304
2695,0.2299,-8.8137,2.5675,-4.313,2.8522,1.5304
2700,0.2299,-8.8903,2.4908,-5.3565,2.2957,1.4609
2705,0.3066,-8.8137,2.4908,-6.1217,1.7391,1.2522
2710,0.4598,-8.9286,2.6058,-6.6087,1.5304,0.9043
2715,0.4982,-8.8903,2.4908,-7.4435,1.6,0.6261
2720,0.6131,-9.0436,2.3759,-8.4174,2.1565,0.4174
2725,0.6898,-9.1586,2.4525,-9.113,2.5739,0.2087
2730,0.6514,-9.3885,2.4525,-9.0435,2.9913,-0.2783
2735,0.7664,-9.5034,2.3759,-8.0696,3.2696,-0.6957
2740,0.6898,-9.5801,2.2226,-6.2609,3.2,-1.2522
2745,0.7281,-9.5034,2.1459,-4.8696,3.6174,-1.6696
2750,0.6898,-9.4651,2.2226,-3.8957,3.9652,-1.9478
2755,0.8047,-9.4268,2.3759,-3.3391,4.1739,-2.1565
2760,0.6898,-9.4268,2.4908,-2.9913,4.3826,-2.1565
2765,0.7664,-9.4268,2.3375,-2.713,4.1739,-1.8087
2770,0.6898,-9.2735,2.2992,-2.713,4.1739,-1.3913
2775,0.7664,-9.2735,2.2992,-3.0609,4.1739,-0.9043
2780,0.6898,-9.2735,2.2609,-3.2696,4.313,-0.5565
2785,0.5748,-9.2352,2.3759,-3.5478,4.2435,-0.1391
2790,0.3449,-8.8903,2.7207,-3.8261,4.1739,0.0696
2795,0.5365,-9.0053,2.4908,-4.0348,4.1043,0.4174
2800,0.4982,-8.8903,2.4908,-4.5217,3.8957,0.6261
2805,0.4215,-8.852,2.5675,-5.4261,3.4087,0.7652
2810,0.4598,-8.8903,2.4142,-6.8174,2.713,0.9043
2815,0.3832,-8.852,2.3375,-8.2783,2.713,0.9739
2820,0.4982,-8.9286,2.2992,-9.8783,2.713,1.0435
2825,0.4982,-9.0436,2.0693,-11.1304,2.8522,1.0435
2830,0.4598,-9.0053,2.1076,-12.1043,2.713,1.113
2835,0.3449,-9.2352,2.1076,-12.5913,2.5043,1.1826
2840,0.3832,-9.3502,2.1076,-12.6609,2.3652,1.113
2845,0.4598,-9.5801,2.0693,-12.313,2.4348,1.113
2850,0.3832,-9.4651,2.031,-11.9652,2.713,1.0435
2855,0.4215,-9.4651,1.8011,-11.4087,2.9913,0.7652
2860,0.4215,-9.695,1.9927,-10.7826,3.0609,0.7652
2865,0.4598,-9.7334,1.7627,-10.1565,3.0609,0.6957
2870,0.3832,-9.695,1.9927,-9.3913,3.0609,0.6261
2875,0.4215,-9.7717,1.9543,-8.5565,3.0609,0.6261
2880,0.5748,-9.7334,1.9927,-7.7913,3.0609,0.3478
2885,0.5748,-9.7717,1.9927,-6.8174,3.4087,0.2087
2890,0.4598,-9.6184,1.8777,-5.7739,3.687,0.0696
2895,0.4215,-9.4651,2.1076,-5.5652,4.0348,0.2783
2900,0.5365,-9.4268,1.916,-5.4261,3.8957,0.487
2905,0.5748,-9.3502,2.1459,-5.7043,3.687,0.6261
2910,0.4598,-9.3502,2.0693,-6.1913,3.6174,0.6957
2915,0.4215,-9.0819,1.9543,-6.7478,3.7565,0.7652
2920,0.4982,-9.1202,1.916,-7.4435,3.8261,0.6957
2925,0.4598,-9.2352,1.916,-8.0,3.7565,0.7652
2930,0.4215,-9.2735,1.8777,-8.487,3.6174,0.6957
2935,0.4215,-9.2735,1.916,-8.9043,3.4087,0.9043
2940,0.2682,-9.3118,1.9927,-9.113,3.4783,0.7652
2945,0.3449,-9.4268,1.916,-9.1826,3.6174,0.9739
2950,0.2682,-9.4651,1.8394,-8.9739,3.7565,0.9043
2955,0.4215,-9.5034,1.7627,-8.6261,3.7565,0.9043
2960,0.3832,-9.6184,1.7244,-8.0696,3.8261,0.8348
2965,0.3449,-9.5801,1.7627,-7.513,3.8957,0.8348
2970,0.3449,-9.6567,1.7244,-6.887,4.1043,0.8348
2975,0.4215,-9.7334,1.7627,-6.4696,4.313,0.9739
2980,0.4215,-9.6567,1.8777,-6.1217,4.1739,0.9043
2985,0.4982,-9.7334,1.7244,-5.7739,4.0348,0.9043
2990,0.4598,-9.5418,1.6478,-5.287,4.1043,0.7652
2995,0.5365,-9.5034,1.7627,-4.8696,4.313,0.7652
