timestamp,accX,accY,accZ,gyroX,gyroY,gyroZ
0,0.1916,-9.3118,2.5291,-1.4609,-0.3478,1.8783
5,0.2299,-9.3502,2.5291,-1.4609,-0.3478,1.8783
10,0.2682,-9.3118,2.4908,-1.6,-0.3478,1.7391
15,0.2682,-9.3502,2.7207,-1.6696,-0.2783,1.6
20,0.1916,-9.2352,2.7207,-1.7391,-0.3478,1.6
25,0.2299,-9.3118,2.6441,-1.7391,-0.2783,1.4609
30,0.5365,-9.4268,2.5675,-1.7391,-0.2087,1.3913
35,0.2682,-9.2735,2.6441,-1.8087,-0.0696,1.3217
40,0.2682,-9.2735,2.5675,-2.0174,0.1391,1.1826
45,0.2682,-9.3502,2.5291,-2.0174,0.2783,1.1826
50,0.3066,-9.3118,2.5291,-2.2261,0.3478,1.1826
55,0.3066,-9.2735,2.5675,-2.2261,0.3478,1.113
60,0.3832,-9.2735,2.5675,-2.2957,0.4174,1.0435
65,0.3066,-9.2735,2.5675,-2.3652,0.5565,1.0435
70,0.3449,-9.3502,2.5291,-2.5043,0.487,1.113
75,0.3066,-9.3502,2.7591,-2.5739,0.4174,0.9739
80,0.2682,-9.3502,2.7207,-2.7826,0.3478,0.9739
85,0.1533,-9.4651,2.8357,-2.7826,0.4174,0.9043
90,0.3066,-9.3502,2.5291,-2.8522,0.2783,0.9739
95,0.4598,-9.3118,2.6058,-3.0609,0.3478,1.0435
100,0.3832,-9.3118,2.7207,-3.1304,0.2783,0.9739
105,0.3449,-9.3502,2.6441,-3.1304,0.2783,0.8348
110,0.3066,-9.2735,2.4525,-3.2,0.3478,0.8348
115,0.3832,-9.3885,2.4908,-3.2,0.2783,0.7652
120,0.3832,-9.3885,2.6058,-3.0609,0.1391,0.6261
125,0.3449,-9.3118,2.4142,-2.9913,0.1391,0.5565
130,0.3832,-9.2352,2.6824,-2.7826,0.1391,0.6261
135,0.3066,-9.3502,2.6058,-2.7826,0.1391,0.487
140,0.1533,-9.3502,2.6441,-2.5739,0.2087,0.3478
145,0.3066,-9.3502,2.4142,-2.713,0.2087,0.3478
150,0.3832,-9.3118,2.6441,-2.7826,0.2783,0.3478
155,0.3449,-9.3502,2.4525,-2.9913,0.4174,0.2783
160,0.4982,-9.3885,2.4908,-3.0609,0.487,0.2783
165,0.2682,-9.2735,2.6441,-3.4087,0.5565,0.2783
170,0.2299,-9.3885,2.6824,-3.5478,0.6957,0.2087
175,0.4215,-9.3885,2.3759,-3.6174,0.6957,0.1391
180,0.2299,-9.3502,2.4525,-3.7565,0.9043,-0.0696
185,0.3449,-9.3502,2.4908,-3.6174,1.0435,0.0
190,0.2682,-9.1586,2.5675,-3.687,1.0435,-0.0696
195,0.3066,-9.4268,2.6058,-3.5478,1.113,-0.0696
200,0.3449,-9.4268,2.4908,-3.3391,1.1826,-0.0696
205,0.3066,-9.4268,2.5675,-3.2696,1.2522,-0.0696
210,0.3832,-9.3885,2.6058,-3.2,1.4609,-0.0696
215,0.4215,-9.4651,2.6058,-3.0609,1.5304,0.0696
220,0.3449,-9.4268,2.7591,-2.9913,1.6696,0.0
225,0.4215,-9.3118,2.6824,-2.713,1.6,-0.0696
230,0.2299,-9.2735,2.6441,-2.713,1.6,-0.0696
235,0.3449,-9.3502,2.4908,-2.6435,1.6696,-0.0696
240,0.3832,-9.3885,2.5291,-2.5739,1.8783,-0.2087
245,0.1916,-9.4268,2.4908,-2.5739,1.9478,-0.2087
250,0.3066,-9.3502,2.6058,-2.713,1.6696,-0.0696
255,0.2682,-9.4268,2.6058,-2.7826,1.6,-0.1391
260,0.2299,-9.2352,2.5675,-2.6435,1.8783,-0.4174
265,0.2682,-9.2735,2.5291,-2.713,1.8783,-0.487
270,0.2682,-9.3118,2.5675,-2.7826,1.6,-0.6261
275,0.1916,-9.3118,2.6441,-2.713,1.6,-0.6261
280,0.3449,-9.4651,2.6441,-2.9217,1.6696,-0.6957
285,0.2299,-9.3118,2.5675,-2.9913,1.6,-0.7652
290,0.4982,-9.3118,2.4908,-2.9913,1.4609,-0.7652
295,0.1533,-9.2735,2.4525,-2.9913,1.2522,-0.7652
300,0.2682,-9.3502,2.6058,-2.9217,1.1826,-0.8348
305,0.2682,-9.2352,2.6824,-2.9913,1.1826,-0.6957
310,0.2682,-9.2352,2.6058,-3.0609,1.0435,-0.5565
315,0.2299,-9.4268,2.5291,-2.9913,0.9043,-0.5565
320,0.3066,-9.3502,2.5675,-2.9913,0.8348,-0.487
325,0.2299,-9.2735,2.4142,-2.8522,0.7652,-0.487
330,0.3449,-9.3885,2.6824,-2.7826,0.6957,-0.3478
335,-0.0383,-9.2735,2.5675,-2.713,0.5565,-0.4174
340,0.4215,-9.3502,2.5675,-2.5739,0.4174,-0.487
345,0.2682,-9.3885,2.6058,-2.5043,0.2783,-0.487
350,0.3449,-9.2735,2.2226,-2.5043,0.2783,-0.487
355,0.2299,-9.3502,2.4908,-2.6435,0.1391,-0.6261
360,0.2682,-9.2735,2.4908,-2.713,0.2783,-0.6957
365,0.2682,-9.3885,2.6441,-2.5043,0.4174,-0.7652
370,0.3066,-9.3502,2.4908,-2.5739,0.4174,-0.6957
375,0.1916,-9.2735,2.6824,-2.4348,0.487,-0.6957
380,0.4215,-9.3885,2.4908,-2.2957,0.487,-0.7652
385,0.2682,-9.2735,2.4908,-2.2261,0.487,-0.6957
390,0.4215,-9.3885,2.6441,-2.0174,0.4174,-0.6261
395,0.1533,-9.2352,2.5291,-2.0174,0.3478,-0.5565
400,0.1916,-9.1586,2.4525,-2.0174,0.3478,-0.6261
405,0.4215,-9.2352,2.5675,-2.087,0.3478,-0.5565
410,0.4598,-9.3118,2.6441,-2.1565,0.3478,-0.5565
415,0.3449,-9.3502,2.7591,-2.1565,0.2783,-0.5565
420,0.4215,-9.3502,2.6824,-2.2261,0.4174,-0.487
425,0.3449,-9.2735,2.6441,-2.087,0.4174,-0.4174
430,0.2299,-9.3502,2.6058,-2.087,0.4174,-0.3478
435,0.2299,-9.3118,2.6058,-1.9478,0.3478,-0.4174
440,0.3066,-9.4268,2.5675,-1.8783,0.2087,-0.487
445,0.4215,-9.3118,2.6058,-1.8783,0.2783,-0.4174
450,0.3066,-9.3118,2.5675,-1.8783,0.2087,-0.4174
455,0.4598,-9.4268,2.7207,-1.8087,0.3478,-0.3478
460,0.3449,-9.3118,2.6441,-1.8087,0.2783,-0.4174
465,0.3832,-9.3118,2.6058,-1.8783,0.2783,-0.3478
470,0.3832,-9.2735,2.6441,-1.8087,0.4174,-0.4174
475,0.2299,-9.2352,2.5675,-1.8783,0.6261,-0.4174
480,0.3066,-9.3118,2.6824,-2.0174,0.6957,-0.2783
485,0.3449,-9.3502,2.4525,-2.087,0.8348,-0.2783
490,0.3066,-9.3502,2.5675,-2.1565,0.8348,-0.3478
495,0.4215,-9.3118,2.4142,-2.1565,0.8348,-0.2783
500,0.3066,-9.2352,2.6441,-2.2957,0.8348,-0.3478
505,0.2682,-9.4268,2.4525,-2.2261,0.8348,-0.3478
510,0.4215,-9.5034,2.4525,-2.2957,0.7652,-0.487
515,0.3066,-9.3885,2.7207,-2.2261,0.8348,-0.3478
520,0.4215,-9.1586,2.4908,-2.1565,0.9043,-0.4174
525,0.3449,-9.3502,2.6824,-2.0174,0.8348,-0.4174
530,0.3832,-9.3118,2.5675,-2.0174,1.0435,-0.487
535,0.3832,-9.2352,2.7591,-1.9478,1.113,-0.487
540,0.3832,-9.3502,2.7974,-1.9478,1.0435,-0.4174
545,0.4215,-9.4268,2.6824,-1.9478,1.113,-0.4174
550,0.3832,-9.3502,2.7974,-1.9478,1.113,-0.3478
555,0.3066,-9.2352,2.7591,-1.8783,1.2522,-0.3478
560,0.3832,-9.3118,2.7591,-2.0174,1.2522,-0.2087
565,0.3832,-9.3502,2.6824,-2.0174,1.2522,-0.2087
570,0.3066,-9.2352,2.5291,-2.0174,1.3217,-0.3478
575,0.2299,-9.3502,2.6441,-2.087,1.3913,-0.2087
580,0.2682,-9.4268,2.6058,-2.087,1.4609,-0.2087
585,0.3832,-9.3118,2.6441,-2.087,1.5304,-0.2087
590,0.3066,-9.1586,2.6441,-2.087,1.6,-0.2087
595,0.3449,-9.1969,2.6824,-2.1565,1.6,-0.1391
600,0.3449,-9.2352,2.7207,-2.2261,1.6696,-0.2087
605,0.4982,-9.4268,2.7207,-2.2261,1.6696,-0.1391
610,0.3449,-9.3118,2.7207,-2.3652,1.7391,-0.1391
615,0.4598,-9.2735,2.6058,-2.3652,1.8087,-0.1391
620,0.3066,-9.2352,2.6824,-2.5043,1.9478,-0.0696
625,0.3449,-9.3885,2.5675,-2.4348,1.9478,-0.1391
630,0.4215,-9.2735,2.5675,-2.5739,1.9478,-0.1391
635,0.3066,-9.3885,2.6441,-2.6435,2.0174,0.0696
640,0.3449,-9.3502,2.7207,-2.5739,2.087,0.0696
645,0.2299,-9.3118,2.7207,-2.5739,2.087,0.2087
650,0.3066,-9.3502,2.6058,-2.6435,2.0174,0.3478
655,0.3449,-9.3118,2.4525,-2.5043,1.8087,0.4174
660,0.2682,-9.2735,2.5291,-2.4348,1.6696,0.4174
665,0.1916,-9.3118,2.5675,-2.5043,1.5304,0.6261
670,0.3449,-9.2735,2.6058,-2.4348,1.6,0.6957
675,0.3449,-9.3118,2.5675,-2.3652,1.7391,0.7652
680,0.3449,-9.3502,2.6058,-2.1565,1.7391,0.6261
685,0.3449,-9.3502,2.6824,-2.087,1.6696,0.6261
690,0.3832,-9.2352,2.6441,-2.1565,1.5304,0.6261
695,0.2682,-9.3502,2.6824,-2.2957,1.5304,0.6261
700,0.3066,-9.1586,2.6824,-2.4348,1.6,0.5565
705,0.2682,-9.2352,2.6058,-2.5739,1.6696,0.4174
710,0.3449,-9.2735,2.5291,-2.6435,1.7391,0.2783
715,0.3066,-9.2735,2.6058,-2.7826,1.6696,0.2087
720,0.2299,-9.2735,2.6824,-2.7826,1.6696,0.0696
725,0.4215,-9.3118,2.7207,-3.0609,1.6,0.0696
730,0.4598,-9.3118,2.6441,-3.2,1.4609,0.0696
735,0.3449,-9.4268,2.3759,-3.3391,1.4609,0.1391
740,0.2299,-9.3502,2.0693,-3.3391,1.4609,0.2087
745,0.2682,-9.3118,2.6824,-3.4087,1.4609,0.2783
750,0.3066,-9.2352,2.7591,-3.4783,1.5304,0.2783
755,0.3066,-9.3118,2.9123,-3.5478,1.3913,0.2783
760,0.1533,-9.3118,2.5675,-3.6174,1.3913,0.2783
765,0.2299,-9.2352,2.6058,-3.6174,1.4609,0.3478
770,0.3066,-9.2735,2.6441,-3.5478,1.4609,0.3478
775,0.2682,-9.3502,2.7207,-3.687,1.4609,0.3478
780,0.3066,-9.2352,2.8357,-3.4087,1.6,0.2783
785,0.2682,-9.2352,2.9123,-3.2,1.5304,0.4174
790,0.3066,-9.3502,2.6441,-3.1304,1.3913,0.3478
795,0.3066,-9.3885,2.6441,-3.2,1.3913,0.2783
800,0.1533,-9.3118,2.6441,-3.2,1.2522,0.2087
805,0.3066,-9.1969,2.6441,-3.2,1.2522,0.2783
810,0.2682,-9.2352,2.7591,-3.2,1.3913,0.1391
815,0.3449,-9.3885,2.6441,-3.3391,1.3913,0.0696
820,0.3449,-9.3885,2.6441,-3.3391,1.2522,0.0696
825,0.3449,-9.3885,2.6824,-3.2696,1.2522,0.0
830,0.3066,-9.3118,2.6058,-3.3391,1.113,0.0696
835,0.3449,-9.3118,2.6058,-3.4783,0.9043,0.0
840,0.3066,-9.2735,2.7207,-3.3391,0.9043,0.0
845,0.4598,-9.2735,2.7974,-3.3391,0.9043,0.0
850,0.2682,-9.2735,2.6824,-3.4087,0.8348,0.0
855,0.3832,-9.2735,2.6824,-3.4087,0.9043,-0.0696
860,0.3066,-9.3118,2.5675,-3.5478,0.7652,-0.0696
865,0.2682,-9.2735,2.6441,-3.6174,0.6957,-0.1391
870,0.3832,-9.3502,2.5291,-3.687,0.6957,-0.2087
875,0.3066,-9.1969,2.7207,-3.7565,0.7652,-0.2087
880,0.2682,-9.2735,2.6441,-3.8957,0.9043,-0.3478
885,0.2299,-9.2352,2.7974,-3.9652,0.9043,-0.2783
890,0.2299,-9.4651,2.4525,-3.8957,0.9739,-0.2783
895,0.1916,-9.2735,2.6441,-3.7565,1.0435,-0.2783
900,0.1916,-9.3885,2.6058,-3.7565,1.0435,-0.2783
905,0.3066,-9.4268,2.6824,-3.687,1.0435,-0.2087
910,0.3449,-9.3885,2.7207,-3.7565,1.0435,-0.3478
915,0.3066,-9.3118,2.5675,-3.6174,0.9739,-0.3478
920,0.3066,-9.3502,2.5291,-3.5478,0.9043,-0.3478
925,0.3066,-9.2735,2.6824,-3.4783,0.9739,-0.2783
930,0.3066,-9.3118,2.6441,-3.4087,0.8348,-0.2783
935,0.3066,-9.2735,2.6058,-3.4087,0.8348,-0.2087
940,0.2682,-9.2352,2.6824,-3.4783,0.7652,-0.1391
945,0.3066,-9.3118,2.874,-3.2,0.7652,-0.1391
950,0.3066,-9.2735,2.8357,-3.2,0.9043,-0.2087
955,0.2299,-9.2735,2.3375,-3.2696,1.0435,-0.2087
960,0.3449,-9.2735,2.6824,-3.2696,1.0435,-0.2087
965,0.3832,-9.3885,2.6824,-3.2696,1.0435,-0.2783
970,0.2682,-9.2352,2.6058,-3.2696,1.113,-0.2087
975,0.2682,-9.1969,2.7591,-3.3391,1.113,-0.3478
980,0.2682,-9.2735,2.6441,-3.4783,1.113,-0.4174
985,0.2299,-9.2735,2.6441,-3.4783,1.0435,-0.487
990,0.3832,-9.3502,2.5291,-3.5478,0.9739,-0.487
995,0.4215,-9.3502,2.6058,-3.687,1.0435,-0.4174
1000,0.4215,-9.2735,2.6824,-3.687,1.1826,-0.4174
1005,0.4215,-9.2352,2.4142,-3.8261,1.1826,-0.487
1010,0.3449,-9.2735,2.4908,-3.7565,1.1826,-0.4174
1015,0.1533,-9.3885,2.5675,-3.687,1.0435,-0.3478
1020,0.3449,-9.3118,2.6058,-3.5478,1.113,-0.4174
1025,0.3832,-9.3885,2.5675,-3.5478,1.113,-0.3478
1030,0.2682,-9.3502,2.6441,-3.4087,1.113,-0.2783
1035,0.3449,-9.3885,2.5675,-3.2696,1.1826,-0.2087
1040,0.1533,-9.1586,2.7207,-3.2,1.1826,-0.2087
1045,0.3449,-9.3885,2.7207,-3.0609,1.1826,-0.2783
1050,0.3066,-9.3502,2.5291,-2.9217,1.1826,-0.2087
1055,0.2299,-9.3885,2.6441,-2.7826,1.3217,-0.2783
1060,0.2682,-9.4268,2.8357,-2.8522,1.3217,-0.2783
1065,0.3449,-9.3885,2.7591,-2.7826,1.2522,-0.3478
1070,0.3066,-9.3885,2.6058,-2.7826,1.3217,-0.3478
1075,0.3449,-9.3885,2.6441,-2.713,1.2522,-0.4174
1080,0.3449,-9.3502,2.6824,-2.7826,1.2522,-0.487
1085,0.2299,-9.2735,2.6824,-2.713,1.113,-0.487
1090,0.2299,-9.3118,2.5291,-2.713,1.113,-0.487
1095,0.2299,-9.2735,2.6441,-2.7826,1.0435,-0.6261
1100,0.2299,-9.3502,2.6058,-2.5739,0.9739,-0.6261
1105,0.3066,-9.2352,2.6824,-2.6435,0.9739,-0.6957
1110,0.1533,-9.3885,2.7591,-2.5739,0.9739,-0.8348
1115,0.3449,-9.3118,2.6441,-2.4348,1.0435,-0.8348
1120,0.3066,-9.0819,2.6441,-2.3652,1.1826,-0.9739
1125,0.2682,-9.3118,2.8357,-2.2957,1.1826,-1.0435
1130,0.3832,-9.2735,2.6824,-2.4348,1.2522,-1.113
1135,0.2299,-9.2735,2.6058,-2.5739,1.3913,-1.1826
1140,0.1916,-9.3118,2.6441,-2.7826,1.5304,-1.0435
1145,0.3066,-9.3502,2.6824,-2.8522,1.6,-1.3217
1150,0.4215,-9.4651,2.6058,-3.2,1.8783,-1.2522
1155,0.3449,-9.3885,2.4908,-3.2696,1.8783,-1.2522
1160,0.3832,-9.2352,2.7591,-3.4783,1.9478,-1.1826
1165,0.3449,-9.3118,2.7974,-3.5478,1.9478,-1.1826
1170,0.4215,-9.4268,2.6441,-3.6174,2.087,-1.1826
1175,0.4598,-9.4268,2.6058,-3.6174,2.1565,-1.113
1180,0.4598,-9.3502,2.5675,-3.5478,2.087,-0.9043
1185,0.4215,-9.3885,2.6441,-3.4783,2.1565,-0.8348
1190,0.3832,-9.3502,2.6824,-3.3391,2.2261,-0.7652
1195,0.3832,-9.3118,2.5675,-3.1304,2.0174,-0.6261
1200,0.3832,-9.3502,2.6824,-2.9913,2.0174,-0.487
1205,0.3832,-9.2735,2.7974,-3.0609,1.9478,-0.4174
1210,0.3832,-9.2735,2.5675,-2.9913,1.8783,-0.3478
1215,0.2682,-9.3502,2.5291,-3.1304,1.6696,-0.2783
1220,0.2682,-9.2352,2.4525,-3.1304,1.6,-0.2087
1225,0.1916,-9.1586,2.6441,-3.2,1.5304,-0.2783
1230,0.3066,-9.3118,2.6824,-3.1304,1.3913,-0.3478
1235,0.3449,-9.4268,2.5291,-3.0609,1.3913,-0.4174
1240,0.3066,-9.3118,2.5675,-3.0609,1.3217,-0.3478
1245,0.3066,-9.3885,2.5675,-2.9217,1.3217,-0.4174
1250,0.2299,-9.3118,2.6441,-2.9217,1.3913,-0.2783
1255,0.3066,-9.3502,2.6441,-2.9217,1.3217,-0.2783
1260,0.3832,-9.4268,2.6058,-2.9217,1.3913,-0.2087
1265,0.2682,-9.2735,2.6058,-2.9217,1.4609,-0.1391
1270,0.2682,-9.1969,2.6441,-2.8522,1.5304,-0.0696
1275,0.2682,-9.4268,2.5675,-2.7826,1.4609,-0.0696
1280,0.1916,-9.2735,2.4142,-2.7826,1.3217,-0.0696
1285,0.3066,-9.4651,2.6058,-2.8522,1.3913,-0.0696
1290,0.3832,-9.3118,2.5675,-2.9913,1.3913,-0.0696
1295,0.2299,-9.2735,2.6441,-2.8522,1.3913,-0.2087
1300,0.3449,-9.2735,2.5675,-2.6435,1.3217,-0.2783
1305,0.3066,-9.3502,2.6824,-2.6435,1.113,-0.2783
1310,0.2682,-9.3502,2.4142,-2.4348,1.2522,-0.3478
1315,0.3066,-9.1969,2.6058,-2.3652,1.1826,-0.4174
1320,0.1533,-9.2735,2.4525,-2.1565,1.1826,-0.487
1325,0.4215,-9.3502,2.6058,-2.087,1.113,-0.5565
1330,0.2682,-9.3502,2.6824,-1.8783,1.113,-0.6261
1335,0.3832,-9.4268,2.1843,-1.7391,1.1826,-0.6957
1340,0.2682,-9.3118,2.7207,-1.7391,1.113,-0.7652
1345,0.3066,-9.3502,2.6058,-1.6,1.1826,-0.8348
1350,0.115,-9.2352,2.5291,-1.7391,1.2522,-0.9043
1355,0.2299,-9.2735,2.6824,-1.8087,1.3913,-0.9043
1360,0.2299,-9.2735,2.5675,-1.9478,1.4609,-0.7652
1365,0.3449,-9.3502,2.6058,-2.0174,1.5304,-0.9043
1370,0.2682,-9.3502,2.5675,-2.087,1.4609,-0.9739
1375,0.2299,-9.3502,2.6058,-2.1565,1.4609,-0.9043
1380,0.2682,-9.2735,2.7207,-2.1565,1.6696,-1.0435
1385,0.3066,-9.4651,2.7207,-2.087,1.7391,-0.9739
1390,0.2682,-9.2735,2.7974,-2.0174,1.6696,-0.9043
1395,0.3832,-9.2735,2.4525,-1.9478,1.4609,-1.0435
1400,0.2682,-9.3118,2.6824,-1.9478,1.3217,-0.9739
1405,0.3832,-9.2352,2.7207,-1.9478,1.1826,-0.9739
1410,0.3832,-9.3502,2.6441,-1.9478,1.2522,-0.9043
1415,0.2299,-9.3118,2.8357,-1.9478,1.1826,-0.7652
1420,0.3066,-9.3502,2.6058,-1.9478,1.2522,-0.8348
1425,0.4598,-9.3502,2.6824,-1.8783,1.1826,-0.7652
1430,0.3832,-9.3885,2.7591,-1.8783,1.3217,-0.7652
1435,0.3449,-9.2735,2.7591,-1.8783,1.3913,-0.7652
1440,0.2682,-9.1969,2.7974,-1.9478,1.6,-0.6957
1445,0.2299,-9.1969,2.5675,-1.9478,1.6,-0.7652
1450,0.3449,-9.3118,2.7207,-1.9478,1.8087,-0.7652
1455,0.4598,-9.3502,2.7591,-2.1565,1.9478,-0.6261
1460,0.2299,-9.2735,2.5675,-2.2957,1.9478,-0.6261
1465,0.3832,-9.3118,2.7591,-2.2957,2.1565,-0.6261
1470,0.3066,-9.2735,2.6824,-2.1565,2.087,-0.487
1475,0.2682,-9.2735,2.6824,-2.1565,2.087,-0.5565
1480,0.2682,-9.3502,2.6441,-2.1565,2.0174,-0.487
1485,0.3832,-9.2735,2.7207,-2.2261,1.9478,-0.4174
1490,0.3066,-9.3502,2.7974,-2.2261,1.7391,-0.4174
1495,0.3832,-9.3885,2.6441,-2.3652,1.5304,-0.3478
1500,0.5365,-9.2352,2.8357,-2.4348,1.3913,-0.4174
1505,0.1533,-9.1969,2.7207,-2.5739,1.2522,-0.3478
1510,0.3449,-9.2735,2.7207,-2.6435,1.2522,-0.3478
1515,0.2682,-9.2735,2.8357,-2.5043,1.0435,-0.3478
1520,0.2682,-9.2735,2.7591,-2.6435,0.9739,-0.3478
1525,0.3449,-9.2735,2.7207,-2.713,0.8348,-0.2783
1530,0.3066,-9.2735,2.7207,-2.6435,0.6957,-0.2087
1535,0.3449,-9.2352,2.8357,-2.5739,0.6957,-0.2087
1540,0.2682,-9.2352,2.7591,-2.5043,0.7652,-0.1391
1545,0.3066,-9.3118,2.7207,-2.5043,0.7652,-0.1391
1550,0.2682,-9.3118,2.6824,-2.4348,0.6957,0.0
1555,0.0383,-9.1969,2.6441,-2.4348,0.7652,-0.0696
1560,0.3449,-9.2735,2.6824,-2.5739,0.6957,-0.2783
1565,0.3449,-9.1202,2.6441,-2.8522,0.8348,-0.2783
1570,0.2299,-9.2352,2.8357,-2.8522,0.9043,-0.2087
1575,0.2682,-9.3118,2.7591,-2.9913,0.9739,-0.2087
1580,0.2299,-9.2735,2.874,-3.0609,0.9739,-0.2783
1585,0.3066,-9.2735,2.6824,-3.0609,1.0435,-0.2783
1590,0.2299,-9.1586,2.5675,-3.2,1.1826,-0.3478
1595,0.2299,-9.3118,2.7207,-3.2696,1.113,-0.487
1600,0.2682,-9.3885,2.8357,-3.3391,1.113,-0.487
1605,0.1533,-9.2352,2.6824,-3.3391,1.113,-0.487
1610,0.2682,-9.1969,2.3759,-3.2696,1.113,-0.5565
1615,0.1916,-9.3502,2.6824,-3.2696,1.2522,-0.5565
1620,0.2299,-9.3502,2.7207,-3.1304,1.3217,-0.487
1625,0.2299,-9.3118,2.6824,-3.1304,1.3217,-0.487
1630,0.2682,-9.3885,2.7591,-2.9217,1.3913,-0.4174
1635,0.3066,-9.2735,2.6441,-2.7826,1.4609,-0.4174
1640,0.2299,-9.3118,2.6824,-2.713,1.5304,-0.4174
1645,0.2299,-9.3502,2.6441,-2.7826,1.5304,-0.487
1650,0.3832,-9.3118,2.7591,-2.6435,1.4609,-0.4174
1655,0.2682,-9.3885,2.5675,-2.713,1.4609,-0.487
1660,0.4215,-9.3118,2.5291,-2.6435,1.4609,-0.4174
1665,0.1533,-9.2735,2.7207,-2.7826,1.3913,-0.4174
1670,0.1916,-9.2352,2.6441,-2.713,1.3913,-0.5565
1675,0.3066,-9.3118,2.6058,-2.6435,1.3217,-0.4174
1680,0.3449,-9.2735,2.7207,-2.7826,1.3217,-0.487
1685,0.3832,-9.2735,2.4908,-2.9913,1.3217,-0.6261
1690,0.2299,-9.2735,2.5675,-3.0609,1.3217,-0.6261
1695,0.2299,-9.3118,2.4908,-3.0609,1.3217,-0.6261
1700,0.2682,-9.2735,2.6824,-3.0609,1.1826,-0.6957
1705,0.2682,-9.3885,2.6824,-2.9913,1.1826,-0.5565
1710,0.2682,-9.1202,2.6824,-2.9913,1.2522,-0.5565
1715,0.2299,-9.3885,2.6824,-2.7826,1.2522,-0.4174
1720,0.3832,-9.3502,2.6824,-2.6435,1.3217,-0.4174
1725,0.3449,-9.2352,2.7207,-2.5739,1.3913,-0.4174
1730,0.3066,-9.3118,2.7974,-2.5043,1.3217,-0.3478
1735,0.3449,-9.2735,2.6824,-2.5739,1.3217,-0.3478
1740,0.3449,-9.3118,2.7974,-2.5739,1.4609,-0.2783
1745,0.3449,-9.3502,2.8357,-2.6435,1.5304,-0.3478
1750,0.3449,-9.2735,2.6824,-2.6435,1.3913,-0.2087
1755,0.3449,-9.3118,2.7591,-2.6435,1.4609,-0.2783
1760,0.2682,-9.3118,2.5291,-2.6435,1.3913,-0.2783
1765,0.2682,-9.2735,2.6441,-2.7826,1.3217,-0.2783
1770,0.115,-9.3885,2.7591,-2.713,1.3217,-0.2783
1775,0.2299,-9.3118,2.6441,-2.7826,1.2522,-0.3478
1780,0.3066,-9.3118,2.874,-2.7826,1.113,-0.3478
1785,0.2682,-9.3118,2.6824,-2.713,1.113,-0.4174
1790,0.3066,-9.3502,2.8357,-2.6435,0.9739,-0.4174
1795,0.2299,-9.2352,2.7591,-2.6435,0.9739,-0.487
1800,0.3449,-9.2735,2.7207,-2.6435,1.0435,-0.3478
1805,0.1916,-9.1586,2.7591,-2.5043,1.1826,-0.3478
1810,0.1916,-9.3502,2.6058,-2.5043,1.1826,-0.2783
1815,0.2299,-9.2735,2.874,-2.5739,1.2522,-0.3478
1820,0.1916,-9.3885,2.6058,-2.6435,1.3217,-0.4174
1825,0.3832,-9.3118,2.7591,-2.6435,1.3913,-0.4174
1830,0.2299,-9.1969,2.7591,-2.7826,1.2522,-0.4174
1835,0.2299,-9.2735,2.7207,-2.9217,1.2522,-0.487
1840,0.3066,-9.3885,2.7591,-2.9913,1.3217,-0.487
1845,0.3449,-9.3118,2.7591,-3.1304,1.2522,-0.487
1850,0.2682,-9.3118,2.6441,-3.1304,1.2522,-0.4174
1855,0.3449,-9.3885,2.7591,-3.1304,1.113,-0.5565
1860,0.4215,-9.1969,2.874,-3.2696,1.1826,-0.487
1865,0.2682,-9.2352,2.7591,-3.4087,0.9739,-0.5565
1870,0.4598,-9.2735,2.6824,-3.4783,1.113,-0.487
1875,0.3832,-9.2735,2.7974,-3.4087,1.113,-0.487
1880,0.2682,-9.3118,2.9123,-3.2696,1.113,-0.487
1885,0.2682,-9.3502,2.7207,-3.2,1.0435,-0.487
1890,0.3832,-9.3502,2.7591,-3.2,1.0435,-0.487
1895,0.3066,-9.3118,2.6441,-3.0609,1.0435,-0.4174
1900,0.2682,-9.3502,2.7207,-2.9217,1.0435,-0.487
1905,0.3449,-9.3118,2.7591,-2.9913,1.0435,-0.487
1910,0.3449,-9.2735,2.6824,-2.9913,1.113,-0.4174
1915,0.4982,-9.3118,2.7591,-2.9217,1.113,-0.4174
1920,0.3832,-9.3118,2.7207,-2.9217,1.113,-0.487
1925,0.3832,-9.2735,2.5675,-2.8522,1.2522,-0.5565
1930,0.2299,-9.2735,2.6824,-2.7826,1.2522,-0.5565
1935,0.4598,-9.5034,2.9507,-2.9217,1.1826,-0.487
1940,0.3066,-9.3118,2.7207,-2.8522,1.2522,-0.6261
1945,0.3066,-9.1969,2.7591,-2.8522,1.1826,-0.6261
1950,0.3832,-9.3118,2.6824,-2.9217,1.1826,-0.5565
1955,0.2682,-9.2735,2.7207,-2.8522,1.2522,-0.5565
1960,0.3449,-9.3502,2.6824,-2.9913,1.3217,-0.4174
1965,0.3449,-9.3118,2.7207,-2.9217,1.3217,-0.5565
1970,0.1533,-9.2352,2.6824,-2.9913,1.2522,-0.487
1975,0.4215,-9.4268,2.8357,-3.0609,1.1826,-0.4174
1980,0.3066,-9.2735,2.7974,-2.9913,1.3913,-0.4174
1985,0.3449,-9.2735,2.7974,-3.0609,1.3217,-0.3478
1990,0.3449,-9.3502,2.6441,-3.1304,1.2522,-0.487
1995,0.2682,-9.3885,2.6824,-3.2,1.1826,-0.487
2000,0.3066,-9.3885,2.7591,-3.0609,1.113,-0.487
2005,0.2682,-9.2735,2.6058,-2.9913,1.113,-0.487
2010,0.3832,-9.3502,2.6824,-3.0609,1.2522,-0.5565
2015,0.3066,-9.3885,2.8357,-2.9913,1.1826,-0.6261
2020,0.3832,-9.3502,2.6058,-3.0609,1.2522,-0.5565
2025,0.3449,-9.2352,2.8357,-2.9217,1.2522,-0.6261
2030,0.3066,-9.3885,2.7974,-2.9217,1.2522,-0.5565
2035,0.2299,-9.1969,2.5675,-2.9217,1.3217,-0.5565
2040,0.3066,-9.3885,2.6441,-2.8522,1.4609,-0.5565
2045,0.2682,-9.3118,2.6058,-2.7826,1.4609,-0.5565
2050,0.2682,-9.2735,2.7591,-2.9217,1.5304,-0.5565
2055,0.3449,-9.2352,2.7591,-2.7826,1.4609,-0.487
2060,0.4215,-9.3885,2.6824,-2.713,1.5304,-0.487
2065,0.3449,-9.3502,2.5291,-2.713,1.3217,-0.6261
2070,0.3066,-9.3118,2.7207,-2.6435,1.2522,-0.5565
2075,0.2682,-9.3502,2.7591,-2.6435,1.3913,-0.6957
2080,0.3066,-9.3118,2.6058,-2.713,1.3913,-0.6261
2085,0.4215,-9.2352,2.6824,-2.713,1.3217,-0.5565
2090,0.2299,-9.3118,2.6824,-2.713,1.3217,-0.6957
2095,0.4215,-9.3118,2.6824,-2.7826,1.1826,-0.5565
2100,0.3066,-9.1969,2.9507,-2.8522,1.2522,-0.6957
2105,0.2682,-9.2352,2.7591,-2.7826,1.2522,-0.6261
2110,0.4215,-9.3885,2.8357,-2.8522,1.1826,-0.6261
2115,0.4215,-9.3885,2.6824,-2.6435,1.1826,-0.6261
2120,0.2682,-9.2352,2.9123,-2.6435,1.1826,-0.5565
2125,0.3449,-9.2735,2.6441,-2.5739,1.1826,-0.6261
2130,0.3066,-9.3118,2.7591,-2.5739,1.1826,-0.5565
2135,0.4215,-9.2735,2.7207,-2.5739,1.1826,-0.5565
2140,0.3449,-9.4268,2.6824,-2.5739,1.3217,-0.487
2145,0.3449,-9.2352,2.7207,-2.6435,1.3217,-0.5565
2150,0.2682,-9.3885,2.7591,-2.9217,1.3217,-0.5565
2155,0.2682,-9.1586,2.7974,-2.7826,1.3217,-0.5565
2160,0.3449,-9.3118,2.6824,-2.8522,1.2522,-0.6261
2165,0.3832,-9.2352,2.6824,-2.8522,1.3217,-0.5565
2170,0.2682,-9.2352,2.7207,-2.8522,1.2522,-0.487
2175,0.1916,-9.3118,2.6058,-2.8522,1.3217,-0.487
2180,0.2299,-9.2735,2.6824,-2.8522,1.1826,-0.487
2185,0.3066,-9.2352,2.7207,-2.9217,1.1826,-0.487
2190,0.3832,-9.2352,2.7974,-2.8522,1.1826,-0.487
2195,0.3066,-9.2735,2.6441,-2.7826,1.2522,-0.5565
2200,0.2299,-9.2735,2.7974,-2.7826,1.2522,-0.5565
2205,0.3832,-9.1969,2.7974,-2.8522,1.2522,-0.487
2210,0.3449,-9.4651,2.7207,-2.7826,1.3217,-0.487
2215,0.3832,-9.4268,2.6441,-2.8522,1.2522,-0.487
2220,0.3449,-9.3502,2.6058,-2.8522,1.2522,-0.4174
2225,0.3066,-9.4268,2.7207,-2.8522,1.1826,-0.4174
2230,0.3449,-9.3502,2.6441,-2.8522,1.3217,-0.4174
2235,0.3449,-9.2352,2.7207,-2.7826,1.3217,-0.487
2240,0.2682,-9.3118,2.8357,-2.6435,1.1826,-0.487
2245,0.3449,-9.3118,2.5291,-2.7826,1.1826,-0.3478
2250,0.2682,-9.2352,2.6441,-2.7826,1.113,-0.4174
2255,0.2682,-9.2352,2.874,-2.7826,1.1826,-0.3478
2260,0.0383,-9.1586,2.6058,-2.8522,1.3913,-0.4174
2265,0.2682,-9.3885,2.6058,-2.9217,1.4609,-0.3478
2270,0.3449,-9.2735,2.6441,-2.9217,1.3217,-0.4174
2275,0.1916,-9.2735,2.874,-3.2,1.3217,-0.4174
2280,0.4598,-9.3885,2.6441,-3.2696,1.3913,-0.4174
2285,0.4215,-9.4268,2.4908,-3.4087,1.3913,-0.4174
2290,0.3449,-9.3885,2.7207,-3.2696,1.3913,-0.4174
2295,0.2682,-9.1969,2.6824,-3.4087,1.3913,-0.4174
2300,0.4982,-9.3885,2.6058,-3.3391,1.3217,-0.487
2305,0.2682,-9.3502,2.6824,-3.4783,1.3217,-0.4174
2310,0.4598,-9.3885,2.4908,-3.6174,1.3217,-0.4174
2315,0.3832,-9.3885,2.6441,-3.6174,1.3217,-0.5565
2320,0.2682,-9.3118,2.8357,-3.4087,1.3913,-0.5565
2325,0.2682,-9.3885,2.5291,-3.3391,1.4609,-0.5565
2330,0.3449,-9.4268,2.7591,-3.0609,1.6,-0.487
2335,0.3449,-9.3885,2.4908,-2.9217,1.5304,-0.3478
2340,0.3066,-9.3502,2.5291,-2.5043,1.4609,-0.487
2345,0.2299,-9.2352,2.874,-2.3652,1.4609,-0.5565
2350,0.3066,-9.4268,2.7974,-2.1565,1.3913,-0.5565
2355,0.4598,-9.5034,2.5291,-2.0174,1.3217,-0.6261
2360,0.3449,-9.3502,2.6824,-1.8783,1.2522,-0.6261
2365,0.3832,-9.3118,2.4142,-1.8087,1.113,-0.6261
2370,0.4215,-9.3502,2.6824,-1.7391,1.113,-0.6957
2375,0.3449,-9.3502,2.7207,-1.6,0.9739,-0.7652
2380,0.2682,-9.3118,2.5291,-1.6,0.8348,-0.7652
2385,0.2682,-9.3502,2.6058,-1.6,0.8348,-0.7652
2390,0.2682,-9.2735,2.7591,-1.5304,0.8348,-0.7652
2395,0.3449,-9.3502,2.6441,-1.3913,0.9043,-0.7652
2400,0.3066,-9.2352,2.6824,-1.3913,0.9739,-0.7652
2405,0.3449,-9.2352,2.5675,-1.2522,1.2522,-0.6261
2410,0.3449,-9.3885,2.6824,-1.1826,1.3913,-0.5565
2415,0.4982,-9.2352,2.6441,-1.0435,1.5304,-0.6261
2420,0.3449,-9.1586,2.8357,-1.0435,1.7391,-0.5565
2425,0.2299,-9.1969,2.6824,-0.9739,1.8087,-0.487
2430,0.3832,-9.1969,2.7591,-1.0435,1.7391,-0.6261
2435,0.3449,-9.0436,2.874,-1.113,1.6696,-0.487
2440,0.3832,-9.1202,2.7974,-1.1826,1.6696,-0.6261
2445,0.3066,-9.0819,2.9507,-1.3217,1.7391,-0.6261
2450,0.3449,-9.0053,2.989,-1.6696,1.7391,-0.5565
2455,0.4215,-8.967,2.9123,-1.8087,1.8087,-0.5565
2460,0.3832,-8.852,3.0656,-2.1565,1.8783,-0.6261
2465,0.3449,-8.967,3.0656,-2.8522,1.8783,-0.6957
2470,0.2682,-8.9286,2.989,-3.5478,1.6696,-0.7652
2475,0.3449,-8.9286,3.0273,-4.4522,1.6696,-0.9043
2480,0.2682,-9.0053,2.9123,-5.287,1.6696,-0.9739
2485,0.1916,-8.967,2.989,-6.1217,1.7391,-0.9739
2490,0.2682,-8.852,3.0273,-6.887,1.8087,-1.113
2495,0.3066,-8.8903,3.1423,-7.7913,1.9478,-1.113
2500,0.3832,-8.8903,2.989,-8.4174,2.087,-1.2522
2505,0.2299,-8.9286,2.9123,-9.2522,2.2957,-1.2522
2510,0.2299,-8.967,3.0273,-10.087,2.3652,-1.3217
2515,0.2299,-8.9286,2.989,-10.8522,2.4348,-1.3913
2520,0.5365,-8.967,3.1039,-11.7565,2.6435,-1.5304
2525,0.2682,-9.0053,2.9507,-12.8,2.713,-1.6
2530,0.3449,-8.852,2.7974,-13.913,2.9913,-1.7391
2535,0.115,-9.1969,2.874,-14.9565,3.2,-1.7391
2540,0.3066,-8.967,3.1806,-16.0696,3.2,-1.8783
2545,0.3832,-9.1202,3.0273,-17.0435,3.2696,-1.8783
2550,0.2682,-9.0436,3.0273,-17.9478,3.2,-2.0174
2555,0.3066,-9.0436,2.989,-18.9217,3.2,-1.9478
2560,0.3832,-9.1969,2.7974,-19.8957,3.2,-2.087
2565,0.3832,-9.0819,2.6824,-20.8,3.1304,-1.9478
2570,0.3066,-9.2352,2.9507,-21.913,3.2696,-1.8783
2575,0.3832,-9.0819,2.6824,-22.7478,3.4087,-1.8087
2580,0.3066,-9.2352,2.7207,-23.7217,3.5478,-1.8087
2585,0.3832,-9.2352,2.6441,-24.6261,3.6174,-1.6
2590,0.4215,-9.2735,2.3375,-25.8087,3.7565,-1.4609
2595,0.4598,-9.2352,2.4908,-27.0609,3.8957,-1.4609
2600,0.4215,-9.2352,2.5291,-28.6609,3.9652,-1.3913
2605,0.3449,-9.2735,2.4142,-30.3304,3.9652,-1.1826
2610,0.2682,-9.3118,2.3375,-31.8609,3.8261,-0.8348
2615,0.4598,-9.2352,2.2226,-32.9043,3.4783,-0.6957
2620,0.3449,-9.4268,2.3375,-33.6,3.2,-0.487
2625,0.4598,-9.5034,2.1459,-33.8783,2.9217,-0.4174
2630,0.3066,-9.3885,2.0693,-33.7391,2.5043,-0.2783
2635,0.2682,-9.3885,2.1843,-33.3217,1.9478,0.0
2640,0.1533,-9.2735,2.2609,-32.9739,1.4609,0.2087
2645,0.1916,-9.2735,2.1459,-32.3478,0.9043,0.4174
2650,0.3066,-9.3885,2.0693,-31.7913,0.487,0.5565
2655,0.2299,-9.3118,2.1459,-31.2348,0.0,0.7652
2660,0.115,-9.2735,2.031,-30.6087,-0.487,1.0435
2665,0.3449,-9.2352,2.1843,-29.9826,-1.113,1.4609
2670,0.1916,-9.1586,1.9927,-29.3565,-1.7391,1.7391
2675,0.0383,-9.2352,2.0693,-28.8,-1.9478,1.9478
2680,0.1533,-9.1586,2.031,-28.0348,-2.4348,2.2957
2685,0.0766,-9.1586,1.8777,-27.3391,-2.5739,2.713
2690,0.0383,-9.1969,2.031,-26.3652,-2.7826,3.2696
2695,0.0766,-9.2352,2.2226,-25.4609,-2.713,3.8957
2700,-0.0766,-9.1202,2.1076,-24.2783,-2.7826,4.1739
2705,0.1533,-9.1969,2.2609,-23.0957,-2.9913,4.6609
2710,0.1533,-8.967,2.3759,-22.1217,-3.1304,4.9391
2715,0.2299,-8.9286,2.5675,-21.7043,-3.2,5.2174
2720,0.2299,-8.737,2.7591,-21.7739,-3.2,5.4957
2725,0.115,-8.5454,2.989,-22.3304,-2.9217,5.6348
2730,0.2299,-8.2772,2.989,-23.4435,-2.713,5.7739
2735,0.3449,-8.1239,3.2955,-25.3217,-2.6435,5.7739
2740,0.4598,-8.0089,3.5638,-28.2435,-2.5043,5.8435
2745,0.3066,-7.8557,3.8704,-31.9304,-2.3652,5.7739
2750,0.4982,-7.9323,4.062,-36.5217,-2.2261,5.6348
2755,0.6131,-8.0089,4.4068,-41.7391,-1.8087,5.4957
2760,0.6131,-8.1622,4.5601,-47.0957,-1.2522,5.4261
2765,0.4982,-8.3921,4.6751,-52.6609,-0.8348,5.4261
2770,0.4215,-8.852,4.6751,-58.3652,-0.7652,5.7739
2775,0.3832,-9.1969,4.6368,-63.8609,-1.113,5.7043
2780,0.3832,-9.695,4.3685,-69.0783,-1.3913,5.2174
2785,0.2682,-10.2698,4.062,-73.8087,-1.6,3.8957
2790,0.1916,-10.5764,3.9087,-77.7043,-1.4609,1.9478
2795,0.1916,-10.7297,3.6021,-80.487,-1.2522,-0.9043
2800,0.1916,-10.8446,3.1423,-82.713,-1.0435,-4.1739
2805,0.1916,-10.6147,2.4525,-84.9391,-0.2783,-8.1391
2810,0.6514,-10.4614,1.6478,-87.7913,1.0435,-12.0348
2815,0.7664,-9.9633,0.1916,-92.9391,3.3391,-15.2348
2820,0.843,-9.3885,-1.4562,-101.4957,5.8435,-16.9043
2825,0.6514,-9.0053,-2.5675,-113.7391,7.513,-16.9739
2830,0.2682,-9.3885,-2.989,-127.3739,8.0696,-16.1391
2835,-0.4215,-10.4231,-2.5291,-138.0174,7.9304,-14.9565
2840,-0.8047,-11.8027,-1.3412,-141.913,7.5826,-12.8
2845,-1.1496,-13.0672,0.0383,-137.7391,8.0,-10.3652
2850,-1.2646,-14.1019,1.4179,-126.8174,8.9043,-8.3478
2855,-1.2646,-14.715,2.4142,-112.0696,9.2522,-7.2348
2860,-1.1496,-15.0982,2.989,-96.5565,7.7217,-6.8174
2865,-1.073,-14.83,2.9507,-83.0609,4.6609,-7.3739
2870,-0.9197,-14.0636,2.6824,-73.5304,1.9478,-7.9304
2875,-0.6898,-13.6037,2.3759,-68.9391,1.113,-7.7217
2880,-0.4982,-13.2971,2.4908,-69.1478,2.1565,-6.4696
2885,0.0766,-13.2588,2.7591,-72.4174,2.9913,-5.287
2890,0.6898,-13.1822,2.874,-76.9391,1.7391,-4.8696
2895,1.8394,-13.2971,3.2189,-80.2783,-1.113,-5.1478
2900,2.1843,-13.4504,3.1423,-80.9043,-3.7565,-5.4957
2905,2.1076,-13.6804,2.7974,-80.9043,-5.5652,-5.913
2910,2.0693,-13.9103,1.5711,-81.8783,-6.6087,-6.4696
2915,1.8011,-13.9486,1.2263,-84.0348,-7.4435,-6.9565
2920,1.6861,-14.1402,0.6514,-86.1217,-8.6957,-7.2348
2925,1.4945,-14.1785,0.3066,-88.4174,-10.2957,-7.3739
2930,1.4179,-14.4468,0.1916,-90.1565,-11.4087,-6.9565
2935,1.6095,-14.3318,-0.3066,-90.8522,-11.9652,-6.1913
2940,1.1879,-14.1402,-0.3449,-90.4348,-11.7565,-5.4957
2945,0.9197,-14.0636,-0.4598,-88.9043,-11.1304,-4.3826
2950,0.843,-13.9103,-0.9963,-86.9565,-11.2696,-3.4087
2955,0.6898,-13.5654,-1.1879,-85.287,-11.8957,-2.7826
2960,0.6514,-13.2205,-1.7627,-84.4522,-12.6609,-2.6435
2965,0.7281,-13.2588,-2.1076,-84.8,-13.5652,-2.8522
2970,0.6131,-12.8756,-2.2226,-86.4696,-14.5391,-3.5478
2975,0.6898,-12.7223,-2.4908,-88.9739,-15.7913,-4.3826
2980,0.7664,-12.5691,-2.4142,-91.7565,-16.6261,-5.3565
2985,0.9963,-12.7223,-2.4142,-94.3304,-17.113,-6.0522
2990,0.9963,-12.6457,-2.4525,-96.3478,-17.113,-6.5391
2995,0.958,-12.684,-2.3375,-97.4609,-16.9739,-6.5391
