timestamp,accX,accY,accZ,gyroX,gyroY,gyroZ
0,1.0346,-8.967,1.4945,25.2522,-7.513,-1.1826
5,0.9963,-9.0436,1.5328,24.0,-7.7913,-1.0435
10,1.1496,-9.0053,1.4179,22.6783,-7.8609,-0.8348
15,0.9963,-8.8137,1.5711,21.6348,-7.4435,-0.6261
20,1.1113,-9.0053,1.6095,20.3826,-6.9565,-0.5565
25,0.958,-8.8903,1.5328,19.1304,-6.5391,-0.5565
30,0.958,-8.967,1.4945,17.8087,-5.913,-0.487
35,1.1879,-9.1202,1.5328,16.6957,-5.287,-0.5565
40,0.958,-9.1586,1.3795,15.3739,-4.5913,-0.5565
45,1.1113,-9.2352,1.5711,13.9826,-4.0348,-0.5565
50,1.1496,-9.1586,1.4562,12.7304,-3.7565,-0.487
55,1.1113,-9.2735,1.4945,11.6174,-3.3391,-0.3478
60,1.0346,-9.1586,1.6861,10.5043,-2.9217,-0.3478
65,1.073,-9.0819,1.5711,9.3217,-2.5043,-0.3478
70,1.073,-9.1586,1.5328,8.2087,-2.3652,-0.2783
75,1.073,-9.1969,1.5328,7.2348,-2.2261,-0.3478
80,1.1113,-9.0819,1.6095,6.6087,-1.9478,-0.2087
85,1.1113,-9.1586,1.5328,6.0522,-1.6696,-0.2087
90,0.9197,-9.2735,1.6861,5.7043,-1.5304,-0.2087
95,1.1113,-9.1586,1.6095,5.6348,-1.2522,-0.2087
100,0.958,-9.0053,1.7244,5.4957,-0.8348,-0.4174
105,1.1879,-9.1969,1.7627,5.4261,-0.4174,-0.3478
110,1.1113,-9.2735,1.8011,5.4261,-0.0696,-0.487
115,1.1879,-9.1586,1.5711,5.4261,0.3478,-0.4174
120,1.2646,-9.1969,1.8777,5.3565,0.7652,-0.6261
125,1.073,-9.2352,1.6861,5.287,1.3217,-0.6957
130,1.1113,-9.1586,1.7627,5.1478,1.6696,-0.7652
135,0.9963,-9.2352,1.7244,5.1478,2.0174,-0.8348
140,1.073,-9.1969,1.6861,4.9391,2.4348,-0.7652
145,1.1496,-9.2352,1.6861,4.9391,2.5739,-0.7652
150,1.073,-9.1969,1.6478,4.8696,2.9217,-0.7652
155,1.073,-9.3118,1.7627,4.8696,3.0609,-0.6261
160,1.0346,-9.2735,1.6095,5.0087,3.2,-0.5565
165,1.073,-9.2735,1.6095,5.0783,3.3391,-0.487
170,1.3029,-9.1969,1.6095,5.287,3.3391,-0.487
175,0.8814,-9.2352,1.5328,5.5652,3.4087,-0.3478
180,0.9963,-9.2735,1.5711,5.6348,3.2696,-0.4174
185,1.073,-9.3118,1.6095,5.3565,3.3391,-0.3478
190,1.073,-9.2352,1.5328,4.9391,3.2,-0.4174
195,0.9963,-9.1969,1.4945,4.313,3.2696,-0.3478
200,0.958,-9.2735,1.6095,3.5478,3.4783,-0.487
205,0.9963,-9.1586,1.6095,2.9913,3.6174,-0.5565
210,0.958,-9.2735,1.6095,2.6435,3.5478,-0.4174
215,0.9963,-9.2735,1.6861,2.2261,3.4783,-0.3478
220,0.9963,-9.3885,1.5328,2.087,3.5478,-0.5565
225,0.9197,-9.3885,1.6095,2.087,3.4087,-0.4174
230,0.9197,-9.3885,1.6478,2.1565,3.3391,-0.4174
235,1.0346,-9.3502,1.6861,2.1565,3.3391,-0.487
240,0.9963,-9.3885,1.5711,2.087,3.4087,-0.5565
245,1.0346,-9.2735,1.5711,1.8783,3.4087,-0.6261
250,0.9197,-9.3118,1.6095,1.6,3.5478,-0.6261
255,0.8814,-9.4268,1.6095,1.3217,3.7565,-0.6957
260,1.0346,-9.4268,1.4562,1.0435,3.687,-0.7652
265,0.9963,-9.3118,1.4945,0.9043,3.6174,-0.9739
270,0.8814,-9.2352,1.6095,0.487,3.5478,-0.9739
275,0.958,-9.4651,1.6478,0.2783,3.4087,-0.9043
280,0.843,-9.3885,1.5328,0.0696,3.2,-0.9739
285,1.0346,-9.5801,1.6861,-0.0696,3.0609,-0.9739
290,0.8814,-9.4651,1.5711,0.0696,2.9217,-1.1826
295,0.9963,-9.5034,1.5711,0.0696,2.713,-1.113
300,0.843,-9.2735,1.6478,0.4174,2.6435,-0.9739
305,0.958,-9.3885,1.4179,0.7652,2.5043,-1.0435
310,0.9197,-9.3885,1.4945,1.1826,2.4348,-1.0435
315,0.9197,-9.3885,1.4562,1.7391,2.2957,-0.9739
320,0.8814,-9.3502,1.3795,2.2957,2.1565,-0.9739
325,0.8814,-9.3885,1.3412,2.713,2.087,-1.0435
330,0.8814,-9.4651,1.6095,3.2696,1.9478,-0.7652
335,0.958,-9.5034,1.4945,3.4087,1.8087,-0.6261
340,0.8047,-9.4268,1.3795,3.3391,1.6696,-0.487
345,0.843,-9.3118,1.3029,3.2,1.4609,-0.3478
350,0.843,-9.4651,1.3795,2.8522,1.1826,-0.2087
355,0.958,-9.3118,1.2263,2.4348,1.113,-0.1391
360,0.7664,-9.3502,1.2646,2.0174,1.0435,-0.2087
365,0.8047,-9.2735,1.5711,1.8783,0.9043,-0.0696
370,0.958,-9.3502,1.3795,1.8783,0.6957,0.0696
375,0.8814,-9.4268,1.2263,1.8087,0.6957,0.0
380,0.843,-9.4651,1.4562,1.8087,0.487,-0.0696
385,0.9197,-9.3885,1.3412,1.9478,0.487,-0.1391
390,0.9197,-9.4268,1.3412,1.8783,0.487,-0.2087
395,0.843,-9.3118,1.4945,2.0174,0.5565,-0.2087
400,0.843,-9.3502,1.3029,2.087,0.4174,-0.487
405,0.9963,-9.3502,1.4179,2.0174,0.487,-0.4174
410,0.9197,-9.4268,1.4562,2.087,0.4174,-0.4174
415,0.9197,-9.2735,1.3412,1.8087,0.3478,-0.487
420,0.8814,-9.5034,1.3029,1.7391,0.2783,-0.4174
425,0.843,-9.3885,1.4945,1.6,0.1391,-0.4174
430,0.958,-9.4268,1.2263,1.5304,0.2087,-0.2783
435,0.843,-9.3118,1.5328,1.5304,0.0696,-0.3478
440,0.9963,-9.3502,1.3412,1.6,0.2087,-0.3478
445,0.9963,-9.3502,1.3029,1.6696,0.0,-0.4174
450,0.9963,-9.3502,1.3795,1.8783,0.0,-0.487
455,0.958,-9.3118,1.4179,2.087,-0.0696,-0.6957
460,0.843,-9.2735,1.2263,2.2957,0.0,-0.7652
465,0.9197,-9.4651,1.3795,2.5739,-0.0696,-0.6957
470,0.843,-9.4268,1.3412,2.7826,0.0,-0.8348
475,0.8814,-9.4651,1.3795,3.0609,0.0,-0.9043
480,0.843,-9.3502,1.3412,3.1304,0.0696,-0.9739
485,0.843,-9.4268,1.3412,3.2,0.1391,-0.9739
490,0.958,-9.4651,1.4179,3.2,0.3478,-0.9739
495,0.9197,-9.4268,1.4945,2.9217,0.487,-0.9043
500,0.9197,-9.4651,1.4562,2.5739,0.5565,-0.8348
505,0.8814,-9.4651,1.4562,2.3652,0.6261,-0.9043
510,0.958,-9.4268,1.3412,2.0174,0.6261,-0.8348
515,0.9963,-9.3885,1.4179,1.8783,0.6261,-0.8348
520,0.958,-9.5034,1.3795,1.8087,0.4174,-0.7652
525,0.843,-9.3502,1.4179,1.8783,0.1391,-0.6957
530,0.958,-9.4651,1.3795,2.087,0.0,-0.5565
535,0.843,-9.4651,1.4945,2.2957,-0.0696,-0.5565
540,0.9963,-9.5034,1.5328,2.5739,-0.1391,-0.6957
545,0.9197,-9.4651,1.4179,2.9217,-0.0696,-0.6261
550,0.9197,-9.3118,1.4945,3.2696,0.0696,-0.7652
555,0.958,-9.3885,1.7244,3.6174,0.0,-0.6261
560,0.9963,-9.3885,1.4179,3.8261,0.2783,-0.8348
565,0.8814,-9.3118,1.3795,3.8261,0.4174,-0.7652
570,0.8814,-9.3502,1.3795,3.8261,0.6957,-0.9043
575,0.8047,-9.3118,1.4945,4.0348,0.9043,-0.9043
580,0.958,-9.4651,1.3795,4.2435,0.9043,-0.9739
585,0.8814,-9.3502,1.3795,4.4522,0.9739,-0.9739
590,0.843,-9.3118,1.4562,4.7304,0.8348,-0.9739
595,0.9963,-9.4268,1.3795,4.9391,0.8348,-1.0435
600,0.958,-9.3502,1.2646,5.0783,0.7652,-1.0435
605,0.8814,-9.2735,1.4945,5.3565,0.6957,-0.9739
610,0.9197,-9.2352,1.4179,5.4261,0.6261,-1.113
615,0.8814,-9.3885,1.4179,5.3565,0.4174,-0.9739
620,0.9197,-9.3118,1.3795,5.4261,0.3478,-1.113
625,1.0346,-9.4268,1.3795,5.287,0.2087,-1.113
630,0.9197,-9.3502,1.4179,5.287,0.0696,-1.113
635,0.9197,-9.3118,1.2646,5.2174,0.0696,-1.1826
640,0.9963,-9.3885,1.5328,5.2174,0.2087,-1.3913
645,0.958,-9.4268,1.4945,5.1478,0.2783,-1.3913
650,0.958,-9.3502,1.3795,5.2174,0.4174,-1.4609
655,1.3795,-9.1969,1.2646,5.3565,0.487,-1.4609
660,1.0346,-9.4651,1.3029,5.287,0.5565,-1.3913
665,0.9963,-9.4651,1.3795,5.4261,0.6261,-1.4609
670,0.8814,-9.4268,1.4945,5.4261,0.6957,-1.4609
675,0.9197,-9.2352,1.5711,5.4957,0.8348,-1.5304
680,0.9963,-9.5034,1.4945,5.5652,0.9043,-1.6
685,0.9197,-9.3118,1.4945,5.6348,0.9043,-1.4609
690,1.0346,-9.3502,1.4562,5.7043,0.9043,-1.3913
695,1.073,-9.3118,1.4179,5.6348,0.9739,-1.3913
700,1.0346,-9.3885,1.2646,5.5652,0.9739,-1.2522
705,1.0346,-9.3885,1.4179,5.5652,1.0435,-1.113
710,0.958,-9.4268,1.3412,5.5652,1.0435,-1.1826
715,0.958,-9.3118,1.2646,5.4261,1.113,-0.9739
720,0.9963,-9.3502,1.3795,5.3565,0.9739,-0.9739
725,0.9963,-9.2352,1.4179,5.287,0.9739,-1.0435
730,0.843,-9.3885,1.3795,5.2174,0.9043,-0.9739
735,0.9963,-9.4268,1.4562,5.2174,0.8348,-1.0435
740,0.9963,-9.2735,1.2263,5.287,0.9739,-1.113
745,1.073,-9.4651,1.5328,5.0087,0.9739,-1.2522
750,0.9963,-9.3502,1.4562,4.9391,1.0435,-1.3217
755,0.9963,-9.3885,1.4945,4.9391,1.113,-1.2522
760,1.1879,-9.695,1.5328,4.5913,1.113,-1.3913
765,0.9963,-9.3885,1.4179,4.3826,1.2522,-1.4609
770,0.9197,-9.3502,1.6095,4.2435,1.2522,-1.5304
775,0.843,-9.3502,1.4562,4.1043,1.3217,-1.4609
780,0.958,-9.3885,1.4562,3.9652,1.3217,-1.5304
785,0.958,-9.4268,1.5328,3.8261,1.2522,-1.4609
790,0.9197,-9.3502,1.4945,3.687,1.113,-1.6
795,0.9963,-9.3885,1.4562,3.5478,0.9043,-1.5304
800,0.8814,-9.3502,1.5328,3.2696,0.7652,-1.6
805,0.9197,-9.3502,1.3795,3.1304,0.6261,-1.6
810,0.958,-9.3885,1.4562,3.1304,0.487,-1.4609
815,0.958,-9.3885,1.3412,3.0609,0.5565,-1.4609
820,0.9197,-9.4268,1.3795,3.0609,0.5565,-1.5304
825,0.9963,-9.4651,1.4179,2.9217,0.6957,-1.5304
830,0.958,-9.5034,1.4945,2.7826,0.6957,-1.4609
835,0.8814,-9.3502,1.4945,2.5739,0.8348,-1.5304
840,0.9197,-9.3502,1.4179,2.5043,0.7652,-1.1826
845,0.9197,-9.4651,1.4562,2.5043,0.8348,-1.1826
850,0.958,-9.4651,1.4179,2.5043,0.9043,-1.1826
855,0.958,-9.3502,1.2263,2.713,0.9739,-1.113
860,0.9197,-9.4268,1.4179,3.0609,1.1826,-1.113
865,1.0346,-9.5801,1.4562,3.5478,1.1826,-1.1826
870,0.958,-9.4651,1.4179,4.1043,1.113,-1.1826
875,1.073,-9.5801,1.4179,4.6609,1.1826,-1.1826
880,0.9197,-9.3502,1.3412,5.2174,1.113,-1.3913
885,0.8814,-9.3885,1.4179,5.6348,0.9043,-1.1826
890,0.9197,-9.3118,1.2646,5.8435,0.7652,-1.113
895,0.9197,-9.3502,1.2646,5.9826,0.487,-1.1826
900,0.8814,-9.3502,1.3412,6.1217,0.3478,-1.113
905,0.958,-9.3502,1.4562,5.9826,0.2087,-0.9043
910,0.958,-9.3118,1.3795,5.7739,0.0696,-0.9043
915,0.9197,-9.3502,1.6095,5.6348,0.0696,-1.0435
920,0.958,-9.4651,1.4562,5.2174,0.0696,-1.113
925,0.958,-9.3885,1.5328,5.0087,0.1391,-1.1826
930,0.9197,-9.5034,1.4179,4.8696,0.2087,-1.1826
935,0.9963,-9.3885,1.4945,4.7304,0.2783,-1.2522
940,0.958,-9.4268,1.4179,4.7304,0.2783,-1.3217
945,0.958,-9.5034,1.4179,4.9391,0.487,-1.3913
950,0.958,-9.4651,1.6095,5.3565,0.487,-1.3217
955,1.0346,-9.4268,1.3795,5.7043,0.487,-1.2522
960,0.958,-9.4268,1.5711,6.1217,0.5565,-1.2522
965,0.843,-9.3885,1.4945,6.5391,0.487,-1.3217
970,0.9963,-9.3502,1.3795,6.887,0.487,-1.3913
975,0.9197,-9.3502,1.4179,7.2348,0.6261,-1.2522
980,1.0346,-9.3502,1.4179,7.2348,0.6261,-1.2522
985,0.958,-9.4268,1.5328,7.1652,0.6261,-1.3217
990,0.9197,-9.4268,1.3412,7.0261,0.6957,-1.3913
995,0.958,-9.2352,1.4179,6.8174,0.6957,-1.3217
1000,0.843,-9.3885,1.4945,6.4696,0.6261,-1.1826
1005,0.9197,-9.2735,1.4562,6.1217,0.6261,-1.2522
1010,1.073,-9.3885,1.4562,5.7043,0.6957,-1.1826
1015,0.958,-9.5418,1.6095,5.1478,0.6261,-1.2522
1020,0.958,-9.3885,1.5711,4.7304,0.6261,-1.2522
1025,0.9963,-9.3885,1.5328,4.5217,0.6957,-1.113
1030,1.0346,-9.4651,1.4562,4.2435,0.6261,-1.1826
1035,0.958,-9.3885,1.5328,4.2435,0.7652,-1.1826
1040,0.9963,-9.3502,1.4562,4.4522,0.8348,-1.1826
1045,1.0346,-9.3885,1.4945,4.8,0.8348,-1.1826
1050,1.0346,-9.4268,1.4562,5.0783,0.8348,-1.1826
1055,0.9963,-9.4268,1.4562,5.4957,0.9043,-0.9043
1060,0.9963,-9.3502,1.3029,5.7043,0.8348,-1.0435
1065,0.8814,-9.2735,1.5328,6.0522,0.8348,-0.9739
1070,1.073,-9.4268,1.4945,6.2609,0.8348,-0.9739
1075,0.958,-9.4268,1.5711,6.6087,0.8348,-0.9739
1080,0.958,-9.4268,1.5328,6.8174,0.9739,-0.7652
1085,1.1113,-9.4651,1.5711,6.9565,1.0435,-0.8348
1090,0.958,-9.3885,1.4945,6.8174,1.0435,-0.7652
1095,0.958,-9.3885,1.6861,6.7478,1.1826,-0.6957
1100,0.958,-9.4268,1.4562,6.6087,1.1826,-0.6261
1105,1.1113,-9.3502,1.6861,6.4,1.2522,-0.6261
1110,1.1113,-9.3118,1.5711,6.1217,1.1826,-0.5565
1115,1.0346,-9.3885,1.5711,5.8435,1.2522,-0.487
1120,1.0346,-9.3118,1.6095,5.5652,1.113,-0.487
1125,1.0346,-9.3118,1.5328,5.2174,1.1826,-0.5565
1130,1.0346,-9.4268,1.6478,4.9391,1.1826,-0.5565
1135,0.958,-9.5034,1.4562,4.6609,1.0435,-0.4174
1140,0.9963,-9.4268,1.8011,4.5913,1.113,-0.3478
1145,0.958,-9.4268,1.6095,4.3826,1.113,-0.2087
1150,0.958,-9.3502,1.4945,4.313,1.0435,-0.2087
1155,1.0346,-9.3502,1.4945,4.313,1.0435,-0.2087
1160,0.958,-9.3118,1.4179,4.4522,0.9739,-0.2087
1165,1.0346,-9.3502,1.5711,4.6609,0.9043,-0.2783
1170,1.0346,-9.4651,1.6478,4.9391,0.8348,-0.3478
1175,0.9963,-9.3502,1.4945,5.0087,0.6957,-0.2783
1180,0.9197,-9.2735,1.3795,5.2174,0.5565,-0.2087
1185,0.958,-9.3502,1.3412,5.1478,0.487,-0.2087
1190,1.1113,-9.2735,1.5328,5.0087,0.4174,-0.3478
1195,1.073,-9.2735,1.4945,4.8,0.2783,-0.4174
1200,0.9963,-9.3118,1.4179,4.3826,0.2783,-0.487
1205,0.9197,-9.3502,1.5711,3.7565,0.3478,-0.5565
1210,0.7281,-9.2352,1.5328,3.0609,0.487,-0.7652
1215,0.958,-9.1586,1.5711,2.3652,0.487,-0.8348
1220,0.9197,-9.3118,1.6095,1.7391,0.5565,-0.9739
1225,0.9963,-9.3502,1.5711,1.1826,0.6261,-1.0435
1230,0.9197,-9.3118,1.5328,0.7652,0.6261,-1.0435
1235,1.073,-9.3502,1.4562,0.7652,0.5565,-0.9739
1240,0.9963,-9.4268,1.4945,0.9043,0.6261,-0.9739
1245,1.073,-9.4268,1.4945,1.1826,0.5565,-0.9739
1250,1.073,-9.3885,1.5711,1.4609,0.3478,-0.8348
1255,0.9197,-9.4268,1.5328,1.8087,0.3478,-0.9043
1260,0.9963,-9.3885,1.5328,2.1565,0.2783,-1.0435
1265,0.958,-9.4268,1.5711,2.3652,0.2087,-0.9739
1270,0.958,-9.3885,1.5711,2.5043,0.2087,-0.9043
1275,1.0346,-9.4651,1.4562,2.6435,0.1391,-0.7652
1280,1.0346,-9.2735,1.4562,2.6435,0.0696,-0.6957
1285,0.958,-9.1969,1.5328,2.5043,-0.0696,-0.7652
1290,0.8814,-9.3502,1.4562,2.3652,0.0696,-0.7652
1295,0.9963,-9.2735,1.5711,2.1565,0.0696,-0.6957
1300,0.8814,-9.3118,1.6095,1.8783,0.0696,-0.5565
1305,0.9963,-9.3502,1.5711,1.5304,0.0696,-0.6261
1310,0.9197,-9.3502,1.4562,1.4609,0.0,-0.6957
1315,0.958,-9.3885,1.5328,1.2522,0.0696,-0.6957
1320,0.958,-9.2352,1.3412,1.1826,0.0,-0.6957
1325,0.9963,-9.2735,1.5328,1.2522,0.0,-0.7652
1330,0.9197,-9.3502,1.4562,1.3913,-0.1391,-0.6957
1335,0.9197,-9.4651,1.3795,1.6,-0.0696,-0.8348
1340,1.0346,-9.4268,1.4945,1.9478,-0.1391,-0.7652
1345,0.8814,-9.3118,1.4562,2.3652,-0.1391,-0.8348
1350,1.073,-9.3118,1.1879,2.713,-0.1391,-0.6957
1355,1.073,-9.3885,1.3412,3.1304,-0.2087,-0.5565
1360,0.9963,-9.3118,1.5328,3.4783,-0.2087,-0.6261
1365,1.073,-9.3502,1.4179,3.6174,-0.1391,-0.5565
1370,0.958,-9.4651,1.2646,3.6174,-0.2087,-0.6261
1375,1.0346,-9.3885,1.3795,3.7565,-0.2087,-0.5565
1380,1.0346,-9.3885,1.3795,3.6174,-0.2087,-0.5565
1385,1.073,-9.4651,1.6095,3.5478,-0.2783,-0.5565
1390,0.958,-9.4651,1.3795,3.5478,-0.2087,-0.6261
1395,0.958,-9.4268,1.4179,3.6174,-0.2783,-0.6261
1400,0.958,-9.4268,1.4179,3.7565,-0.2783,-0.6957
1405,0.8814,-9.3118,1.4945,3.9652,-0.4174,-0.8348
1410,0.8814,-9.3502,1.5711,4.1739,-0.5565,-0.7652
1415,0.9963,-9.5034,1.3412,4.4522,-0.5565,-0.7652
1420,0.9963,-9.4268,1.5328,4.7304,-0.5565,-0.7652
1425,0.958,-9.3118,1.4179,5.0087,-0.5565,-0.6957
1430,0.8814,-9.3118,1.5328,5.1478,-0.487,-0.7652
1435,0.9197,-9.4268,1.3795,5.287,-0.487,-0.6261
1440,0.958,-9.3885,1.5328,5.4261,-0.4174,-0.6957
1445,0.9963,-9.3885,1.5711,5.4957,-0.2783,-0.6957
1450,0.958,-9.3502,1.5328,5.4957,-0.2783,-0.6261
1455,0.9963,-9.2735,1.5711,5.6348,-0.2087,-0.5565
1460,0.9963,-9.1586,1.4945,5.6348,-0.2783,-0.5565
1465,0.9963,-9.2735,1.4179,5.6348,-0.4174,-0.6957
1470,0.9963,-9.3885,1.6095,5.7739,-0.5565,-0.9043
1475,0.9963,-9.5034,1.4945,5.8435,-0.5565,-0.8348
1480,1.0346,-9.4651,1.5711,5.913,-0.6261,-0.9043
1485,0.8814,-9.3118,1.5711,6.1217,-0.487,-1.0435
1490,1.0346,-9.4268,1.4562,6.4696,-0.4174,-1.1826
1495,0.9963,-9.4268,1.5711,6.6783,-0.4174,-1.113
1500,1.0346,-9.3885,1.4562,6.8174,-0.4174,-1.2522
1505,0.8814,-9.3118,1.5328,7.0957,-0.3478,-1.3217
1510,1.0346,-9.4268,1.4562,7.2348,-0.2783,-1.3913
1515,1.0346,-9.3502,1.4562,7.4435,-0.1391,-1.3217
1520,0.9197,-9.3885,1.5711,7.5826,-0.0696,-1.2522
1525,0.9963,-9.2735,1.5328,7.513,0.0,-1.3913
1530,0.958,-9.4268,1.4562,7.5826,-0.0696,-1.3217
1535,1.0346,-9.3502,1.5328,7.513,-0.0696,-1.3913
1540,1.0346,-9.3118,1.6861,7.3739,-0.0696,-1.3217
1545,1.073,-9.3885,1.6861,7.3043,-0.0696,-1.1826
1550,0.958,-9.3885,1.5711,7.0261,0.0,-1.113
1555,0.958,-9.1969,1.4945,6.8174,0.0696,-1.113
1560,0.9197,-9.4268,1.5711,6.5391,0.0696,-1.113
1565,0.9963,-9.2735,1.6478,6.4,0.0696,-0.9043
1570,0.9197,-9.3502,1.4945,6.1913,0.2087,-0.9739
1575,0.9963,-9.2735,1.6095,6.0522,0.2783,-0.9043
1580,0.958,-9.2735,1.5328,6.0522,0.3478,-0.9043
1585,1.0346,-9.3118,1.4562,5.9826,0.3478,-0.9043
1590,0.9963,-9.3118,1.5328,5.913,0.3478,-0.8348
1595,1.0346,-9.3885,1.4945,5.913,0.487,-0.9043
1600,0.9963,-9.4268,1.6478,5.7739,0.487,-0.8348
1605,0.9963,-9.4268,1.5328,5.7043,0.487,-0.7652
1610,0.8814,-9.3118,1.5328,5.8435,0.487,-0.7652
1615,1.0346,-9.3502,1.4179,5.913,0.4174,-0.6957
1620,0.9963,-9.4268,1.3412,6.0522,0.4174,-0.5565
1625,1.1113,-9.5034,1.4945,6.1217,0.4174,-0.487
1630,1.073,-9.4268,1.4562,6.4,0.487,-0.6261
1635,0.9197,-9.2735,1.5328,6.6783,0.5565,-0.7652
1640,0.958,-9.4268,1.5711,6.9565,0.6261,-0.7652
1645,1.0346,-9.3502,1.5328,7.0261,0.5565,-0.9043
1650,0.9963,-9.4268,1.6095,7.0957,0.7652,-0.9043
1655,0.958,-9.3502,1.6861,7.0957,0.8348,-0.9739
1660,0.8814,-9.1586,1.5328,6.9565,0.8348,-1.0435
1665,0.958,-9.1969,1.6861,6.8174,0.9739,-0.9739
1670,0.958,-9.3885,1.7244,6.6087,0.9739,-0.9739
1675,0.9963,-9.4268,1.5328,6.5391,1.113,-1.0435
1680,1.1496,-9.3885,1.4945,6.6087,1.0435,-0.9739
1685,1.073,-9.4268,1.5328,6.6087,0.9739,-0.7652
1690,0.9963,-9.3502,1.4562,6.887,0.9043,-0.7652
1695,0.8814,-9.3118,1.4945,7.0261,0.8348,-0.6957
1700,1.0346,-9.3502,1.6095,7.2348,0.6957,-0.6261
1705,1.0346,-9.3885,1.6095,7.3739,0.6957,-0.6261
1710,0.958,-9.3502,1.5328,7.2348,0.6261,-0.6261
1715,0.958,-9.2735,1.7627,7.1652,0.6957,-0.7652
1720,0.9963,-9.3118,1.6478,7.0957,0.7652,-0.9043
1725,0.9963,-9.2735,1.6095,6.887,0.8348,-0.7652
1730,0.9197,-9.2735,1.5711,6.6783,0.8348,-0.9043
1735,1.073,-9.4268,1.5711,6.6087,0.9043,-0.9739
1740,0.958,-9.2735,1.6478,6.5391,0.9739,-1.0435
1745,0.9963,-9.3502,1.5328,6.4696,0.9739,-1.0435
1750,0.9963,-9.3118,1.4945,6.6087,1.0435,-1.113
1755,0.9963,-9.4268,1.6861,6.6783,1.0435,-1.113
1760,0.8814,-9.3118,1.5711,6.7478,1.1826,-1.113
1765,1.073,-9.4268,1.7244,6.887,1.113,-1.113
1770,1.0346,-9.4651,1.6478,6.9565,1.1826,-1.0435
1775,0.8814,-9.3118,1.4945,6.887,1.113,-1.113
1780,1.0346,-9.3118,1.7244,6.7478,0.9043,-1.1826
1785,0.958,-9.1969,1.7244,6.6087,0.6957,-1.113
1790,0.9197,-9.2735,1.6861,6.2609,0.487,-1.1826
1795,1.0346,-9.4268,1.7244,6.0522,0.3478,-1.1826
1800,0.8814,-9.3118,1.6478,5.7739,0.2087,-1.2522
1805,0.9963,-9.4268,1.6861,5.5652,0.2087,-1.1826
1810,1.0346,-9.3502,1.7244,5.4261,0.2087,-1.2522
1815,1.0346,-9.3118,1.6861,5.5652,0.1391,-1.3217
1820,1.0346,-9.3118,1.6478,5.4957,0.3478,-1.3217
1825,0.9963,-9.2735,1.5328,5.7739,0.487,-1.3217
1830,1.073,-9.3885,1.6478,5.9826,0.5565,-1.3913
1835,1.0346,-9.3502,1.7244,6.4,0.6957,-1.3217
1840,0.9963,-9.3502,1.8011,6.6783,0.8348,-1.4609
1845,0.9963,-9.3118,1.8011,6.9565,0.9043,-1.3913
1850,0.958,-9.2735,1.6861,7.0957,0.9043,-1.6
1855,0.958,-9.2352,1.6478,7.3739,0.7652,-1.4609
1860,0.9963,-9.2735,1.4945,7.4435,0.7652,-1.5304
1865,1.0346,-9.2735,1.4562,7.3739,0.8348,-1.5304
1870,0.9963,-9.3885,1.6861,7.3739,0.6261,-1.5304
1875,1.073,-9.2735,1.5711,7.1652,0.6261,-1.4609
1880,1.0346,-9.3502,1.6861,6.9565,0.6261,-1.3913
1885,1.0346,-9.1586,1.6478,6.6783,0.5565,-1.3217
1890,1.0346,-9.3885,1.7244,6.5391,0.487,-1.3217
1895,1.1113,-9.3502,1.5711,6.3304,0.487,-1.1826
1900,0.8814,-9.1969,1.8011,6.2609,0.4174,-1.1826
1905,1.1113,-9.3502,1.6095,6.1217,0.487,-1.113
1910,1.073,-9.1969,1.6861,6.1217,0.4174,-1.0435
1915,0.9197,-9.2735,1.8011,6.1913,0.487,-1.113
1920,1.073,-9.3502,1.7244,6.3304,0.5565,-1.113
1925,0.9963,-9.3885,1.6861,6.4,0.6261,-1.113
1930,0.9963,-9.2735,1.7627,6.5391,0.7652,-1.113
1935,0.9963,-9.1969,1.7627,6.6783,0.9739,-1.3217
1940,1.2263,-9.4268,1.8777,6.7478,0.9043,-1.2522
1945,0.958,-9.2735,1.7244,6.7478,1.0435,-1.1826
1950,0.9963,-9.3502,1.6478,6.8174,0.9739,-1.3913
1955,0.958,-9.2735,1.6861,6.7478,1.113,-1.3913
1960,0.9963,-9.3885,1.8394,6.8174,1.1826,-1.3913
1965,1.073,-9.2735,1.6095,6.8174,1.0435,-1.2522
1970,1.1113,-9.3502,1.7627,6.6783,1.113,-1.3217
1975,1.1496,-9.3502,1.6095,6.6087,1.1826,-1.1826
1980,0.958,-9.2352,1.6478,6.3304,1.1826,-1.113
1985,1.1113,-9.3118,1.7627,6.1217,1.113,-1.113
1990,1.1113,-9.4268,1.7627,5.8435,1.1826,-0.9043
1995,1.073,-9.3885,1.6478,5.4957,1.2522,-0.8348
2000,1.0346,-9.3118,1.6861,5.1478,1.3913,-0.9739
2005,1.0346,-9.2735,1.7244,4.9391,1.3913,-0.7652
2010,1.0346,-9.3885,1.7244,4.8,1.4609,-0.8348
2015,0.9963,-9.2735,1.8011,4.5913,1.4609,-0.8348
2020,1.073,-9.3118,1.8394,4.4522,1.2522,-0.9043
2025,0.9963,-9.0819,1.7627,4.313,1.2522,-0.9739
2030,1.0346,-9.3118,1.6478,4.0348,1.1826,-1.0435
2035,0.9963,-9.1586,1.9543,3.8957,1.2522,-1.0435
2040,0.9963,-9.2735,1.8394,3.8957,1.3217,-1.0435
2045,1.0346,-9.1586,1.7244,3.9652,1.3217,-1.0435
2050,0.9197,-9.2735,1.7627,4.2435,1.3913,-1.0435
2055,0.9963,-9.4651,1.8011,4.7304,1.3913,-0.9043
2060,1.0346,-9.3885,1.8777,5.0087,1.4609,-0.6957
2065,0.9963,-9.3502,1.9927,5.0783,1.3913,-0.487
2070,0.9963,-9.3502,1.8777,5.287,1.2522,-0.0696
2075,0.9197,-9.1586,2.2609,5.4261,0.7652,0.3478
2080,0.9197,-9.1969,2.031,5.0087,0.2087,0.9043
2085,0.9963,-9.2352,2.1843,4.1739,-0.3478,1.3913
2090,0.8814,-9.1586,2.3375,2.7826,-0.7652,1.7391
2095,0.958,-8.967,2.4142,1.0435,-0.9739,2.1565
2100,0.8047,-8.852,2.4908,-1.113,-0.8348,2.5739
2105,0.7664,-8.8903,2.4525,-3.7565,-0.6261,2.713
2110,0.958,-9.0436,2.3375,-6.5391,-0.4174,2.6435
2115,0.8047,-9.0819,2.1843,-9.113,-0.3478,2.3652
2120,1.3412,-9.3885,1.9927,-12.2435,-0.7652,1.7391
2125,0.7664,-9.2735,1.7244,-16.0696,-1.113,-0.1391
2130,0.6131,-9.4268,1.7244,-16.6261,-0.0696,-0.9043
2135,0.3832,-9.6567,1.3795,-15.5826,0.9739,-1.2522
2140,0.2299,-9.4268,0.7664,-14.1217,1.2522,-1.4609
2145,0.5748,-9.3885,1.2646,-12.313,0.9739,-1.4609
2150,0.3066,-9.6567,0.7664,-10.3652,0.5565,-1.3217
2155,0.115,-9.6567,1.3029,-8.9739,0.6261,-0.7652
2160,0.6514,-9.1586,1.0346,-7.9304,0.3478,-0.4174
2165,0.9197,-9.0819,0.115,-6.0522,0.2783,-0.2783
2170,0.3832,-8.6221,0.7664,-4.9391,-0.1391,0.0
2175,0.4982,-8.6221,1.4179,-5.0783,-0.8348,0.2783
2180,1.0346,-9.0436,1.4562,-5.3565,-1.7391,0.4174
2185,0.7281,-8.967,0.9963,-6.0522,-2.6435,0.9043
2190,1.5328,-8.5454,1.0346,-7.4435,-3.6174,1.3913
2195,1.2646,-8.6221,1.8394,-9.5304,-4.313,1.8087
2200,1.1879,-9.1202,1.9927,-12.1043,-5.2174,2.2261
2205,1.2646,-8.7754,1.5711,-14.887,-6.0522,2.4348
2210,1.3412,-8.7754,1.6478,-17.3217,-6.2609,2.9217
2215,1.4179,-8.967,1.7244,-19.2,-6.4,3.4087
2220,1.1879,-8.967,1.5711,-20.6609,-6.0522,3.6174
2225,0.9963,-8.852,1.8011,-21.913,-5.6348,3.7565
2230,1.2263,-9.0819,1.6861,-23.2348,-5.7043,3.4783
2235,1.2263,-9.1202,1.7244,-24.2783,-5.5652,3.1304
2240,1.1496,-9.0436,1.6478,-25.0435,-5.4261,2.9217
2245,1.1113,-9.0436,1.5711,-25.6,-5.287,2.5739
2250,1.2646,-9.0053,1.4945,-26.1565,-5.3565,2.3652
2255,1.1113,-9.0053,1.6861,-26.9217,-5.0783,2.2261
2260,0.9963,-9.0053,1.4562,-27.7565,-4.8,2.3652
2265,1.1879,-8.8903,1.3795,-28.9391,-4.7304,2.2957
2270,1.1496,-8.852,1.4179,-30.1913,-4.6609,2.2261
2275,1.0346,-8.8903,1.6095,-31.513,-4.8696,2.2261
2280,1.073,-8.8903,1.4179,-32.9739,-5.0087,2.2957
2285,1.073,-8.6987,1.3412,-34.5739,-5.0087,2.2957
2290,1.073,-8.7754,1.4562,-36.1739,-4.8696,2.5043
2295,0.958,-8.6604,1.6095,-37.7739,-4.8,2.7826
2300,0.958,-8.7754,1.5328,-39.6522,-4.9391,3.0609
2305,0.958,-8.6221,1.3795,-41.0435,-5.0783,3.687
2310,0.9963,-8.8137,1.3412,-42.3652,-4.8696,4.1739
2315,0.9197,-8.7754,1.3795,-44.1739,-4.8,4.313
2320,0.8814,-8.6221,1.0346,-46.1217,-4.6609,4.3826
2325,0.8814,-8.737,1.073,-48.2087,-4.4522,4.5217
2330,0.8047,-8.5838,1.1496,-49.8783,-4.2435,4.6609
2335,0.6898,-8.6604,1.073,-51.7565,-4.1739,4.8
2340,0.843,-8.6987,1.0346,-53.5652,-4.313,4.8696
2345,0.7281,-8.737,0.9963,-55.4435,-4.313,5.0087
2350,0.843,-8.6987,0.8814,-57.7391,-4.5217,4.9391
2355,0.8047,-8.5454,0.7281,-60.3826,-4.7304,5.0087
2360,0.6898,-8.737,0.8047,-63.2348,-4.9391,5.1478
2365,0.7281,-8.6604,0.8047,-65.8087,-5.1478,5.1478
2370,0.8047,-8.7754,0.6131,-68.9391,-5.7043,5.0783
2375,0.5365,-8.6987,0.7281,-71.8609,-6.3304,4.9391
2380,0.7281,-8.852,0.6898,-74.0174,-7.1652,4.4522
2385,0.7664,-8.7754,0.4982,-76.1739,-8.0696,4.1043
2390,0.8047,-8.7754,0.4598,-78.1913,-7.8609,4.6609
2395,0.8047,-8.8903,0.4982,-80.6957,-7.5826,5.1478
2400,0.7281,-8.9286,0.2682,-82.9217,-7.0957,5.7739
2405,0.7281,-9.0436,0.3066,-85.0087,-7.2348,5.8435
2410,0.7664,-9.0436,0.2682,-87.1652,-7.3739,6.1217
2415,0.8047,-9.1202,0.115,-88.9739,-7.1652,6.4696
2420,0.7664,-9.1586,0.2299,-90.8522,-6.8174,6.7478
2425,0.5365,-9.2735,-0.5748,-93.0087,-6.7478,7.0957
2430,0.7281,-9.0819,0.1533,-95.3739,-6.6087,7.3043
2435,0.9963,-9.2352,0.1916,-97.6696,-6.3304,7.1652
2440,0.7664,-9.0053,0.0383,-99.8261,-6.1217,6.8174
2445,0.8814,-8.9286,0.1533,-101.8435,-6.0522,6.7478
2450,0.8814,-8.8137,-0.0766,-104.1391,-5.9826,6.5391
2455,0.9197,-8.8903,0.0,-106.7826,-5.8435,6.4696
2460,0.8814,-8.7754,0.0383,-109.4957,-5.4957,6.6783
2465,0.843,-8.852,0.0,-112.0696,-5.3565,6.9565
2470,0.8814,-8.852,-0.0766,-114.4348,-4.8696,6.8174
2475,0.9197,-8.9286,0.0,-116.5913,-4.5217,6.6783
2480,0.843,-8.8903,0.0,-118.4696,-4.0348,6.5391
2485,0.958,-8.967,-0.0383,-120.0696,-3.5478,6.2609
2490,0.9963,-9.1969,-0.0383,-121.2522,-2.9913,6.1217
2495,1.1113,-9.1586,-0.0766,-122.2261,-2.5739,5.913
2500,1.073,-9.3118,0.0,-122.8522,-2.087,5.9826
2505,1.073,-9.3118,0.0766,-123.4783,-1.4609,6.1913
2510,1.1879,-9.5418,0.0383,-124.5913,-0.9739,6.4696
2515,1.1879,-9.6567,0.0383,-125.913,-0.487,6.7478
2520,1.1879,-9.6184,0.0383,-127.4435,-0.1391,6.887
2525,1.1496,-9.5801,0.115,-129.1826,-0.0696,6.9565
2530,1.1879,-9.6567,-0.0766,-130.713,0.0,6.7478
2535,1.1496,-9.8866,-0.1533,-132.1043,0.1391,6.1913
2540,1.1113,-9.8483,-0.1916,-133.2174,0.2087,5.7043
2545,1.1113,-9.8866,-0.4598,-133.7043,0.5565,5.1478
2550,1.1879,-9.9633,-0.4598,-133.5652,0.9043,4.3826
2555,1.1879,-9.8866,-0.6131,-132.4522,1.1826,3.8261
2560,1.2263,-9.925,-0.7664,-130.2261,1.3217,3.2696
2565,1.1496,-9.81,-0.7664,-127.2348,1.3217,2.5043
2570,1.0346,-9.7334,-0.7664,-123.8261,1.2522,2.0174
2575,1.3029,-9.7717,-1.1113,-119.6522,1.4609,1.3217
2580,1.2646,-9.7334,-1.2646,-116.5217,1.1826,0.0696
2585,1.2263,-9.695,-1.7244,-113.1826,0.5565,-1.113
2590,1.1879,-9.7717,-1.9543,-110.1913,-0.2087,-2.5043
2595,0.843,-9.81,-2.3759,-107.5478,-0.6957,-3.9652
2600,0.5748,-9.9633,-2.874,-105.8087,-1.0435,-5.1478
2605,0.3449,-10.2315,-3.5255,-106.1565,-1.113,-6.1217
2610,0.2299,-10.2315,-4.1769,-108.7304,-1.5304,-7.0957
2615,0.1916,-10.653,-4.9816,-113.7391,-2.713,-8.3478
2620,0.0,-11.0363,-5.6331,-121.5304,-4.6609,-9.6
2625,-0.0383,-11.726,-6.5145,-129.9478,-6.6783,-10.713
2630,-0.1533,-12.1092,-6.9743,-137.0435,-8.0696,-11.7565
2635,-0.1533,-12.3391,-7.3192,-140.9391,-9.5304,-12.5217
2640,0.0,-12.684,-7.3192,-140.313,-10.7826,-13.4957
2645,0.0766,-13.0672,-7.1659,-135.0261,-11.5478,-14.0522
2650,0.3449,-13.2971,-7.0509,-126.0522,-11.7565,-14.2609
2655,0.5365,-13.6804,-6.8977,-114.6435,-11.3391,-14.1217
2660,0.7281,-14.0636,-6.8593,-101.9826,-10.3652,-13.1478
2665,0.8047,-13.9869,-6.8977,-89.2522,-9.0435,-11.4087
2670,0.958,-13.9869,-7.0893,-77.4261,-7.7217,-9.0435
2675,0.9197,-13.5271,-7.2809,-66.6435,-7.0957,-6.5391
2680,1.1113,-13.2971,-7.4725,-56.8348,-6.8174,-4.5913
2685,0.958,-13.1055,-7.6257,-48.3478,-7.3043,-3.6174
2690,1.0346,-12.684,-7.4725,-41.2522,-8.6261,-3.6174
2695,0.9197,-12.3391,-7.8557,-35.8261,-10.4348,-3.7565
2700,0.9197,-12.1475,-7.8557,-31.6522,-12.5217,-4.1043
2705,0.9963,-11.7643,-7.6641,-28.313,-14.8174,-4.9391
2710,1.1113,-11.6494,-7.7024,-24.7652,-16.7652,-5.913
2715,0.843,-11.3811,-7.7024,-20.5217,-17.8087,-6.7478
2720,0.7281,-11.1895,-7.9706,-15.0957,-17.5304,-7.1652
2725,0.8047,-11.2279,-8.1239,-8.3478,-15.7217,-7.2348
2730,0.8047,-11.2662,-8.0856,-0.5565,-12.2435,-7.0261
2735,0.843,-11.3428,-8.1622,8.0,-7.3739,-7.2348
2740,0.958,-11.4578,-7.9706,16.8348,-1.8087,-7.513
2745,0.8814,-11.7643,-7.779,26.6435,3.6174,-7.6522
2750,0.958,-11.9943,-7.6257,37.1478,8.1391,-7.6522
2755,0.958,-12.1859,-7.3192,48.1391,11.687,-7.2348
2760,1.2646,-12.3391,-7.0893,58.713,13.6348,-6.7478
2765,1.3412,-12.3775,-6.8593,68.5217,13.8435,-6.7478
2770,1.2263,-12.4541,-6.6294,77.287,12.8,-7.3043
2775,1.2263,-12.684,-6.3995,84.8696,10.7826,-7.4435
2780,1.073,-12.5691,-6.3229,91.3391,8.4174,-7.0261
2785,1.1879,-12.6074,-6.2079,96.7652,5.913,-6.2609
2790,1.1496,-12.4541,-6.0546,101.0783,3.5478,-5.0783
2795,1.2263,-12.5691,-6.0929,104.6957,1.7391,-3.2
2800,1.1879,-12.4158,-5.978,107.5478,0.487,-1.1826
2805,1.1879,-12.3775,-5.7864,110.1217,-0.0696,0.7652
2810,1.1113,-12.3391,-5.6331,113.0435,-0.1391,2.6435
2815,1.073,-12.2625,-5.5948,116.1739,0.0,3.9652
2820,1.1496,-12.1859,-5.3648,120.2783,1.0435,4.8696
2825,1.1496,-12.1859,-5.02,125.2174,2.5043,5.2174
2830,1.2263,-12.1092,-4.8667,130.9217,4.8696,5.2174
2835,1.1113,-11.9559,-4.905,136.1391,7.2348,4.8
2840,0.9963,-11.7643,-4.905,140.0348,9.6,4.1043
2845,1.1496,-11.8027,-4.5601,143.5826,11.7565,3.4783
2850,1.3029,-11.8027,-4.5218,146.9217,13.287,2.5043
2855,0.843,-11.4578,-4.4068,148.9391,14.1217,1.113
2860,1.1113,-11.3811,-4.4068,150.4,14.887,-0.0696
2865,0.8814,-11.0363,-4.062,150.1217,14.887,-1.1826
2870,0.8047,-10.6914,-4.4068,149.7739,15.1652,-2.4348
2875,0.6514,-10.4231,-3.8704,148.3826,15.7913,-3.4783
2880,0.5365,-10.0399,-3.7554,147.2696,16.6261,-4.0348
2885,0.6131,-9.9633,-3.8704,145.6,17.2522,-4.8696
2890,0.3832,-9.81,-3.8704,143.513,17.2522,-5.5652
2895,0.5365,-9.5418,-3.9087,140.1043,17.113,-6.0522
2900,0.3449,-9.3502,-3.8704,135.513,16.7652,-6.0522
2905,0.5365,-8.967,-3.7171,129.4609,16.0,-6.1217
2910,0.4982,-8.6604,-3.8704,123.3391,15.3043,-6.2609
2915,0.5748,-8.4688,-3.832,116.7304,14.8174,-5.7739
2920,0.5365,-8.2005,-3.6404,110.1913,14.5391,-5.2174
2925,0.2682,-8.0473,-3.1423,104.2783,14.4,-4.3826
2930,0.3066,-7.8173,-3.2189,100.4522,14.6783,-3.5478
2935,0.3832,-7.7024,-2.9507,98.3652,14.8174,-1.9478
2940,0.3832,-7.779,-2.989,96.3478,14.6783,0.0696
2945,0.3832,-7.5874,-2.6824,95.0261,14.6087,2.5043
2950,0.4215,-7.5108,-2.5291,94.0522,14.1913,4.4522
2955,0.4215,-7.5108,-2.4142,93.3565,13.6348,6.1217
2960,0.6131,-7.4725,-2.2226,93.4261,13.1478,7.513
2965,0.7281,-7.4341,-2.0693,92.8696,12.6609,8.5565
2970,0.7281,-7.3575,-2.2609,93.4957,12.5913,8.7652
2975,0.7664,-7.2809,-1.9543,94.887,12.5913,8.487
2980,0.9197,-7.3958,-1.9927,96.9043,12.6609,7.513
2985,0.7664,-7.3192,-2.031,99.2696,12.9391,6.5391
2990,0.7281,-7.2809,-1.8011,99.8957,12.8,5.7043
2995,0.7664,-7.0893,-2.1076,99.8957,12.8,4.7304
