timestamp,accX,accY,accZ,gyroX,gyroY,gyroZ
0,9.9633,0.115,0.0766,4.4522,0.9043,-0.9739
5,10.0399,0.1533,0.0383,4.1739,0.9043,-0.9739
10,10.0399,0.0766,0.1916,3.9652,0.9043,-0.9043
15,10.0782,0.0383,0.0383,3.687,1.0435,-0.9043
20,9.9633,0.0383,0.0383,3.6174,1.0435,-0.8348
25,9.925,0.0766,-0.3449,3.4783,1.1826,-0.6957
30,10.0016,0.1533,0.1533,3.4783,1.0435,-0.6261
35,10.0782,0.115,0.0383,3.4087,0.9739,-0.6957
40,9.9633,0.0383,0.115,3.4783,1.0435,-0.6957
45,10.0782,0.115,0.1533,3.4783,1.0435,-0.6261
50,9.9633,0.115,0.0383,3.5478,0.9739,-0.6261
55,9.9633,0.1533,0.0766,3.5478,0.9739,-0.7652
60,10.0399,0.0766,0.1533,3.5478,0.9739,-0.6957
65,9.925,0.1533,0.115,3.3391,0.9043,-0.6957
70,10.0782,0.0383,0.0766,3.2,0.8348,-0.5565
75,10.0016,0.115,0.115,2.9913,0.7652,-0.6261
80,9.9633,0.0383,0.0,2.713,0.7652,-0.5565
85,9.8866,0.115,0.1533,2.5043,0.6261,-0.5565
90,10.0016,0.0383,0.0383,2.1565,0.6261,-0.6261
95,9.9633,0.1533,0.0383,2.0174,0.5565,-0.5565
100,10.0782,0.1916,0.115,1.8783,0.4174,-0.6261
105,9.925,0.0383,0.0766,1.8783,0.3478,-0.6957
110,9.925,0.0766,0.0,1.9478,0.4174,-0.8348
115,9.9633,0.0,0.2299,1.9478,0.487,-0.7652
120,9.9633,0.0766,0.0766,2.2261,0.487,-0.7652
125,9.925,0.0383,0.0383,2.4348,0.6261,-0.9739
130,9.9633,0.115,0.1533,2.4348,0.7652,-0.9739
135,9.925,0.115,0.0,2.4348,0.8348,-1.0435
140,9.8483,0.115,0.0383,2.4348,0.8348,-0.9739
145,10.0016,0.0383,0.0766,2.2957,0.7652,-0.9043
150,10.0399,0.1916,0.0,2.1565,0.8348,-0.9739
155,10.0016,0.0766,0.115,1.9478,0.6957,-0.9043
160,10.0016,0.115,0.115,1.8087,0.6261,-0.8348
165,10.0782,0.0766,-0.0766,1.7391,0.5565,-0.8348
170,10.0016,0.115,0.1916,1.8783,0.4174,-0.7652
175,9.925,0.0766,0.0383,1.9478,0.2783,-0.7652
180,10.0016,0.115,0.0383,2.1565,0.2087,-0.7652
185,9.9633,0.1533,0.1533,2.3652,0.2087,-0.8348
190,10.1166,0.0,0.0766,2.4348,0.2783,-0.9043
195,10.0399,0.1533,0.115,2.5043,0.2783,-0.9043
200,9.925,0.0766,0.0383,2.5739,0.3478,-0.9043
205,9.9633,0.0766,0.115,2.5043,0.2783,-0.9043
210,10.0016,0.115,0.0766,2.5739,0.2783,-0.7652
215,10.1166,0.0383,0.0766,2.4348,0.2087,-0.8348
220,9.8866,0.2299,0.0766,2.2957,0.2783,-0.7652
225,10.0399,0.115,0.0766,2.1565,0.2087,-0.6261
230,9.925,0.115,0.1916,2.0174,0.1391,-0.5565
235,10.0016,0.115,0.0,1.8783,0.0696,-0.6261
240,10.1549,0.0,0.2682,1.7391,0.1391,-0.5565
245,10.0016,0.1916,0.115,1.7391,0.0,-0.6261
250,10.0399,0.115,0.0383,1.7391,0.0696,-0.6261
255,10.0399,0.0383,0.0383,1.7391,0.1391,-0.6261
260,10.0782,0.1533,0.0766,1.8087,0.1391,-0.6261
265,9.9633,0.1533,0.0383,1.9478,0.1391,-0.6957
270,10.0399,0.0383,0.0,2.0174,0.2087,-0.6957
275,10.1166,0.0766,0.0766,2.0174,0.2783,-0.6957
280,10.0782,0.0383,0.0766,2.0174,0.487,-0.6261
285,10.0016,0.0383,0.0,1.8783,0.6261,-0.6957
290,10.0016,0.0766,0.0766,1.7391,0.8348,-0.6957
295,9.9633,0.1533,0.1533,1.7391,0.7652,-0.6957
300,9.925,0.0383,0.1533,1.6696,0.9043,-0.6957
305,10.0399,0.1533,0.115,1.6696,0.9739,-0.6957
310,10.0016,0.0383,0.0383,1.6696,0.9043,-0.5565
315,9.9633,0.0383,0.0,1.8087,0.9043,-0.6261
320,10.0399,0.0766,0.0766,1.8783,0.8348,-0.6957
325,10.0399,0.0383,0.0,2.0174,0.7652,-0.6261
330,10.0399,0.0,0.0,2.1565,0.7652,-0.6261
335,9.9633,0.0766,0.0,2.087,0.6957,-0.7652
340,10.0399,0.0766,0.0383,2.0174,0.6957,-0.7652
345,9.8866,0.115,0.0766,2.1565,0.7652,-0.6957
350,10.0016,0.0,0.0383,2.2957,0.6957,-0.6957
355,10.1166,0.0,0.3832,2.2957,0.7652,-0.6957
360,10.1166,0.0383,0.0766,2.4348,0.7652,-0.6261
365,9.81,0.115,0.0766,2.3652,0.8348,-0.6261
370,9.9633,0.1533,0.0383,2.1565,0.9043,-0.6261
375,10.0016,0.1533,0.0383,1.8783,0.8348,-0.6261
380,10.0016,0.0,0.1916,1.3913,0.9043,-0.7652
385,9.925,0.0,0.0766,1.0435,0.6261,-0.6957
390,9.9633,0.0,0.1533,0.7652,0.4174,-0.7652
395,9.9633,0.0,0.0,0.8348,0.0696,-0.8348
400,9.925,0.0,0.0766,0.9739,-0.2087,-0.8348
405,10.0782,0.0383,0.0,1.0435,-0.4174,-0.9739
410,9.9633,0.0383,0.1533,1.1826,-0.487,-0.9739
415,9.9633,0.0,0.0766,1.4609,-0.487,-1.0435
420,9.925,0.0383,0.0766,1.6,-0.487,-1.0435
425,9.925,0.0766,0.0383,2.0174,-0.3478,-0.9739
430,10.0399,0.0,0.0383,2.3652,-0.1391,-1.113
435,10.0016,0.0383,0.0,2.8522,0.0,-0.9739
440,10.0016,0.0383,0.0,3.2696,0.0696,-1.0435
445,9.9633,0.0383,0.0766,3.687,0.2783,-0.9739
450,10.0399,0.0383,-0.0383,4.1043,0.5565,-0.9043
455,10.0399,0.1533,0.0383,4.3826,0.5565,-0.8348
460,10.1166,0.0383,0.0,4.3826,0.5565,-0.6957
465,10.1166,0.0766,0.0766,4.313,0.5565,-0.6957
470,10.0016,0.0766,0.0,4.3826,0.5565,-0.487
475,10.0782,0.0766,0.0,4.3826,0.5565,-0.4174
480,10.0016,0.0766,0.0,4.5217,0.6261,-0.487
485,9.9633,0.0766,-0.0383,4.6609,0.7652,-0.487
490,9.9633,0.0766,0.0,4.7304,0.8348,-0.487
495,9.925,0.0766,0.0766,4.8696,0.7652,-0.3478
500,10.0016,0.1533,0.115,4.8696,0.8348,-0.3478
505,9.925,0.0766,0.0766,4.9391,0.7652,-0.4174
510,10.0399,0.0766,0.0383,4.9391,0.9043,-0.4174
515,10.0782,0.0383,0.0,5.0087,0.9739,-0.487
520,10.0016,0.115,0.0383,5.0783,1.0435,-0.487
525,9.9633,0.115,0.0,5.0783,1.113,-0.487
530,10.0399,0.1533,0.115,5.0783,1.113,-0.487
535,10.0782,0.0383,0.1533,5.2174,1.113,-0.6261
540,10.0782,0.0383,0.0766,5.4261,1.113,-0.6261
545,10.0016,0.0,0.1533,5.5652,1.1826,-0.5565
550,10.0016,0.0383,0.0383,5.6348,1.0435,-0.6957
555,9.925,0.1533,0.0,5.8435,0.9739,-0.6261
560,10.0782,0.0766,0.0766,6.0522,0.9043,-0.5565
565,10.0016,0.0383,0.0766,6.0522,0.9043,-0.5565
570,10.1932,0.0766,0.0766,6.1217,0.9043,-0.7652
575,10.0399,0.0383,0.0766,6.2609,0.9043,-0.7652
580,9.9633,0.0,0.0,6.4,0.9739,-0.6957
585,9.8866,0.1916,0.115,6.4696,1.0435,-0.9043
590,10.0016,0.0383,0.0383,6.5391,1.0435,-0.9043
595,10.0782,0.0,0.115,6.6087,1.0435,-0.9739
600,9.9633,0.0766,0.1533,6.6783,1.0435,-0.9043
605,9.9633,0.1533,0.0766,6.7478,1.0435,-0.9043
610,9.9633,0.1533,0.115,6.6783,1.0435,-0.9043
615,10.0399,0.0383,0.0383,6.4696,0.9739,-0.9043
620,9.925,0.0383,0.0383,6.3304,0.9043,-0.9043
625,10.0782,0.115,-0.0383,6.2609,0.9043,-0.7652
630,9.9633,0.0766,0.0,6.3304,0.9043,-0.7652
635,9.9633,0.0383,0.115,6.2609,0.8348,-0.8348
640,10.0016,0.0766,0.0383,6.2609,0.7652,-0.8348
645,10.0782,0.0383,0.0383,6.3304,0.5565,-0.9043
650,10.0399,0.0766,0.115,6.3304,0.487,-0.9739
655,9.9633,0.0383,0.0,6.4,0.487,-1.0435
660,10.0399,0.115,0.0383,6.5391,0.4174,-1.0435
665,10.0016,0.0383,0.1533,6.6783,0.3478,-1.113
670,10.0399,0.0383,0.2299,6.8174,0.2087,-1.1826
675,9.8866,0.0383,0.0,6.9565,0.2783,-1.113
680,9.925,0.115,0.0383,7.0957,0.4174,-1.113
685,10.0016,0.0,0.0766,7.0957,0.3478,-1.0435
690,9.925,0.1533,0.0383,7.0957,0.487,-0.9739
695,9.925,0.115,0.0,6.9565,0.6261,-0.8348
700,10.0399,0.0,0.0766,6.9565,0.7652,-0.9043
705,9.9633,0.0383,0.0766,6.887,0.6261,-0.8348
710,9.925,0.0766,0.0383,6.8174,0.5565,-0.8348
715,9.9633,0.0383,-0.0383,6.6783,0.5565,-0.6957
720,9.9633,0.0383,0.0766,6.887,0.487,-0.6957
725,10.0399,0.115,0.0383,6.887,0.487,-0.7652
730,9.9633,0.0383,0.0383,7.0261,0.487,-0.7652
735,9.925,0.0766,0.2682,7.2348,0.5565,-0.8348
740,10.0399,0.0766,0.0383,7.513,0.4174,-0.7652
745,10.0399,0.0766,0.115,7.7217,0.4174,-0.7652
750,10.0782,0.1916,0.0766,7.7913,0.4174,-0.9739
755,9.925,0.115,0.0383,7.7217,0.4174,-0.9739
760,10.0782,0.0766,0.0,7.513,0.2783,-0.7652
765,9.8866,0.115,-0.0383,7.1652,0.3478,-0.6957
770,10.1932,0.2299,0.0,6.887,0.3478,-0.5565
775,9.9633,0.1533,-0.115,6.4696,0.2783,-0.4174
780,10.0782,0.0766,0.0,6.2609,0.1391,-0.487
785,10.0016,0.0383,0.0,6.0522,0.2087,-0.3478
790,9.9633,0.0,0.0383,5.8435,0.2087,-0.3478
795,10.0016,0.0766,0.0383,5.6348,0.2783,-0.2087
800,9.9633,0.0766,0.0383,5.5652,0.2087,-0.3478
805,10.0016,0.0383,0.115,5.4957,0.2783,-0.4174
810,9.8866,0.0383,0.0,5.6348,0.3478,-0.5565
815,9.8866,0.0383,0.0383,5.7043,0.4174,-0.6261
820,9.9633,0.0383,0.0,5.7043,0.4174,-0.6261
825,10.0016,0.0,0.0383,5.7043,0.487,-0.6261
830,9.8866,0.0383,0.115,5.7043,0.4174,-0.7652
835,9.925,0.115,0.0383,5.7043,0.2783,-0.7652
840,10.0399,0.115,0.0,5.5652,0.0696,-0.7652
845,10.0399,0.115,0.0766,5.4957,0.0,-0.7652
850,10.0399,0.1916,0.115,5.3565,-0.1391,-0.9043
855,9.925,0.3066,0.0383,5.0087,-0.2783,-0.8348
860,10.0399,0.2682,0.0766,4.5217,-0.6261,-0.6957
865,10.0016,0.3449,0.3066,3.6174,-1.1826,-0.5565
870,9.9633,0.3066,0.2682,2.5043,-1.8783,-0.4174
875,10.0782,0.3832,0.2299,1.0435,-2.8522,-0.1391
880,9.925,0.4598,0.4598,-0.7652,-3.8261,0.4174
885,10.1166,0.6131,0.4215,-2.8522,-4.9391,1.1826
890,10.2315,0.6514,0.1916,-5.4261,-5.9826,2.2261
895,10.0399,0.8047,0.1533,-8.6957,-7.4435,3.2696
900,9.9633,1.073,-0.4598,-11.8261,-8.6957,4.1043
905,9.9633,0.7664,-0.0383,-14.8174,-10.0174,5.0087
910,10.1549,0.843,-0.4215,-18.2957,-10.6435,5.8435
915,10.2315,0.7281,-0.4982,-23.2348,-10.6435,6.3304
920,10.2698,0.7664,-0.4215,-27.8957,-9.6,7.2348
925,10.2698,0.6898,-0.6514,-33.3217,-10.087,8.2087
930,10.4614,0.4598,-0.3832,-38.2609,-9.8087,8.2783
935,10.3465,0.1916,-0.3449,-41.9478,-8.487,8.2783
940,10.1932,0.0766,-0.1533,-44.3826,-7.0261,8.3478
945,10.1549,-0.3066,-0.0383,-45.3565,-6.2609,8.3478
950,9.9633,-0.2682,0.0,-44.9391,-5.9826,8.2087
955,10.1166,-0.5365,0.0766,-43.3391,-5.8435,8.0696
960,10.0399,-0.6898,-0.1533,-41.113,-5.1478,7.8609
965,10.0782,-0.8047,0.0,-37.3565,-3.1304,7.7913
970,10.1549,-0.6514,-0.5748,-32.8348,-0.2783,7.3739
975,10.2698,-0.5365,-0.6898,-29.9826,2.3652,6.8174
980,10.3082,-0.3449,-0.958,-28.8696,4.5913,6.7478
985,10.2698,-0.115,-0.9197,-29.0783,6.887,7.1652
990,10.3848,0.0766,-0.958,-30.1913,9.1826,8.2087
995,10.4231,0.0766,-0.8814,-32.1391,11.4087,9.3217
1000,10.4998,0.0383,-0.7281,-34.5739,13.2174,10.1565
1005,10.653,0.0383,-0.4982,-37.0087,14.1217,10.0174
1010,10.5381,0.1533,-0.3832,-39.0261,14.5391,9.1826
1015,10.6147,0.0,-0.4598,-40.2087,14.1913,7.8609
1020,10.7297,0.0383,-0.4982,-40.5565,13.6348,6.6087
1025,10.8063,-0.115,-0.4982,-39.9304,13.2174,5.2174
1030,10.8063,-0.2299,-0.5748,-38.6087,13.4261,4.2435
1035,10.6914,-0.3449,-0.3832,-36.5217,14.2609,3.5478
1040,10.4998,-0.4982,-0.3449,-34.1565,15.0261,3.0609
1045,10.4231,-0.6131,-0.3449,-31.513,14.9565,2.6435
1050,10.2315,-0.6131,-0.3066,-28.7304,14.3304,2.4348
1055,10.1549,-0.5748,-0.4215,-25.8783,13.1478,2.4348
1060,10.0399,-0.5748,-0.3449,-22.9565,12.4522,2.713
1065,10.0782,-0.4982,-0.1916,-20.2435,12.5217,3.0609
1070,10.0782,-0.4598,-0.0766,-17.6696,13.0783,3.4783
1075,9.925,-0.0766,0.0383,-15.0261,14.0522,3.8261
1080,9.7717,-0.0383,0.0766,-12.6609,14.9565,4.313
1085,9.8866,0.115,0.1916,-10.7826,15.6522,5.2174
1090,9.8483,0.3449,0.115,-9.6,16.3478,6.3304
1095,9.8866,0.5365,0.3832,-8.9043,16.6957,7.6522
1100,9.9633,0.4982,0.4215,-8.5565,17.2522,8.7652
1105,9.9633,0.6514,0.5748,-8.8348,17.6696,10.087
1110,9.8483,0.7664,0.5365,-9.4609,17.7391,11.3391
1115,9.8483,0.7664,0.6898,-9.9478,17.8783,12.6609
1120,9.7334,0.7281,0.6514,-10.2957,18.087,13.7043
1125,9.7717,0.6514,0.7281,-10.2957,18.4348,14.3304
1130,9.81,0.7281,0.7281,-10.2957,18.5043,14.5391
1135,9.7717,0.6898,0.958,-10.3652,17.6,14.4696
1140,9.7334,0.8047,1.0346,-10.7826,16.0,14.3304
1145,9.6184,1.073,0.958,-11.5478,14.6783,14.3304
1150,9.5034,1.3029,0.7664,-12.5913,14.1913,14.9565
1155,9.5034,1.4179,0.6131,-14.0522,14.2609,16.0696
1160,9.5418,1.3412,0.7281,-15.7913,14.1913,17.8087
1165,9.6567,1.4179,0.6898,-17.3913,13.8435,19.687
1170,9.925,1.4945,0.6131,-18.713,13.5652,21.7043
1175,10.1549,1.7627,0.4982,-19.687,13.4957,24.0696
1180,10.1932,1.8777,0.5748,-21.0783,13.6348,26.5739
1185,10.1549,2.0693,0.5748,-23.2348,13.8435,28.8696
1190,10.3082,2.1076,0.4598,-25.6696,13.6348,31.3739
1195,10.2698,1.8011,0.3832,-28.8,12.6609,34.087
1200,10.1166,1.916,0.2299,-32.6957,11.0609,36.5913
1205,10.0782,1.8394,0.2682,-36.6609,9.7391,39.4435
1210,9.925,1.8394,0.4598,-40.5565,9.4609,42.6435
1215,10.0782,1.6095,0.4982,-44.2435,9.1826,45.287
1220,10.1166,1.2646,0.5365,-47.7217,8.5565,47.7217
1225,10.1932,0.958,0.8047,-50.5739,7.8609,49.8783
1230,10.3082,0.5748,0.7664,-52.5217,7.3043,51.2696
1235,10.0016,0.4982,0.9197,-53.4957,6.7478,52.6609
1240,9.6184,0.2682,1.073,-53.4957,6.3304,54.1217
1245,9.5034,0.0766,1.1113,-53.287,5.5652,55.5826
1250,9.5801,0.0383,1.1879,-53.4261,3.1304,56.487
1255,9.5801,-0.115,1.1879,-54.0522,0.2087,57.5304
1260,9.6184,-0.2682,1.2263,-53.6348,-2.4348,58.4348
1265,9.81,-0.2682,1.3795,-52.7304,-4.5217,59.4087
1270,9.925,-0.4598,1.3412,-51.2696,-6.0522,59.9652
1275,9.7717,-0.5365,1.2646,-49.6,-7.513,60.6609
1280,9.81,-0.4982,0.843,-48.1391,-9.3217,61.6348
1285,10.2698,-0.5365,0.6514,-47.3043,-10.3652,63.1652
1290,10.1932,-0.5748,0.3449,-46.6087,-10.5739,63.8609
1295,10.1166,-0.7664,0.4215,-45.287,-9.2522,64.6957
1300,10.1166,-1.0346,0.3449,-43.1304,-7.0957,66.0174
1305,10.0016,-1.3412,0.4982,-40.2783,-4.5913,67.6174
1310,9.8483,-1.4945,0.3449,-36.6609,-2.2261,69.0783
1315,9.9633,-1.7627,0.2299,-32.1391,-0.487,70.6087
1320,10.2698,-1.8777,0.0766,-26.9217,0.0,71.8609
1325,9.8866,-1.9543,0.1916,-21.0087,-0.9043,73.113
1330,10.0399,-1.8394,0.115,-15.8609,-2.5739,73.8783
1335,10.2315,-1.916,0.0,-12.0348,-4.1739,74.6435
1340,10.1932,-1.8394,0.0383,-8.9043,-5.7043,75.6174
1345,10.3848,-1.8011,0.0,-6.5391,-6.887,76.7304
1350,10.3465,-1.8777,-0.115,-5.0087,-7.5826,77.913
1355,10.0782,-1.8777,-0.3066,-4.1043,-7.9304,79.3739
1360,9.9633,-2.031,-0.2682,-3.5478,-7.6522,80.9739
1365,9.8866,-1.9927,-0.3832,-3.8261,-7.3739,82.4348
1370,9.8866,-2.1076,-0.5365,-4.2435,-7.5826,83.6174
1375,9.6184,-2.3375,-0.5748,-4.9391,-7.513,84.4522
1380,9.4268,-2.5291,-0.5748,-5.287,-8.0,85.6348
1385,9.4268,-2.6824,-0.5365,-5.0783,-8.6261,86.6087
1390,9.4651,-3.0273,-0.6898,-4.5913,-8.7652,86.887
1395,9.3118,-3.3339,-0.6131,-3.6174,-8.4174,86.6783
1400,9.2735,-3.4105,-0.4982,-2.3652,-8.4174,86.2609
1405,9.1586,-3.4871,-0.6514,-0.6261,-9.2522,85.913
1410,8.8903,-3.3722,-0.6898,0.9043,-9.9478,85.2174
1415,8.8137,-3.6404,-0.958,2.4348,-10.5043,84.5217
1420,8.737,-3.7554,-0.9963,4.1739,-10.5043,84.313
1425,8.6987,-3.6787,-0.9963,6.3304,-9.7391,84.4522
1430,8.6604,-3.8704,-0.8047,8.5565,-8.4174,84.7304
1435,8.5454,-3.9853,-0.5748,10.3652,-7.2348,85.287
1440,8.3155,-4.2919,-0.2682,12.8,-6.6783,85.8435
1445,8.5454,-4.062,-0.5748,15.3739,-7.3739,86.6087
1450,9.1969,-4.1003,-0.6131,15.4435,-6.2609,87.3043
1455,9.0053,-4.1769,-0.4215,15.1652,-2.9913,87.3739
1460,9.1586,-4.1769,-0.2299,14.1913,-0.6261,87.8609
1465,9.3118,-4.2536,-0.2299,12.7304,0.6261,88.7652
1470,9.4651,-4.2152,-0.3832,10.9913,1.7391,89.2522
1475,9.5801,-4.2536,-0.5748,8.9739,2.4348,89.3913
1480,9.81,-4.3302,-0.9197,7.3043,3.4087,89.6696
1485,10.0016,-4.2919,-1.1113,6.4,5.4261,89.6
1490,10.3082,-4.5984,-1.0346,6.4,9.3217,89.0435
1495,10.1549,-4.5218,-0.8814,7.4435,14.3304,87.7913
1500,10.0016,-4.4835,-0.6514,8.6261,19.2,86.4696
1505,9.7717,-4.3685,-0.4982,9.3217,23.3739,85.0087
1510,9.4651,-4.3302,-0.4215,9.4609,26.6435,83.8957
1515,9.2735,-4.4452,-0.4598,9.0435,29.1478,83.0609
1520,9.0819,-4.5218,-0.5365,8.2087,31.5826,82.4348
1525,9.1202,-4.5601,-0.6514,7.2348,33.3913,82.1565
1530,8.852,-4.5984,-0.6898,6.1913,35.0609,82.1565
1535,8.6604,-4.5601,-0.8047,5.4957,36.8696,82.2957
1540,8.5454,-4.5218,-0.5748,5.3565,38.9565,82.6435
1545,8.6604,-4.7134,-0.8047,5.9826,41.113,83.3391
1550,8.6221,-4.8667,-0.7664,7.513,43.2696,83.687
1555,8.6221,-4.8284,-0.4215,9.3217,45.1478,83.8261
1560,8.5071,-4.7134,-0.6514,11.0609,46.8174,84.0348
1565,8.6221,-4.79,-0.6131,11.687,48.6957,83.8957
1570,8.5454,-4.8284,-0.3449,11.687,50.0174,83.6174
1575,8.4688,-4.8284,-0.5748,11.2,50.9217,83.4783
1580,8.4688,-4.8284,-0.6514,10.6435,51.687,83.8261
1585,8.2389,-4.8667,-0.6514,9.8783,52.1739,84.3826
1590,8.0856,-4.7517,-0.6514,8.9739,52.5217,84.8696
1595,8.2772,-4.905,-0.6514,8.0696,53.7043,85.6348
1600,8.0473,-5.2499,-0.2299,6.5391,56.2783,86.1913
1605,7.9323,-5.2499,-0.2299,5.8435,58.2957,87.0957
1610,7.894,-5.5948,-0.1916,6.1217,59.8261,88.0
1615,7.894,-5.5181,-0.1916,6.8174,60.5217,88.9043
1620,7.9323,-5.4798,-0.0766,7.7217,61.1478,89.7391
1625,7.8173,-5.5564,0.0,8.9739,61.913,90.2957
1630,7.9323,-5.7097,-0.3449,10.7826,62.6783,91.1304
1635,8.0089,-5.7864,-0.3449,12.7304,63.2348,92.0348
1640,8.0473,-5.7864,-0.3066,14.6087,64.1391,92.5217
1645,8.0473,-6.0163,-0.0383,16.4174,65.3913,93.1478
1650,8.0473,-5.7864,0.0,18.0174,66.9217,94.3304
1655,7.8173,-5.7097,0.2682,19.0609,67.8957,95.0261
1660,7.6257,-5.6331,0.3832,18.9913,68.1739,95.2348
1665,7.5874,-5.4032,0.3449,17.8783,68.1043,95.4435
1670,7.3575,-5.7097,0.5748,16.0696,68.1739,95.7913
1675,7.3575,-5.6714,0.6514,14.0522,67.9652,97.2522
1680,7.3575,-5.9013,0.5748,12.6609,68.313,98.3652
1685,7.2042,-5.6714,0.7281,12.1739,69.3565,98.9913
1690,7.1659,-5.9013,0.8047,12.4522,70.6087,99.2696
1695,7.3192,-5.978,0.9197,13.0783,72.2783,99.2696
1700,7.1276,-5.9013,1.2646,13.3565,73.113,99.1304
1705,7.2042,-5.9013,1.3029,13.6348,72.487,99.0609
1710,7.3958,-6.0929,1.0346,14.3304,71.2348,98.8522
1715,7.5874,-6.3612,0.9197,15.5826,70.2609,98.087
1720,7.6257,-6.3612,0.8814,17.1826,70.1913,96.9043
1725,7.6257,-6.4378,0.8814,18.3652,70.9565,95.8609
1730,7.6641,-6.5145,1.1879,18.9913,70.8174,94.3304
1735,7.5874,-6.2845,1.2646,19.1304,69.5652,92.313
1740,7.4341,-6.2462,1.6861,18.5043,68.5913,90.2261
1745,7.2425,-6.1696,1.916,17.6696,67.7565,88.0696
1750,6.9743,-6.0163,1.9927,16.487,66.9913,86.0522
1755,6.7827,-6.0546,2.1459,15.6522,65.9478,83.9652
1760,6.6677,-5.978,2.4142,15.0957,64.4174,82.2261
1765,6.3229,-5.8247,2.5675,13.7739,63.3043,80.7652
1770,6.1313,-5.8247,2.9123,11.6174,61.5652,79.6522
1775,6.0546,-5.9013,2.874,8.8348,59.4783,78.2609
1780,5.9013,-6.0546,3.1423,5.7043,56.9739,77.0087
1785,5.8247,-6.2845,3.1806,2.8522,54.4,75.2
1790,5.4798,-6.3612,3.2189,-0.0696,51.687,73.6696
1795,5.02,-6.3612,3.0656,-2.7826,48.1391,72.487
1800,4.9433,-6.5145,2.989,-5.4261,44.313,71.9304
1805,4.5601,-6.7827,3.0273,-7.7217,41.0435,72.0696
1810,4.4452,-7.0509,3.1039,-9.6,37.913,73.0435
1815,4.4068,-7.3192,3.1806,-10.7826,34.2261,74.2261
1820,4.4068,-7.3958,3.1806,-11.4783,30.887,75.2
1825,4.5218,-7.5491,3.2572,-11.8957,28.4522,75.9652
1830,4.79,-7.6641,3.0273,-11.2,26.2957,76.2435
1835,4.905,-8.0473,2.9507,-9.7391,24.4174,76.1043
1840,5.02,-8.0856,3.0273,-6.9565,22.9565,75.5478
1845,5.1349,-8.2772,3.0656,-3.2696,21.913,74.2957
1850,5.1349,-8.2005,2.9123,0.7652,21.913,72.6261
1855,4.9816,-8.1622,3.0656,4.6609,22.9565,70.6783
1860,4.5601,-8.0856,3.1806,8.487,23.8609,69.0783
1865,4.2536,-8.0089,2.9507,11.8957,24.1391,67.687
1870,4.2919,-7.779,3.1039,14.4,24.0,66.3652
1875,4.1003,-7.7024,3.2189,15.7913,23.7217,65.2522
1880,4.0236,-7.6641,3.3339,16.5565,23.5826,64.2087
1885,4.2152,-7.894,3.2955,17.2522,23.5826,63.2348
1890,3.9087,-7.9706,3.3339,18.5043,24.4174,62.0522
1895,4.062,-7.894,3.2955,19.4087,25.6696,61.0783
1900,3.947,-7.894,3.1039,19.7565,26.9913,59.9652
1905,3.6787,-8.0089,3.3339,19.0609,28.3826,58.9217
1910,3.5255,-8.0473,3.3722,17.8087,29.8435,57.8783
1915,3.3722,-8.1622,3.5638,15.6522,30.8174,57.0435
1920,3.3339,-8.2389,3.7554,13.4261,31.9304,56.2783
1925,2.989,-8.4305,3.947,11.8261,34.3652,55.4435
1930,2.6058,-8.2389,3.9853,10.7826,37.0087,55.1652
1935,2.6824,-8.3155,4.062,10.1565,39.6522,55.7217
1940,2.4908,-8.2005,3.947,9.4609,41.8783,56.2783
1945,2.6824,-8.3155,3.9087,8.9739,43.2696,55.8609
1950,2.8357,-8.3538,3.6404,8.8348,43.3391,54.887
1955,2.7591,-8.1239,3.2189,8.9739,42.9913,53.5652
1960,2.6824,-8.1622,2.989,9.2522,42.9913,52.313
1965,2.4908,-8.1622,2.874,8.9739,43.2,51.2696
1970,2.3375,-8.3538,2.6441,8.3478,43.3391,50.5043
1975,2.031,-8.3921,2.7207,7.513,43.3391,49.8783
1980,1.8011,-8.4688,2.7207,6.9565,43.0609,49.7391
1985,1.4562,-8.5454,2.874,6.7478,43.0609,49.9478
1990,1.1113,-8.4688,2.874,7.2348,43.3391,50.5739
1995,0.7664,-8.6221,2.9123,8.6261,43.5478,51.2696
2000,0.8047,-8.7754,3.0273,10.5043,43.1304,52.1739
2005,0.843,-8.8903,3.0273,12.313,42.1565,52.8
2010,1.0346,-8.8903,3.1423,13.8435,41.1826,53.287
2015,1.073,-9.0053,3.3722,15.3043,40.3478,53.5652
2020,1.073,-8.967,3.4871,16.5565,39.3739,53.4957
2025,1.0346,-8.967,3.4488,18.2261,38.3304,53.3565
2030,0.958,-8.737,3.2955,19.9652,37.4957,53.2174
2035,0.8814,-8.737,3.1806,21.7043,36.2435,53.3565
2040,1.073,-8.5838,3.1423,23.1652,34.9217,53.4957
2045,0.8814,-8.6221,3.0273,24.1391,33.6,53.287
2050,0.958,-8.6221,3.1806,25.113,32.2783,52.8
2055,1.1879,-8.5838,3.2955,26.1565,30.8174,52.313
2060,1.2646,-8.5454,3.4105,27.6174,29.4261,52.1043
2065,1.1879,-8.5071,3.3722,29.2174,28.313,52.3826
2070,1.2263,-8.5838,3.3722,30.6783,27.2696,52.3826
2075,1.3412,-8.5838,3.3722,31.1652,26.1565,52.2435
2080,1.3795,-8.737,3.7171,31.3739,25.5304,51.9652
2085,1.2263,-8.7754,3.5638,31.9304,24.5565,51.7565
2090,1.3029,-8.967,3.6787,32.0,23.7913,51.6174
2095,1.1879,-8.967,3.6787,32.0,23.3043,51.6174
2100,1.1113,-9.0053,3.6787,32.2783,22.4,51.3391
2105,0.9197,-9.1202,3.6787,32.487,21.0783,51.1304
2110,1.0346,-9.1586,3.6021,32.5565,19.9652,50.6435
2115,1.073,-9.0819,3.4488,32.5565,18.9217,50.1565
2120,0.9963,-9.1202,3.4871,32.6957,18.2261,49.4609
2125,1.0346,-9.1202,3.5255,32.6261,17.5304,48.8348
2130,0.958,-9.0436,3.4105,32.5565,16.2087,48.3478
2135,0.9197,-8.852,3.6021,32.487,14.6783,47.7913
2140,1.1496,-8.852,3.6021,32.6957,13.1478,47.3043
2145,1.3795,-9.0053,3.5255,32.8348,11.8261,46.9565
2150,1.4179,-8.7754,4.0236,32.487,10.6435,46.887
2155,1.4562,-9.0436,3.7554,31.8609,9.9478,46.9565
2160,1.7244,-9.0819,3.7171,30.8174,9.3217,46.7478
2165,1.8394,-9.0819,3.7937,29.7739,8.7652,46.5391
2170,2.031,-9.0436,3.9853,28.8696,8.487,46.1217
2175,2.1459,-8.9286,3.9853,28.1739,8.0696,45.7739
2180,2.1843,-8.7754,3.8704,27.7565,7.8609,45.1478
2185,2.3759,-8.737,3.832,27.687,7.8609,44.5217
2190,2.3375,-8.8137,3.7554,27.9652,7.7913,43.8261
2195,2.4142,-8.737,3.8704,27.8957,7.7913,42.8522
2200,2.4142,-8.6221,3.832,27.4783,8.0696,41.6696
2205,2.5675,-8.6604,3.7937,26.9913,8.4174,40.5565
2210,2.5291,-8.7754,3.832,26.5739,8.6261,39.2348
2215,2.3759,-8.5454,3.9087,25.8783,9.0435,37.913
2220,2.2992,-8.5454,3.7171,25.113,9.6696,36.3826
2225,2.3759,-8.5454,3.8704,24.0696,10.4348,35.2
2230,2.1459,-8.3921,3.832,23.0957,11.2696,34.3652
2235,2.1459,-8.4305,3.947,22.1913,11.8957,33.4609
2240,1.9543,-8.3538,3.7937,21.0087,12.5913,32.2087
2245,1.8394,-8.4305,4.062,20.313,14.4696,31.0261
2250,1.8394,-8.3921,4.1769,20.4522,15.0261,30.1913
2255,1.9927,-8.4688,4.062,20.2435,15.6522,29.287
2260,1.8011,-8.3921,4.1003,19.7565,16.6957,28.1739
2265,1.6861,-8.4305,4.062,19.2,17.6696,27.1304
2270,1.5711,-8.2389,4.062,18.713,18.1565,26.2261
2275,1.6095,-8.4688,4.1769,18.2261,18.6435,25.3913
2280,1.3029,-8.5838,4.1769,17.8087,19.2696,25.1826
2285,1.1879,-8.6604,4.3685,17.8087,20.0348,25.3913
2290,1.1113,-8.6604,4.3302,18.2957,21.1478,25.6
2295,1.0346,-8.5838,4.3685,19.4783,22.2609,26.0174
2300,0.9197,-8.6221,4.1386,21.0783,22.8174,26.7826
2305,0.8047,-8.5071,4.1003,23.1652,23.0261,27.5478
2310,0.6898,-8.4305,3.9853,25.3217,22.6087,28.1043
2315,0.7664,-8.3155,4.062,26.2957,22.1913,28.5913
2320,0.6898,-8.3155,3.7554,26.5739,21.7043,28.8696
2325,0.8814,-8.3155,3.7554,26.5043,21.2174,28.9391
2330,0.958,-8.3155,3.6021,25.8783,20.8696,29.3565
2335,1.1879,-8.2772,3.7937,24.6957,21.1478,29.8435
2340,1.4945,-8.6604,3.8704,23.2348,22.1913,30.4
2345,1.4945,-8.6604,4.1003,21.7739,23.7217,31.0957
2350,1.4945,-8.8903,4.2919,20.8,25.3913,31.3739
2355,1.3795,-9.0819,4.3685,20.3826,26.3652,30.9565
2360,1.2263,-9.0053,4.5218,20.7304,26.7826,29.8435
2365,1.073,-9.0053,4.4835,21.4957,26.4348,28.1739
2370,0.8047,-8.967,4.3302,22.1913,25.6,26.0174
2375,0.958,-9.0053,4.4452,22.5391,24.487,23.4435
2380,0.4215,-9.0436,4.5218,22.8174,23.5826,20.7304
2385,0.4982,-9.2352,4.4068,23.0957,21.4261,18.6435
2390,0.4598,-9.1586,4.4068,23.0957,19.8957,16.7652
2395,0.3449,-9.0819,4.4452,23.0957,19.2,15.6522
2400,0.2682,-9.0436,4.5601,23.1652,19.2696,14.887
2405,0.0766,-8.967,4.6751,23.5826,19.7565,14.5391
2410,0.0,-8.6604,4.7134,24.3478,20.8,13.9826
2415,-0.3449,-8.6987,4.79,25.2522,21.8435,13.8435
2420,-0.4215,-8.5071,4.8667,26.2261,21.1478,13.4261
2425,-0.6131,-8.3921,4.79,26.7826,20.1739,12.7304
2430,-0.6898,-8.2772,4.9816,26.7826,18.9913,12.1739
2435,-0.8047,-8.0856,4.905,26.1565,17.6,11.7565
2440,-0.843,-7.9706,4.9433,24.9043,16.2783,11.687
2445,-0.9963,-8.0089,4.9816,23.5826,14.8174,11.8261
2450,-1.0346,-7.7024,4.9816,22.3304,13.4261,11.9652
2455,-1.1113,-7.7024,5.0583,20.8696,12.5217,12.2435
2460,-1.1496,-7.5874,5.1732,19.1304,12.1043,12.8
2465,-1.2646,-7.3958,5.2499,16.9739,11.8261,13.0783
2470,-1.3412,-7.3192,5.4415,13.6348,11.7565,13.1478
2475,-1.2646,-7.1276,5.5564,9.0435,11.687,13.2174
2480,-1.3412,-7.0893,5.748,3.0609,11.1304,13.0783
2485,-1.3412,-6.936,5.5564,-4.1043,9.9478,13.0783
2490,-1.3412,-6.936,5.4415,-12.7304,7.6522,12.9391
2495,-1.3412,-7.0126,5.0966,-22.0522,5.0783,12.3826
2500,-1.2646,-7.5108,5.1349,-30.4,2.713,12.3826
2505,-1.4179,-7.9323,5.02,-35.3391,1.0435,12.4522
2510,-1.3029,-8.2772,4.79,-36.0348,-0.2087,12.5913
2515,-1.3412,-8.6221,4.8284,-32.0,-1.0435,12.313
2520,-1.1496,-8.8903,4.6751,-24.2783,-1.2522,12.0348
2525,-1.1113,-8.7754,4.5984,-15.0957,-0.6261,11.2
2530,-1.1113,-8.4305,4.5601,-6.887,0.487,10.3652
2535,-0.958,-8.4688,4.5984,-0.9739,1.2522,9.7391
2540,-0.6898,-8.3155,4.5984,2.4348,1.3913,9.3217
2545,-0.6131,-8.3538,4.6368,4.1739,1.2522,9.0435
2550,-0.6514,-8.3155,4.8667,4.6609,0.9043,9.1826
2555,-0.4598,-8.3538,4.8284,4.2435,0.3478,9.6696
2560,-0.4215,-8.5071,4.6751,3.687,-0.8348,10.1565
2565,-0.3066,-8.5071,4.8284,3.4087,-2.2261,10.7826
2570,-0.0383,-8.5454,4.8284,3.7565,-3.8957,11.2696
2575,0.0383,-8.6987,4.6751,4.5913,-5.4957,11.687
2580,0.0,-8.5838,4.6368,5.3565,-7.0261,12.1739
2585,0.1916,-8.6987,4.5601,6.0522,-8.4174,12.8
2590,0.0766,-8.5071,4.6368,6.6783,-9.113,12.8696
2595,0.0383,-8.5454,4.7517,7.4435,-9.4609,13.0087
2600,0.1533,-8.5071,4.7517,8.4174,-9.6696,13.0783
2605,0.0766,-8.3538,4.79,9.3217,-10.3652,12.9391
2610,0.2299,-8.3155,4.7517,10.3652,-10.3652,12.313
2615,0.1916,-8.0856,4.8284,11.3391,-10.2261,11.7565
2620,0.115,-8.0089,4.5601,11.7565,-10.2957,11.1304
2625,0.1916,-7.9706,4.5984,11.6174,-10.1565,10.8522
2630,0.0766,-7.9706,4.4452,11.0609,-10.1565,10.9217
2635,0.1533,-7.9323,4.5984,10.5043,-10.2261,11.4087
2640,0.2299,-8.1239,4.4835,10.1565,-10.087,11.687
2645,0.0766,-8.0473,4.5984,9.6696,-9.8087,11.7565
2650,0.2299,-8.0089,4.7134,9.0435,-10.0174,11.687
2655,0.3066,-8.0856,4.79,8.5565,-10.2261,11.1304
2660,0.1916,-8.0089,4.6751,8.0,-9.8087,10.5739
2665,0.2682,-8.0856,4.8284,7.2348,-9.7391,9.9478
2670,0.2299,-8.0856,4.79,6.4696,-9.3913,9.3217
2675,0.1916,-8.0856,4.905,5.8435,-9.1826,8.6957
2680,0.3066,-8.2005,4.6368,5.5652,-9.1826,8.3478
2685,0.0766,-8.0856,4.6751,5.4261,-9.0435,7.8609
2690,0.1533,-8.2389,4.5601,5.3565,-8.6261,7.513
2695,-0.0383,-8.2772,4.7517,5.4261,-8.2087,7.4435
2700,0.0383,-8.2389,4.4835,5.7739,-7.8609,7.3739
2705,0.0383,-8.2772,4.6368,6.4696,-7.2348,7.3043
2710,-0.115,-8.3538,4.7134,7.3043,-6.9565,7.3739
2715,-0.1916,-8.2389,4.7517,8.2783,-6.7478,7.3739
2720,-0.4215,-8.1239,4.6751,9.2522,-6.3304,7.2348
2725,-0.0766,-8.1239,4.7517,10.2261,-6.4,7.0957
2730,0.0,-8.0473,4.905,11.0609,-5.9826,6.9565
2735,-0.0383,-7.894,4.905,11.687,-5.0783,6.6087
2740,-0.0383,-7.9323,4.7517,11.9652,-4.5217,6.3304
2745,-0.3066,-7.8173,4.8667,11.8261,-4.1043,5.8435
2750,-0.2682,-7.8173,4.9433,11.2,-4.1739,5.6348
2755,-0.2299,-7.9706,4.79,10.087,-4.3826,5.287
2760,-0.1916,-7.8557,5.02,9.0435,-4.9391,5.1478
2765,-0.2682,-7.894,4.9433,8.0696,-5.1478,4.8696
2770,-0.2299,-7.9706,4.9816,7.7217,-5.287,4.4522
2775,-0.115,-7.9323,4.8284,7.513,-5.287,4.1043
2780,-0.2299,-7.8173,4.905,7.513,-4.8696,3.6174
2785,0.0,-7.779,4.8284,7.4435,-4.9391,3.4783
2790,0.2682,-7.9323,5.02,7.1652,-4.5913,2.9913
2795,0.3066,-7.8557,4.9433,7.0261,-4.3826,2.3652
2800,0.2682,-7.8557,4.905,6.9565,-4.313,1.2522
2805,0.3066,-7.8173,4.7517,6.4,-5.0087,0.0696
2810,0.4982,-7.9323,4.79,5.0087,-5.5652,-1.2522
2815,0.3832,-7.8173,4.8284,3.2696,-5.3565,-2.087
2820,0.4215,-7.9323,4.7517,1.6696,-4.4522,-2.4348
2825,0.3832,-8.0473,4.8667,0.3478,-3.0609,-2.4348
2830,0.5365,-8.1622,4.8667,-0.9739,-1.9478,-2.5739
2835,0.3832,-8.1239,4.8667,-1.6696,-1.113,-3.0609
2840,0.5365,-8.0856,4.905,-1.5304,-0.2087,-4.1739
2845,0.5365,-8.0089,4.7517,-0.7652,0.9739,-5.4261
2850,0.4215,-7.9706,4.905,0.2783,2.2261,-6.6087
2855,0.1533,-7.894,4.8667,1.2522,3.4087,-7.3739
2860,-0.2299,-7.8173,4.8284,1.7391,4.2435,-7.8609
2865,-0.3066,-8.0089,4.8667,1.6,4.5217,-8.4174
2870,-0.3449,-8.0856,4.905,0.9043,4.2435,-8.6261
2875,-0.3832,-8.1239,4.79,0.1391,4.1739,-8.6261
2880,-0.4215,-8.1239,4.905,-0.5565,4.6609,-8.487
2885,-0.4598,-8.2005,5.02,-1.3217,5.2174,-7.7217
2890,-0.4598,-8.2389,5.02,-1.6696,6.0522,-7.0261
2895,-0.5748,-8.3921,5.02,-1.6696,6.9565,-6.4696
2900,-0.4982,-7.8557,5.2116,-1.0435,7.3043,-6.2609
2905,-0.3832,-8.3155,4.905,-0.2087,7.4435,-6.4
2910,-0.5365,-8.1622,5.0583,0.6261,7.7913,-6.6087
2915,-0.5748,-7.9323,5.02,1.4609,7.7217,-6.7478
2920,-0.6131,-8.0856,5.0583,1.9478,7.1652,-6.8174
2925,-0.6514,-8.0473,4.9816,2.3652,6.3304,-6.8174
2930,-0.7281,-8.0473,5.0583,2.9217,5.4957,-6.9565
2935,-0.7664,-8.2005,4.8667,3.4087,4.8,-7.1652
2940,-0.7281,-8.2389,4.79,3.6174,4.2435,-7.2348
2945,-0.7664,-8.2772,4.6751,3.4783,3.7565,-6.9565
2950,-0.6131,-8.1239,4.5218,3.2,3.3391,-6.5391
2955,-0.5365,-8.3538,4.6368,3.1304,3.2696,-6.3304
2960,-0.5365,-8.3921,4.5984,3.2,3.1304,-6.5391
2965,-0.5365,-8.4305,4.6368,3.4783,3.2,-6.4696
2970,-0.3449,-8.3538,4.5218,3.687,2.8522,-6.4
2975,-0.2299,-8.5071,4.5984,3.8261,2.4348,-5.9826
2980,0.0383,-8.2389,4.5601,4.0348,2.3652,-5.913
2985,0.0,-8.3155,4.4452,4.313,2.6435,-5.7739
2990,0.0383,-8.2389,4.6368,4.8696,2.8522,-5.9826
2995,0.0,-8.2772,4.4452,5.6348,2.8522,-5.9826
