timestamp,accX,accY,accZ,gyroX,gyroY,gyroZ
0,-0.4215,-9.4651,-2.4525,-3.5478,4.8,0.0696
5,-0.4215,-9.5034,-2.4525,-3.6174,4.8696,0.0
10,-0.4215,-9.5418,-2.5675,-3.7565,4.8696,0.0696
15,-0.4982,-9.4651,-2.6058,-4.0348,4.8,0.1391
20,-0.4215,-9.5801,-2.4908,-4.1043,4.8,0.1391
25,-0.4982,-9.6184,-2.3759,-4.2435,4.9391,0.0696
30,-0.4598,-9.5418,-2.3759,-4.313,4.9391,0.1391
35,-0.3832,-9.6184,-2.5675,-4.1739,4.8696,0.0696
40,-0.4598,-9.5801,-2.6824,-3.8957,4.9391,0.0
45,-0.4982,-9.6567,-2.6441,-3.5478,4.9391,0.0
50,-0.4982,-9.5801,-2.6441,-3.2,5.0087,-0.1391
55,-0.4598,-9.5801,-2.7591,-2.7826,5.0087,-0.1391
60,-0.3832,-9.5034,-2.7591,-2.713,5.0783,-0.2087
65,-0.2682,-9.5801,-2.6441,-2.713,5.0087,-0.3478
70,-0.3832,-9.5801,-2.6058,-2.713,4.9391,-0.487
75,-0.4598,-9.5034,-2.6824,-2.8522,4.9391,-0.3478
80,-0.3449,-9.5418,-2.6058,-2.8522,4.9391,-0.3478
85,-0.4982,-9.5034,-2.6441,-2.8522,5.0087,-0.2783
90,-0.2299,-9.6567,-2.4908,-2.9217,4.8696,-0.2783
95,-0.4215,-9.5418,-2.6058,-3.0609,4.9391,-0.2783
100,-0.4215,-9.4651,-2.4525,-3.1304,5.0087,-0.2783
105,-0.4598,-9.5034,-2.5675,-3.2696,4.8696,-0.3478
110,-0.3832,-9.5801,-2.4908,-3.4087,4.9391,-0.3478
115,-0.3832,-9.5801,-2.6441,-3.3391,4.9391,-0.4174
120,-0.3832,-9.5034,-2.4525,-3.4087,4.9391,-0.487
125,-0.4215,-9.5034,-2.4908,-3.4783,5.0087,-0.3478
130,-0.3449,-9.5034,-2.5675,-3.4087,5.0783,-0.2783
135,-0.4215,-9.5801,-2.6058,-3.5478,5.0087,-0.2087
140,-0.4598,-9.5034,-2.4525,-3.687,4.9391,-0.2087
145,-0.4215,-9.4268,-2.5675,-3.7565,4.9391,-0.1391
150,-0.3066,-9.4651,-2.3759,-4.0348,4.7304,0.0
155,-0.4982,-9.5418,-2.4908,-4.2435,4.7304,0.1391
160,-0.4598,-9.5418,-2.4908,-4.5217,4.8,0.1391
165,-0.3832,-9.5034,-2.4525,-4.7304,4.8,0.2783
170,-0.5365,-9.5418,-2.4525,-4.8,4.8,0.2783
175,-0.3449,-9.6184,-2.4908,-4.6609,4.8,0.3478
180,-0.3449,-9.5418,-2.5675,-4.6609,4.8696,0.3478
185,-0.3066,-9.6184,-2.5675,-4.4522,4.7304,0.2783
190,-0.3066,-9.5418,-2.6441,-4.2435,4.7304,0.2783
195,-0.3449,-9.4268,-2.6441,-3.8957,4.5913,0.2087
200,-0.2682,-9.5034,-2.6824,-3.687,4.7304,0.0696
205,-0.3449,-9.7334,-2.7207,-3.4783,4.7304,0.0
210,-0.3449,-9.4651,-2.6824,-3.687,4.8696,0.0
215,-0.3832,-9.4268,-2.6824,-3.9652,5.0087,-0.1391
220,-0.4598,-9.4651,-2.6824,-4.4522,5.2174,-0.487
225,-0.3449,-9.4268,-2.7974,-5.0087,5.3565,-0.6261
230,-0.3832,-9.5034,-2.6824,-5.4261,5.8435,-0.6957
235,-0.4215,-9.5034,-2.5675,-5.8435,6.0522,-0.5565
240,-0.3066,-9.5034,-2.6824,-6.6087,6.3304,-0.4174
245,-0.3449,-9.4268,-2.7591,-7.1652,6.4,-0.3478
250,-0.4982,-9.5034,-2.6824,-7.6522,6.3304,-0.3478
255,-0.3832,-9.4268,-2.7207,-8.1391,6.1217,-0.3478
260,-0.5365,-9.2735,-2.8357,-8.5565,5.913,-0.2783
265,-0.3832,-9.3885,-2.8357,-8.8348,5.5652,-0.2783
270,-0.4598,-9.2735,-2.7974,-9.113,5.4261,-0.0696
275,-0.4598,-9.3885,-2.6441,-9.3217,5.4261,0.1391
280,-0.3832,-9.3885,-2.6058,-9.8087,5.287,0.3478
285,-0.4982,-9.4268,-2.5675,-10.4348,5.3565,0.5565
290,-0.4215,-9.4268,-2.6441,-11.2696,5.287,0.7652
295,-0.5365,-9.3502,-2.6441,-12.2435,5.2174,0.8348
300,-0.6131,-9.4651,-2.6058,-13.5652,5.1478,1.0435
305,-0.5748,-9.4268,-2.5675,-14.9565,5.287,1.3913
310,-0.4215,-9.4651,-2.5291,-16.487,5.287,1.9478
315,-0.4598,-9.3885,-2.6058,-17.7391,4.9391,2.4348
320,-0.3449,-9.1586,-2.6824,-18.5739,4.5217,2.713
325,-0.5748,-9.2352,-2.7207,-18.9217,3.7565,2.713
330,-0.6131,-9.1586,-2.8357,-19.4087,3.1304,2.713
335,-0.6131,-9.0819,-2.8357,-20.2435,2.2957,2.8522
340,-0.5748,-9.2352,-2.9507,-21.5652,1.5304,3.1304
345,-0.4982,-9.0436,-2.9507,-23.513,0.7652,3.5478
350,-0.4598,-9.1586,-2.9123,-25.8783,0.1391,3.9652
355,-0.5748,-8.8903,-3.1423,-28.5913,-0.3478,4.7304
360,-0.4982,-9.0819,-3.0656,-31.2348,-0.7652,5.6348
365,-0.4215,-9.0436,-2.9507,-33.7391,-0.9043,6.6087
370,-0.6131,-8.8137,-2.6441,-35.6174,-0.8348,6.7478
375,-0.4982,-8.852,-3.0273,-37.0783,-1.0435,6.0522
380,-0.4982,-8.6221,-3.1806,-38.5391,-1.1826,5.0087
385,-0.6898,-8.5838,-3.2189,-40.5565,-1.2522,4.0348
390,-0.6514,-8.6221,-3.2189,-43.1304,-1.1826,3.4087
395,-0.6131,-8.6604,-3.2189,-46.1217,-1.1826,3.0609
400,-0.6898,-8.737,-3.0656,-49.2522,-1.113,3.0609
405,-0.6514,-8.8137,-3.1806,-52.5217,-1.113,3.4783
410,-0.6131,-8.8137,-3.1806,-55.9304,-1.0435,4.2435
415,-0.4982,-9.0436,-3.0273,-58.5739,-1.113,4.5913
420,-0.3449,-8.967,-3.1806,-60.5913,-1.3913,4.5913
425,-0.4215,-8.967,-2.6824,-61.9826,-1.9478,4.313
430,-0.3832,-8.967,-3.2572,-62.887,-2.713,4.3826
435,-0.2299,-8.8903,-3.3339,-63.0957,-3.2,4.313
440,-0.1916,-8.8137,-3.5255,-63.1652,-3.7565,3.7565
445,-0.2682,-8.8903,-3.5255,-63.0261,-4.3826,2.9913
450,-0.3449,-8.7754,-3.4488,-62.9565,-4.8,2.4348
455,-0.3066,-8.8903,-3.6021,-63.513,-5.0087,2.0174
460,-0.4215,-8.8903,-3.6404,-64.487,-5.2174,1.8783
465,-0.5365,-9.0436,-3.6787,-65.6696,-5.3565,1.8783
470,-0.5365,-9.0436,-3.7554,-66.9217,-5.3565,2.1565
475,-0.6131,-9.2352,-3.7171,-67.8957,-5.1478,2.5043
480,-0.4982,-9.1586,-3.9087,-68.5217,-4.7304,2.8522
485,-0.5748,-9.3118,-3.7554,-68.9391,-4.313,3.3391
490,-0.7281,-9.0819,-3.7554,-69.287,-3.8957,3.6174
495,-0.6514,-9.2352,-3.6787,-69.4957,-3.7565,3.8957
500,-0.7664,-9.2735,-3.6404,-69.4261,-3.1304,4.0348
505,-0.6898,-9.2352,-3.6021,-69.2174,-2.6435,4.1043
510,-0.843,-9.1969,-3.5255,-69.2174,-2.2261,4.4522
515,-0.843,-9.2735,-3.5255,-69.5652,-1.8087,4.7304
520,-0.9197,-9.3885,-3.7171,-69.7043,-1.3217,5.2174
525,-0.8814,-9.3885,-3.6021,-69.6348,-0.487,5.8435
530,-0.8814,-9.3885,-3.6404,-69.1478,0.6261,6.4
535,-0.8814,-9.5418,-3.4488,-68.5913,2.0174,6.8174
540,-0.8047,-9.6184,-3.1806,-67.7565,3.4783,7.0261
545,-0.7281,-9.5418,-3.1806,-66.713,5.0087,7.4435
550,-0.6514,-9.7717,-2.9507,-65.3217,6.1217,7.9304
555,-0.5365,-9.81,-2.9507,-64.3478,6.5391,8.2783
560,-0.6131,-9.9633,-2.8357,-64.2783,6.2609,8.5565
565,-0.7281,-9.925,-2.7591,-64.6957,5.4957,8.9043
570,-0.5748,-10.0399,-2.989,-66.4348,4.4522,9.4609
575,-0.5748,-10.0016,-3.1039,-69.7739,3.2,10.2957
580,-0.6898,-10.0399,-3.1423,-75.4087,2.0174,11.8957
585,-0.6898,-10.1166,-3.1039,-83.3391,0.5565,13.913
590,-0.6898,-10.2698,-2.989,-93.7739,-1.4609,16.0
595,-0.958,-10.3082,-3.1423,-106.0174,-4.1043,18.1565
600,-0.9963,-10.0016,-3.4105,-118.6783,-7.1652,20.0348
605,-1.0346,-9.81,-3.947,-130.8522,-9.9478,21.287
610,-0.9197,-9.3118,-4.4452,-141.1478,-12.7304,22.3304
615,-1.2263,-8.8137,-5.0966,-148.8696,-14.7478,22.5391
620,-1.4179,-8.5071,-5.4415,-153.6696,-16.0696,22.7478
625,-1.3412,-8.737,-5.4415,-155.2696,-16.4174,22.9565
630,-1.073,-9.0436,-5.6331,-154.8522,-16.487,22.8174
635,-0.958,-9.2352,-5.748,-153.113,-16.2087,21.9826
640,-1.3029,-9.2735,-6.4378,-150.4,-15.7217,20.5217
645,-1.3412,-9.7717,-6.5528,-146.9217,-15.8609,19.0609
650,-1.4945,-10.0016,-6.8977,-142.1217,-16.9043,17.6
655,-1.3795,-10.4614,-6.936,-136.1391,-18.4348,17.1826
660,-1.2646,-10.7297,-7.2042,-129.5304,-19.4087,17.3913
665,-1.1879,-10.9213,-7.3958,-122.5043,-19.4087,18.1565
670,-1.073,-10.8446,-7.5108,-115.4087,-19.2696,19.2696
675,-0.8814,-10.768,-7.9323,-107.8957,-19.2,19.9652
680,-0.6898,-10.2698,-7.9706,-100.1739,-18.4348,20.0348
685,-0.6514,-9.8483,-8.0473,-91.7565,-17.0435,19.4783
690,-0.5748,-9.5801,-8.0473,-82.8522,-14.887,17.7391
695,-0.843,-9.4651,-8.1239,-73.4609,-12.6609,15.4435
700,-1.1113,-9.1969,-8.3155,-65.0435,-10.8522,13.4261
705,-1.2263,-8.852,-8.3921,-58.6435,-9.5304,11.7565
710,-1.2646,-8.6987,-8.6987,-54.0522,-8.2087,10.1565
715,-1.3029,-8.4305,-8.5838,-51.9652,-6.7478,9.1826
720,-1.4179,-8.3538,-8.4305,-51.2,-5.2174,8.2783
725,-1.5328,-8.3155,-8.6604,-50.9913,-3.5478,7.7217
730,-1.6095,-8.2005,-8.5071,-50.1565,-2.2957,7.0261
735,-1.6478,-7.9323,-8.4305,-48.487,-1.6,6.1913
740,-1.6095,-7.779,-8.5071,-46.1217,-1.4609,5.2174
745,-1.4179,-7.7024,-8.2772,-43.6174,-1.4609,4.0348
750,-1.6095,-7.4725,-8.2389,-41.2522,-1.6696,2.713
755,-1.6861,-7.1659,-8.3155,-39.2348,-1.6696,1.113
760,-1.6095,-7.0893,-8.2389,-37.7043,-1.4609,-0.0696
765,-1.8011,-7.0509,-8.2389,-36.8696,-1.1826,-0.487
770,-1.6095,-7.0509,-8.2389,-36.7304,-0.6261,-0.4174
775,-1.6478,-7.2425,-8.5454,-36.5913,0.2783,-0.0696
780,-1.4562,-7.2042,-8.4305,-36.1043,1.2522,0.4174
785,-1.4562,-7.2425,-8.3155,-34.7826,2.1565,0.6261
790,-1.4179,-7.1659,-8.3155,-32.8348,3.1304,0.6957
795,-1.4945,-7.0893,-8.2389,-30.2609,4.1043,0.7652
800,-1.5711,-7.0509,-8.2389,-27.5478,4.9391,0.4174
805,-1.5711,-7.0893,-8.3155,-24.9739,5.7043,0.1391
810,-1.6095,-7.0509,-8.3538,-22.6087,6.4696,-0.3478
815,-1.6095,-7.1276,-8.2389,-20.1739,6.9565,-0.9043
820,-1.5711,-6.936,-8.1622,-18.0174,7.6522,-1.6696
825,-1.6478,-6.821,-8.2005,-15.513,8.2087,-2.2957
830,-1.4562,-6.7827,-8.2005,-13.0087,8.6261,-2.8522
835,-1.4945,-6.5911,-8.2389,-11.0609,9.1826,-3.0609
840,-1.4562,-6.6294,-8.1622,-9.3217,9.6,-3.0609
845,-1.3029,-6.5145,-8.0473,-7.7913,9.8087,-3.1304
850,-1.3029,-6.4378,-7.9706,-6.4696,10.0174,-3.4783
855,-1.4562,-6.4378,-7.9323,-5.6348,10.1565,-3.687
860,-1.3412,-6.3229,-7.779,-4.9391,10.087,-3.8261
865,-1.2646,-6.2845,-7.6641,-4.313,9.8783,-3.8957
870,-1.1496,-6.2079,-7.5108,-4.0348,9.8783,-3.9652
875,-1.2646,-6.1313,-7.2809,-4.1739,9.8783,-4.0348
880,-1.2646,-6.0929,-7.3958,-4.3826,9.7391,-3.8261
885,-1.4179,-5.978,-7.2809,-4.2435,9.4609,-3.4783
890,-1.2646,-5.978,-7.1659,-4.0348,9.1826,-2.8522
895,-1.3795,-5.9013,-7.2425,-3.7565,8.8348,-2.4348
900,-1.3029,-5.7864,-6.9743,-3.3391,8.1391,-1.9478
905,-1.3412,-5.8247,-6.9743,-2.8522,7.4435,-1.6
910,-1.3795,-5.6714,-7.0893,-2.4348,6.9565,-1.113
915,-1.2263,-5.7097,-7.1276,-2.5739,6.4,-0.7652
920,-1.2646,-5.5564,-7.0893,-2.9913,6.0522,-0.5565
925,-1.2646,-5.5181,-7.2809,-3.2696,5.4957,-0.3478
930,-1.3412,-5.5181,-7.2425,-3.6174,5.4957,-0.3478
935,-1.1496,-5.5564,-7.2425,-3.6174,5.7043,-0.0696
940,-1.073,-5.5948,-7.2425,-3.6174,6.1217,0.1391
945,-1.1113,-5.4415,-7.0509,-3.7565,6.4,0.3478
950,-1.1113,-5.4798,-7.0509,-3.687,6.9565,0.5565
955,-1.1496,-5.4032,-7.0126,-3.4087,6.9565,0.6957
960,-1.1496,-5.4415,-7.0126,-2.8522,6.8174,0.9043
965,-1.1496,-5.4798,-6.936,-2.2261,6.6087,1.1826
970,-1.073,-5.2116,-6.821,-1.7391,6.4,1.1826
975,-1.0346,-5.2499,-6.8593,-1.3217,6.2609,1.3913
980,-1.1879,-5.2499,-6.821,-1.1826,6.0522,1.4609
985,-1.1113,-5.2499,-6.7061,-0.9043,5.5652,1.6696
990,-1.0346,-5.0966,-6.6677,-0.8348,5.5652,1.8087
995,-1.1879,-4.9433,-6.6677,-0.9043,5.7739,1.9478
1000,-1.1879,-4.9816,-6.6294,-1.0435,5.913,2.2957
1005,-1.1496,-5.02,-6.5145,-1.113,5.913,2.7826
1010,-1.1113,-5.0966,-6.6294,-1.1826,5.9826,2.8522
1015,-1.073,-5.1349,-6.7444,-1.3217,6.0522,2.9217
1020,-1.1879,-5.02,-6.5911,-1.5304,6.1217,3.0609
1025,-1.073,-4.9816,-6.7061,-1.8087,6.5391,3.1304
1030,-1.1113,-5.0583,-6.7827,-2.2261,6.7478,3.2696
1035,-1.0346,-5.0966,-6.6677,-2.5739,6.8174,3.4087
1040,-1.1496,-5.02,-6.6677,-2.9913,6.9565,3.5478
1045,-1.1113,-4.9816,-6.7827,-3.4783,6.9565,3.687
1050,-1.073,-5.1349,-6.6677,-3.8957,6.9565,3.7565
1055,-1.073,-5.0583,-6.821,-4.2435,7.1652,3.9652
1060,-1.073,-5.0583,-6.8593,-4.5913,7.3739,3.8957
1065,-0.9197,-5.2499,-6.7061,-4.6609,7.513,3.8261
1070,-0.9197,-5.2882,-6.936,-4.5217,7.7913,3.9652
1075,-0.9197,-5.4798,-7.1276,-4.1739,8.2087,4.0348
1080,-1.0346,-5.2499,-6.9743,-3.687,8.5565,4.1043
1085,-1.073,-5.2882,-7.0509,-3.2696,9.113,4.1739
1090,-1.1496,-5.2499,-7.0509,-2.7826,9.6696,4.1739
1095,-1.1496,-5.2499,-7.1276,-2.5043,10.1565,4.313
1100,-1.1879,-5.3648,-7.1659,-2.4348,10.2957,4.2435
1105,-1.1496,-5.1732,-7.1276,-2.7826,10.5739,4.2435
1110,-1.1113,-5.2882,-7.2425,-3.1304,10.713,4.3826
1115,-1.2646,-5.2882,-7.1276,-3.2,10.713,4.313
1120,-1.1879,-5.3265,-7.3192,-3.2,10.5043,4.2435
1125,-1.1879,-5.3648,-7.1659,-3.1304,10.0174,4.2435
1130,-1.3029,-5.2499,-7.2809,-3.1304,9.6696,4.2435
1135,-1.3412,-5.4032,-7.3192,-3.2696,9.3913,4.3826
1140,-1.2263,-5.3648,-7.2809,-3.3391,8.9739,4.4522
1145,-1.3412,-5.2882,-7.2809,-3.5478,8.6261,4.5913
1150,-1.4179,-5.2882,-7.1659,-3.687,8.3478,4.4522
1155,-1.3412,-5.4415,-7.3192,-3.687,8.0,4.4522
1160,-1.2646,-5.3648,-7.4725,-3.687,7.7913,4.5217
1165,-1.2646,-5.4415,-7.4725,-3.6174,7.7217,4.5217
1170,-1.2263,-5.4798,-7.3192,-3.5478,7.5826,4.3826
1175,-1.4562,-5.4798,-7.4341,-3.4087,7.5826,4.1043
1180,-1.2646,-5.4415,-7.3958,-3.2,7.6522,3.9652
1185,-1.2646,-5.2882,-7.3575,-2.9913,7.8609,3.7565
1190,-1.2646,-5.5948,-7.5491,-2.8522,8.1391,3.687
1195,-1.2263,-5.5181,-7.6257,-2.713,8.2783,3.6174
1200,-1.3412,-5.4798,-7.6641,-2.5739,8.4174,3.4783
1205,-1.2263,-5.4032,-7.6257,-2.5043,8.2783,3.3391
1210,-1.1496,-5.4798,-7.6257,-2.6435,8.2087,3.2
1215,-1.3029,-5.5948,-7.5491,-2.8522,7.7217,2.9913
1220,-1.2646,-5.5564,-7.6257,-3.0609,7.3043,2.9913
1225,-1.3029,-5.5564,-7.3958,-3.1304,6.9565,2.7826
1230,-1.3029,-5.6331,-7.2042,-3.2696,6.6087,2.5043
1235,-1.3412,-5.5564,-7.3958,-3.3391,6.3304,2.3652
1240,-1.4562,-5.5564,-7.3575,-3.2,6.0522,2.2261
1245,-1.3795,-5.5564,-7.3192,-3.0609,5.9826,2.2957
1250,-1.3029,-5.5181,-7.3192,-2.8522,6.1217,2.2957
1255,-1.3795,-5.5948,-7.3575,-2.7826,6.2609,2.4348
1260,-1.3795,-5.5564,-7.3192,-2.7826,6.2609,2.2957
1265,-1.4179,-5.5564,-7.3958,-2.713,6.2609,2.2957
1270,-1.3029,-5.5181,-7.5108,-2.5043,5.913,2.3652
1275,-1.2263,-5.7097,-7.4725,-2.2261,5.8435,2.5043
1280,-1.1496,-5.6331,-7.5491,-1.8783,5.4957,2.5739
1285,-1.1879,-5.5564,-7.6257,-1.3913,5.287,2.713
1290,-1.4562,-5.7097,-7.8557,-0.9043,5.1478,2.7826
1295,-1.1496,-5.5181,-7.5491,-0.4174,5.2174,2.7826
1300,-1.1496,-5.6331,-7.6257,-0.1391,5.2174,2.7826
1305,-1.1113,-5.6331,-7.7024,0.0696,5.1478,2.8522
1310,-1.1496,-5.5948,-7.5108,0.2087,5.2174,2.7826
1315,-1.073,-5.7097,-7.7407,0.2783,5.4261,2.713
1320,-1.1879,-5.7097,-7.6641,0.2783,5.4261,2.6435
1325,-1.2263,-5.6714,-7.3958,0.3478,5.3565,2.4348
1330,-1.3412,-5.7097,-7.4725,0.4174,5.1478,2.4348
1335,-1.3029,-5.8247,-7.4725,0.5565,5.0783,2.1565
1340,-1.3795,-5.748,-7.6257,0.6261,5.0087,2.1565
1345,-1.3029,-5.8247,-7.4341,0.6957,4.8,2.0174
1350,-1.3412,-5.8247,-7.5491,0.9043,4.7304,1.8087
1355,-1.3029,-5.9013,-7.5491,1.2522,4.3826,1.5304
1360,-1.4945,-5.6714,-7.6257,1.3913,4.1739,1.5304
1365,-1.3795,-5.863,-7.6257,1.5304,4.0348,1.3217
1370,-1.4179,-5.748,-7.6257,1.5304,3.8957,1.113
1375,-1.4945,-5.863,-7.7024,1.4609,3.8261,0.9739
1380,-1.3795,-5.7864,-7.7024,1.3217,3.8957,0.8348
1385,-1.4179,-5.9013,-7.7407,1.113,3.8957,0.6957
1390,-1.4179,-5.863,-7.7407,0.9739,3.7565,0.5565
1395,-1.3795,-5.9013,-7.8173,0.6261,3.4087,0.4174
1400,-1.4945,-6.1696,-7.8557,0.2087,3.0609,0.4174
1405,-1.5328,-5.9396,-7.779,0.0,2.713,0.4174
1410,-1.4562,-5.8247,-7.6641,-0.0696,2.5739,0.1391
1415,-1.4179,-6.0163,-7.6641,0.2087,2.713,0.0
1420,-1.3412,-5.978,-7.779,0.5565,2.8522,-0.1391
1425,-1.3795,-6.0163,-7.8173,0.8348,3.0609,-0.2783
1430,-1.2646,-6.0546,-7.8173,1.0435,3.2696,-0.487
1435,-1.3029,-6.0163,-7.779,1.4609,3.4783,-0.6957
1440,-1.3412,-6.2079,-7.7024,1.7391,3.5478,-0.6957
1445,-1.3029,-5.9396,-7.6257,2.0174,3.6174,-0.6957
1450,-1.3412,-6.0163,-7.7024,2.087,3.6174,-0.5565
1455,-1.3412,-6.0929,-7.779,2.3652,3.5478,-0.4174
1460,-1.1879,-6.0546,-7.5874,2.7826,3.687,-0.2783
1465,-1.2263,-6.0163,-7.7407,3.1304,3.7565,-0.2783
1470,-1.2263,-6.0546,-7.7407,3.6174,3.9652,-0.2087
1475,-1.3029,-6.0546,-7.7024,4.1739,4.313,-0.2087
1480,-1.1879,-6.0546,-7.7407,4.5913,4.4522,-0.4174
1485,-1.1496,-6.0546,-7.6641,4.6609,4.6609,-0.6261
1490,-1.1879,-5.978,-7.7024,4.5217,4.6609,-0.6957
1495,-1.2646,-5.978,-7.7407,4.3826,4.6609,-0.7652
1500,-1.4179,-6.0163,-7.6257,4.3826,4.3826,-0.8348
1505,-1.4179,-5.9396,-7.7024,4.5913,4.1739,-1.113
1510,-1.4179,-5.978,-7.5108,4.6609,3.687,-1.113
1515,-1.4945,-6.0929,-7.5491,4.8696,3.4087,-0.9739
1520,-1.4179,-6.1313,-7.6257,5.2174,3.0609,-0.9739
1525,-1.4562,-5.978,-7.5108,5.7043,2.8522,-1.0435
1530,-1.5711,-5.978,-7.5874,6.1217,2.7826,-1.0435
1535,-1.3412,-5.978,-7.6257,6.3304,2.6435,-1.113
1540,-1.3412,-5.978,-7.5874,6.1217,2.713,-0.9739
1545,-1.3795,-6.0546,-7.6257,5.913,2.6435,-0.9739
1550,-1.2263,-6.0546,-7.7024,5.7739,2.6435,-0.9739
1555,-1.1496,-6.0163,-7.5874,5.6348,2.4348,-0.9739
1560,-1.3412,-5.9396,-7.6641,5.7043,2.2957,-1.113
1565,-1.1496,-5.978,-7.5491,5.9826,2.087,-1.2522
1570,-1.2646,-5.978,-7.5874,6.1217,1.8087,-1.3913
1575,-1.2646,-5.863,-7.6257,6.3304,1.9478,-1.6
1580,-1.2263,-5.863,-7.5491,6.4696,2.2957,-1.8783
1585,-1.3412,-5.863,-7.6257,6.6087,2.713,-2.1565
1590,-1.3412,-5.863,-7.7407,6.6087,2.9913,-2.5739
1595,-1.2646,-5.9013,-7.5108,6.5391,3.2696,-2.9217
1600,-1.3029,-5.978,-7.5491,6.5391,3.4783,-3.0609
1605,-1.1879,-5.9396,-7.4341,6.4696,3.687,-3.1304
1610,-1.3412,-5.978,-7.4725,6.6783,3.8957,-3.2696
1615,-1.2646,-5.863,-7.3575,6.9565,4.1739,-3.3391
1620,-1.2263,-5.748,-7.3958,7.3043,4.313,-3.4087
1625,-1.1879,-5.8247,-7.4341,7.6522,4.5217,-3.5478
1630,-1.2263,-5.748,-7.4341,7.8609,4.6609,-3.7565
1635,-1.1496,-5.863,-7.3192,7.9304,4.7304,-3.9652
1640,-1.2263,-5.6714,-7.3192,8.0696,4.8,-4.0348
1645,-1.3412,-5.6331,-7.2809,8.1391,4.8696,-4.1739
1650,-1.2646,-5.7864,-7.2042,8.2087,4.6609,-4.313
1655,-1.3029,-5.7864,-7.3192,8.3478,4.3826,-4.3826
1660,-1.2263,-5.748,-7.2425,8.487,4.2435,-4.5913
1665,-1.3029,-5.5948,-7.3192,8.5565,3.9652,-4.5913
1670,-1.2646,-5.7864,-7.2809,8.4174,3.687,-4.4522
1675,-1.3412,-5.7864,-7.5108,8.2783,3.5478,-4.5913
1680,-1.2646,-5.6714,-7.2425,8.487,3.4087,-4.6609
1685,-1.3412,-5.6331,-7.4341,8.8348,3.4087,-4.8696
1690,-1.3029,-5.4798,-7.2425,9.2522,3.5478,-5.0783
1695,-1.3412,-5.6331,-7.3192,9.3217,3.7565,-5.1478
1700,-1.3412,-5.6331,-7.4725,9.3913,3.7565,-5.1478
1705,-1.3029,-5.5564,-7.3575,9.3913,3.8261,-5.0783
1710,-1.3029,-5.6331,-7.0893,9.5304,3.8261,-4.8696
1715,-1.3412,-5.6714,-7.3192,9.6696,3.5478,-5.0087
1720,-1.2263,-5.6714,-7.1659,9.8783,3.4783,-5.0087
1725,-1.4562,-5.8247,-7.5491,10.2261,3.3391,-4.9391
1730,-1.1496,-5.7097,-7.1659,10.6435,3.1304,-5.1478
1735,-1.2646,-5.863,-7.1276,11.0609,2.9913,-5.2174
1740,-1.1879,-5.863,-7.0893,11.4087,2.7826,-5.4261
1745,-1.2646,-5.7097,-7.0893,11.8261,2.6435,-5.6348
1750,-1.3029,-5.748,-7.1659,12.313,2.5739,-5.913
1755,-1.2646,-5.863,-7.0126,12.6609,2.5043,-6.0522
1760,-1.2646,-5.748,-7.1659,13.0783,2.5739,-6.2609
1765,-1.3412,-5.7864,-7.0893,13.6348,2.713,-6.2609
1770,-1.3029,-5.863,-6.9743,14.3304,2.7826,-6.1913
1775,-1.3029,-5.6714,-7.0509,14.9565,2.9913,-6.1913
1780,-1.2263,-5.7097,-6.9743,15.513,3.1304,-6.2609
1785,-1.2263,-5.9013,-6.9743,16.2087,3.2696,-6.3304
1790,-1.3412,-5.978,-6.8593,16.8348,3.2696,-6.4
1795,-1.2263,-5.863,-7.0509,17.4609,3.3391,-6.5391
1800,-1.2646,-5.9013,-6.9743,18.0174,3.4087,-6.3304
1805,-1.2263,-5.863,-6.8593,18.5739,3.3391,-6.2609
1810,-1.3029,-5.8247,-6.9743,19.0609,3.3391,-6.1217
1815,-1.3029,-5.863,-6.8977,19.6174,3.2696,-6.1217
1820,-1.3029,-5.978,-6.936,20.2435,3.1304,-6.1913
1825,-1.3029,-5.9396,-6.8977,20.8696,2.8522,-6.1913
1830,-1.2646,-5.978,-6.8593,21.8435,2.713,-6.1913
1835,-1.4945,-5.9396,-6.7061,22.4,2.5043,-6.0522
1840,-1.3029,-5.978,-6.8977,23.0261,2.4348,-6.0522
1845,-1.2646,-6.0546,-6.8977,23.7913,2.2957,-6.0522
1850,-1.3412,-5.9013,-6.8593,24.5565,2.4348,-6.0522
1855,-1.3412,-5.8247,-6.821,25.5304,2.5739,-6.0522
1860,-1.2646,-5.8247,-6.8593,26.3652,2.713,-6.0522
1865,-1.1496,-5.863,-6.7827,27.1304,2.8522,-6.1217
1870,-1.3795,-5.978,-6.7061,27.8261,3.0609,-5.913
1875,-1.3412,-5.8247,-6.7827,28.5217,3.2696,-5.8435
1880,-1.3029,-5.9396,-6.6294,29.1478,3.4783,-5.8435
1885,-1.2646,-5.9013,-6.7061,29.8435,3.7565,-5.6348
1890,-1.3412,-5.9013,-6.6677,30.7478,3.8957,-5.4261
1895,-1.2263,-5.9396,-6.6677,31.5826,3.9652,-5.3565
1900,-1.2646,-5.863,-6.5145,32.3478,3.7565,-5.0783
1905,-1.3412,-5.7864,-6.4378,33.0435,3.5478,-4.8
1910,-1.2646,-5.8247,-6.3995,33.6,3.2696,-4.4522
1915,-1.3795,-5.7864,-6.4378,34.087,2.9913,-4.1739
1920,-1.2263,-5.8247,-6.3995,34.713,2.713,-3.8261
1925,-1.1496,-5.9013,-6.2845,35.2696,2.6435,-3.4783
1930,-1.1496,-5.863,-6.4378,35.9652,2.5739,-3.1304
1935,-1.2263,-5.863,-6.4761,36.8696,2.2957,-2.8522
1940,-1.4562,-5.863,-6.3995,37.6348,2.2261,-2.5739
1945,-1.3412,-5.8247,-6.3612,38.4696,2.1565,-2.3652
1950,-1.3029,-5.7864,-6.3995,39.513,1.9478,-2.2261
1955,-1.3795,-5.7864,-6.2845,40.487,1.9478,-2.1565
1960,-1.4179,-5.7097,-6.3995,41.6696,1.8783,-1.9478
1965,-1.3029,-5.748,-6.2845,42.7826,1.9478,-1.9478
1970,-1.3795,-5.6714,-6.3612,43.8261,2.0174,-1.8783
1975,-1.4562,-5.9396,-6.2462,44.6609,2.087,-1.8783
1980,-1.3795,-5.9396,-6.2845,45.4957,2.1565,-1.7391
1985,-1.4945,-5.863,-6.3612,46.2609,2.1565,-1.6
1990,-1.3412,-5.863,-6.2845,47.1652,2.3652,-1.6
1995,-1.3029,-5.978,-6.2462,48.2087,2.713,-1.6
2000,-1.4179,-5.9013,-6.3612,49.4609,2.9913,-1.4609
2005,-1.4179,-5.9013,-6.3995,50.9913,3.2696,-1.4609
2010,-1.3029,-6.0163,-6.2845,52.1739,3.4783,-1.3217
2015,-1.3412,-6.0163,-6.1696,53.7739,3.8261,-1.1826
2020,-1.3795,-6.0546,-6.1313,55.7913,4.313,-1.113
2025,-1.2646,-6.0929,-5.978,58.4348,4.7304,-1.113
2030,-1.0346,-6.1696,-5.748,61.913,5.0783,-1.113
2035,-0.9197,-6.0929,-5.5564,65.3913,5.4261,-1.113
2040,-1.0346,-6.2079,-5.2499,68.5913,5.7043,-1.113
2045,-0.958,-6.2845,-4.9433,71.3043,6.1217,-1.1826
2050,-0.958,-6.3612,-4.8284,74.2957,6.5391,-1.1826
2055,-0.8047,-6.6294,-4.5984,77.4957,7.0957,-1.6
2060,-0.6514,-6.6677,-4.1769,80.9739,7.3739,-1.7391
2065,-0.4982,-6.9743,-3.8704,84.5913,7.7913,-1.8783
2070,-0.4598,-7.3958,-3.5638,88.487,8.2087,-2.2261
2075,-0.6514,-8.0089,-3.2189,92.8,8.6261,-2.7826
2080,-0.6898,-9.3502,-3.1039,97.2522,8.9739,-3.6174
2085,-0.843,-11.726,-2.2992,102.1913,9.3913,-4.2435
2090,-1.3029,-16.0179,-1.6861,108.2435,10.2261,-3.6174
2095,-1.3029,-20.0415,-4.0236,116.5217,10.1565,-1.113
2100,-0.5748,-19.2751,-9.0436,125.7739,11.687,-1.1826
2105,-1.1496,-18.3171,-11.9559,133.6348,22.1217,-3.5478
2110,-2.0693,-18.5087,-12.3775,142.887,38.7478,-5.287
2115,-3.1423,-18.9686,-12.0326,157.7043,49.6696,-3.5478
2120,-3.2572,-22.0342,-9.81,179.7565,51.5478,-2.9913
2125,-3.8704,-26.9775,-9.695,211.4087,49.4609,-8.8348
2130,-5.2499,-17.0142,-14.5234,243.2696,45.0783,-21.4261
2135,-2.6058,-4.5601,-13.6804,213.0783,39.7217,-18.2261
2140,-0.6514,-6.6294,-9.5034,117.1478,33.113,-6.6783
2145,0.6131,-11.726,-5.0583,36.5217,22.3304,-2.8522
2150,0.2682,-16.5161,-2.4142,-0.6957,12.5913,-7.3043
2155,-0.1533,-18.4321,-0.843,-6.0522,6.1217,-15.3043
2160,-0.2682,-17.9722,-0.6514,6.0522,2.713,-22.7478
2165,-0.0766,-15.7113,-1.3795,26.087,1.3913,-27.687
2170,-0.3066,-13.4121,-2.1843,45.2174,1.6,-30.1913
2175,-0.958,-10.8063,-2.6441,56.8348,2.3652,-29.9826
2180,-1.9543,-8.3538,-2.6824,59.1304,2.7826,-27.0609
2185,-2.3375,-6.4761,-3.1039,54.1913,2.4348,-22.2609
2190,-2.5291,-5.2499,-3.1806,43.8957,1.4609,-18.087
2195,-2.7207,-4.8284,-3.1806,29.3565,-0.7652,-14.6783
2200,-2.1843,-5.3265,-3.3339,11.0609,-4.8,-12.2435
2205,-1.6095,-5.978,-3.4488,-7.4435,-9.113,-11.5478
2210,-1.5711,-6.3612,-3.3339,-21.4261,-12.5217,-12.8696
2215,-1.4562,-7.1659,-2.1459,-26.5043,-14.8174,-15.0261
2220,-1.4562,-7.0509,-1.7244,-21.3565,-16.0696,-16.3478
2225,-1.0346,-7.3192,-1.0346,-7.8609,-16.0,-16.1391
2230,-0.6898,-7.6257,-1.2646,9.3217,-14.1913,-15.4435
2235,-0.6514,-7.6641,-1.7627,24.4174,-11.7565,-13.9826
2240,-0.4982,-7.8557,-2.3759,33.6696,-9.2522,-11.3391
2245,-0.0383,-8.2772,-2.3759,37.4261,-6.2609,-8.0696
2250,0.0,-8.5454,-2.4908,39.3043,-2.3652,-5.913
2255,-0.115,-8.8137,-2.5291,42.2261,0.7652,-5.5652
2260,0.0,-9.1969,-2.4908,44.3826,2.4348,-5.3565
2265,0.0766,-9.5418,-2.4142,46.5391,3.4087,-4.2435
2270,0.1916,-9.81,-2.4142,50.2957,4.3826,-4.1739
2275,0.3449,-9.9633,-2.5291,55.1652,4.8,-5.287
2280,0.4598,-9.925,-2.8357,59.7565,4.7304,-7.513
2285,0.3066,-9.6184,-3.1039,62.9565,4.9391,-9.8783
2290,0.0766,-9.5034,-3.0656,64.3478,5.5652,-11.8957
2295,0.115,-9.3885,-3.0273,63.9304,6.2609,-13.1478
2300,0.0383,-9.5418,-2.7974,62.5391,7.3043,-13.4957
2305,0.0383,-9.4268,-2.5675,61.0783,8.487,-12.6609
2310,0.0,-9.5418,-2.3375,59.6174,9.6,-11.8261
2315,0.0383,-9.5801,-2.3375,57.9478,10.5739,-10.713
2320,-0.1533,-9.6567,-2.1843,56.0696,11.3391,-9.8087
2325,-0.3832,-9.6184,-2.1843,54.4696,11.8957,-9.3217
2330,-0.3066,-9.695,-1.8777,53.287,12.0348,-9.0435
2335,-0.3066,-9.695,-1.6095,52.2435,11.8957,-9.113
2340,-0.4215,-9.9633,-1.4945,50.9217,11.4783,-8.9043
2345,-0.5748,-10.1932,-1.4945,49.2522,10.7826,-8.8348
2350,-0.7281,-10.2698,-1.5711,47.7217,9.8783,-9.113
2355,-0.6514,-10.5764,-1.4945,46.0522,8.9739,-9.4609
2360,-0.6131,-10.883,-1.6095,44.0348,7.9304,-9.5304
2365,-0.5365,-11.1512,-1.6478,42.2261,7.3739,-9.4609
2370,-0.5365,-11.0746,-1.8777,41.6696,7.0957,-9.6696
2375,-0.5365,-10.9213,-1.916,42.7826,7.0957,-9.6696
2380,-0.9197,-10.883,-2.031,44.6609,7.3739,-9.6
2385,-0.4215,-9.925,-2.0693,45.6348,7.7913,-9.2522
2390,-0.3449,-9.4651,-2.1843,44.8696,7.8609,-8.5565
2395,-0.3832,-8.852,-2.031,42.5739,7.7217,-7.7913
2400,-0.3449,-8.5454,-1.8777,39.513,7.3043,-6.9565
2405,-0.4598,-8.4305,-1.8011,36.3826,7.0261,-6.2609
2410,-0.3832,-8.4688,-1.7627,34.0174,6.4696,-5.4957
2415,-0.3066,-8.3155,-1.6478,32.3478,6.0522,-4.9391
2420,-0.3066,-8.2005,-1.7244,31.0957,5.8435,-4.5913
2425,-0.3066,-8.1622,-1.6095,30.1217,5.913,-4.1739
2430,-0.0766,-8.0856,-1.7244,28.9391,6.2609,-4.1043
2435,-0.0383,-8.1622,-1.5328,26.9913,6.5391,-3.7565
2440,0.0,-8.3538,-1.4945,24.3478,6.7478,-3.5478
2445,-0.115,-8.6987,-1.5711,21.7043,6.887,-3.5478
2450,-0.115,-8.852,-1.7244,19.3391,6.887,-3.5478
2455,-0.2299,-9.1969,-1.6861,17.4609,6.887,-3.4783
2460,-0.1533,-9.5034,-1.6478,15.9304,6.9565,-3.3391
2465,-0.3449,-9.7717,-1.6861,15.2348,7.0261,-3.4087
2470,-0.3832,-9.8866,-1.8394,14.887,7.1652,-3.2
2475,-0.4598,-9.9633,-1.9543,15.0261,7.513,-2.9217
2480,-0.6514,-10.1166,-1.8777,15.513,7.4435,-2.713
2485,-0.5748,-10.3082,-2.1459,16.3478,7.5826,-2.5043
2490,-0.7281,-10.1549,-2.1076,17.1826,7.7217,-2.5739
2495,-0.843,-10.1166,-2.1843,17.9478,8.0696,-2.6435
2500,-0.8814,-9.8866,-1.9927,18.5043,8.0696,-2.8522
2505,-0.8814,-9.7717,-2.1076,18.8522,8.1391,-2.9913
2510,-0.9963,-9.6567,-2.031,18.713,8.1391,-3.1304
2515,-1.1113,-9.5034,-2.1076,18.0174,8.1391,-3.1304
2520,-1.1113,-9.4651,-2.0693,16.8348,7.9304,-3.3391
2525,-1.1113,-9.2352,-1.9927,15.3043,7.7913,-3.4087
2530,-0.9963,-9.2352,-2.0693,13.4957,7.3739,-3.2696
2535,-1.2263,-9.1586,-2.031,11.8957,7.0261,-2.9217
2540,-0.9197,-9.0436,-2.1459,10.3652,6.4696,-2.5739
2545,-0.8047,-9.1202,-1.8777,8.8348,5.8435,-2.2261
2550,-0.6898,-9.1969,-2.0693,7.513,5.1478,-1.8783
2555,-0.6514,-9.3118,-2.031,6.4696,4.3826,-1.6696
2560,-0.4982,-9.3502,-2.031,5.4261,3.8261,-1.3913
2565,-0.4215,-9.4268,-2.031,4.5913,3.6174,-1.1826
2570,-0.3832,-9.4651,-2.1459,3.9652,3.6174,-0.9043
2575,-0.2299,-9.6184,-2.1076,3.4087,3.687,-0.5565
2580,-0.3832,-9.6184,-2.2609,2.9913,3.8261,-0.1391
2585,-0.3449,-9.7334,-2.031,2.5043,3.9652,0.2087
2590,-0.4215,-9.695,-2.1076,2.2261,4.1739,0.4174
2595,-0.2682,-9.81,-2.1076,2.0174,4.313,0.7652
2600,-0.2682,-9.7334,-2.2992,1.6696,4.3826,0.9043
2605,-0.3449,-9.6567,-2.2226,1.113,4.8,1.113
2610,-0.3066,-9.695,-2.2226,0.487,5.287,1.1826
2615,-0.3832,-9.6567,-2.2992,-0.1391,5.6348,1.3217
2620,-0.4598,-9.5418,-2.3375,-0.6261,6.0522,1.4609
2625,-0.4215,-9.4268,-2.3759,-1.5304,6.6087,1.6696
2630,-0.3449,-9.3118,-2.1459,-2.7826,7.3043,2.087
2635,-0.4215,-9.4268,-2.2226,-4.2435,7.8609,2.1565
2640,-0.3832,-9.4651,-2.0693,-5.4957,8.2087,2.087
2645,-0.3449,-9.3885,-2.0693,-6.3304,8.4174,1.9478
2650,-0.4215,-9.3502,-1.9543,-6.9565,8.3478,1.8087
2655,-0.4215,-9.4268,-1.916,-7.3739,8.2783,1.8783
2660,-0.4598,-9.4651,-1.8394,-7.4435,8.3478,1.8783
2665,-0.3066,-9.5034,-1.916,-7.513,8.2783,1.8087
2670,-0.3832,-9.5034,-2.1076,-7.3739,8.3478,1.8783
2675,-0.4598,-9.5034,-1.9543,-7.2348,8.3478,1.8783
2680,-0.4215,-9.5418,-2.0693,-7.2348,8.487,1.8783
2685,-0.3832,-9.5034,-2.1459,-7.1652,8.5565,1.8783
2690,-0.3832,-9.5801,-2.1459,-7.2348,8.487,1.8087
2695,-0.3832,-9.5801,-2.2609,-7.2348,8.4174,1.7391
2700,-0.4215,-9.6184,-2.031,-7.2348,8.3478,1.7391
2705,-0.2299,-9.7717,-1.9927,-7.0957,8.4174,1.7391
2710,-0.4215,-9.6567,-2.1459,-6.887,8.4174,1.8783
2715,-0.4598,-9.5801,-2.1076,-6.7478,8.5565,2.0174
2720,-0.4598,-9.7334,-1.9543,-6.6087,8.6261,2.087
2725,-0.6131,-9.7717,-2.031,-6.6783,8.6261,2.3652
2730,-0.4215,-9.6567,-2.1459,-6.5391,8.6261,2.4348
2735,-0.5748,-9.7334,-2.1843,-6.2609,8.6261,2.3652
2740,-0.4982,-9.7334,-2.1076,-5.9826,8.6957,2.5739
2745,-0.4598,-9.8483,-2.1076,-5.4957,8.6957,2.713
2750,-0.4598,-9.7334,-2.2226,-5.0087,8.7652,2.713
2755,-0.4982,-9.8483,-2.1843,-4.5217,8.9043,2.8522
2760,-0.4598,-9.81,-2.1843,-3.8261,9.113,2.9217
2765,-0.4215,-9.925,-2.031,-3.0609,9.2522,2.8522
2770,-0.4215,-9.8483,-2.0693,-2.2957,9.2522,2.8522
2775,-0.4982,-9.8866,-1.8777,-1.3913,9.1826,2.713
2780,-0.5365,-9.925,-1.8777,-0.4174,9.1826,2.6435
2785,-0.3832,-9.8866,-1.8777,0.6261,9.0435,2.4348
2790,-0.4598,-9.7334,-1.8777,1.5304,8.9739,2.3652
2795,-0.4598,-9.81,-1.8394,2.1565,8.7652,2.1565
2800,-0.4598,-9.81,-1.8394,2.6435,8.6957,1.9478
2805,-0.3832,-9.6567,-1.9543,2.9217,8.6957,1.9478
2810,-0.2299,-9.81,-2.1843,2.9217,8.6957,1.7391
2815,-0.4215,-9.6567,-1.916,2.713,8.9043,1.6
2820,-0.3449,-9.5801,-2.0693,2.5043,8.9739,1.4609
2825,-0.5365,-9.5034,-1.9927,2.1565,9.2522,1.3217
2830,-0.4215,-9.5034,-2.031,1.6,9.2522,1.1826
2835,-0.4215,-9.5418,-2.031,0.9739,9.3913,1.0435
2840,-0.5365,-9.5034,-2.0693,0.2087,9.3217,1.1826
2845,-0.4215,-9.4651,-2.031,-0.2783,9.0435,1.113
2850,-0.6131,-9.5034,-2.2609,-0.9739,8.6261,1.113
2855,-0.6131,-9.5801,-2.2992,-1.4609,8.1391,1.3217
2860,-0.5365,-9.5418,-2.3759,-2.2261,7.6522,1.4609
2865,-0.5365,-9.5418,-2.3375,-2.8522,7.2348,1.7391
2870,-0.7281,-9.5801,-2.3759,-3.6174,6.8174,1.8783
2875,-0.5748,-9.5801,-2.3375,-4.1739,6.4,2.087
2880,-0.6514,-9.6567,-2.3375,-4.7304,5.913,2.2957
2885,-0.6131,-9.7717,-2.2992,-5.287,5.5652,2.5043
2890,-0.6131,-9.7717,-2.2226,-6.0522,5.3565,2.713
2895,-0.7281,-9.81,-2.1076,-6.8174,5.2174,2.9913
2900,-0.6514,-9.81,-2.2609,-7.5826,4.9391,3.0609
2905,-0.6514,-9.7334,-2.1843,-7.9304,4.8696,3.2
2910,-0.7281,-9.695,-2.4142,-8.2087,4.7304,3.2696
2915,-0.5365,-9.7334,-2.3759,-8.2783,4.4522,3.2696
2920,-0.5365,-9.925,-2.4142,-8.4174,4.2435,3.2
2925,-0.6131,-9.6567,-2.4142,-8.5565,3.9652,3.0609
2930,-0.6514,-9.6184,-2.6441,-8.9043,3.7565,2.713
2935,-0.6514,-9.695,-2.4908,-9.113,3.5478,2.2957
2940,-0.7281,-9.5418,-2.5291,-9.2522,3.4087,1.9478
2945,-0.7281,-9.6567,-2.4908,-9.3913,3.3391,1.4609
2950,-0.6514,-9.5034,-2.6824,-9.3913,3.3391,1.0435
2955,-0.843,-9.5034,-2.6824,-9.5304,3.4087,0.6261
2960,-0.7281,-9.4268,-2.6441,-9.6696,3.5478,0.2087
2965,-0.7281,-9.5034,-2.5675,-9.7391,3.7565,-0.2087
2970,-0.8047,-9.5034,-2.7207,-9.6696,4.0348,-0.2783
2975,-0.8047,-9.4268,-2.5675,-9.6,4.3826,-0.2783
2980,-0.7281,-9.5034,-2.7207,-9.3913,4.5217,-0.2783
2985,-0.7664,-9.4651,-2.6058,-9.113,4.7304,-0.2783
2990,-0.6898,-9.4651,-2.7591,-8.6261,4.9391,-0.2783
2995,-0.7281,-9.3118,-2.6441,-8.1391,5.0783,-0.2087
