timestamp,accX,accY,accZ,gyroX,gyroY,gyroZ
0,0.0383,1.6095,-10.3465,-16.0,2.0174,-2.2957
5,0.1533,1.4179,-10.3465,-16.1391,2.087,-2.5739
10,0.115,1.5711,-10.3465,-16.3478,2.2261,-2.5739
15,0.1533,1.4562,-10.2698,-16.5565,2.4348,-2.9913
20,0.115,1.5711,-10.1549,-16.7652,2.5043,-2.9913
25,0.0,1.6095,-10.3465,-16.9739,2.6435,-3.2
30,0.115,1.4562,-10.1166,-17.1826,2.6435,-2.9217
35,0.1533,1.4945,-10.1549,-17.1826,2.6435,-2.9913
40,0.0766,1.5328,-10.1549,-17.4609,2.7826,-2.8522
45,0.115,1.4562,-10.0399,-17.3913,2.7826,-2.713
50,0.115,1.5328,-10.0782,-17.4609,2.713,-2.5043
55,0.115,1.4945,-9.9633,-17.6,2.7826,-2.2957
60,0.1916,1.6478,-10.0782,-17.6,2.9217,-1.8783
65,0.0766,1.6478,-10.1549,-17.8087,2.9913,-1.8783
70,0.115,1.6478,-9.925,-18.087,2.9913,-1.5304
75,0.115,1.5328,-9.9633,-18.0174,3.0609,-1.5304
80,0.1916,1.6095,-9.9633,-17.9478,3.2,-1.113
85,0.1533,1.5328,-9.9633,-18.0174,3.2,-1.0435
90,0.2299,1.4562,-9.81,-18.0174,3.2696,-0.6957
95,0.1533,1.5711,-9.7717,-18.1565,3.3391,-0.7652
100,0.2299,1.5328,-9.7717,-18.2261,3.4087,-0.6261
105,0.0766,1.5711,-9.81,-18.4348,3.4087,-0.6261
110,0.1533,1.6095,-9.81,-18.5043,3.4783,-0.4174
115,0.1533,1.7244,-9.5801,-18.6435,3.4783,-0.4174
120,0.1916,1.4945,-9.7717,-18.713,3.4783,-0.2087
125,0.2299,1.5328,-9.695,-18.5043,3.687,-0.2783
130,0.2299,1.6095,-9.7717,-18.1565,3.7565,0.0
135,0.0383,1.6478,-9.7334,-17.6696,3.8957,-0.2087
140,0.0766,1.6478,-9.6184,-17.113,4.0348,0.2087
145,0.0766,1.6478,-9.695,-16.4174,4.0348,0.0696
150,0.0383,1.6861,-9.6567,-15.7913,4.1739,0.4174
155,0.115,1.6861,-9.6184,-15.2348,4.313,0.3478
160,-0.0766,1.6478,-9.7334,-14.8174,4.3826,0.487
165,0.0,1.7244,-9.695,-14.4696,4.313,0.3478
170,0.0383,1.6478,-9.6184,-13.9826,4.313,0.5565
175,0.0766,1.8011,-9.695,-13.5652,4.2435,0.4174
180,0.115,1.6478,-9.6184,-13.0783,4.1739,0.6957
185,0.0766,1.7244,-9.5418,-12.5913,4.1739,0.487
190,0.0383,1.8394,-9.695,-12.1043,4.0348,0.6261
195,0.1533,1.7244,-9.81,-11.6174,4.1739,0.5565
200,0.1533,1.6861,-9.6184,-11.1304,4.1739,0.6261
205,0.0766,1.7627,-9.6567,-10.4348,3.9652,0.487
210,-0.0383,1.7244,-9.8483,-9.8783,3.8957,0.6957
215,0.0766,1.8394,-9.695,-9.4609,3.6174,0.6957
220,0.0,1.8394,-9.6184,-9.113,3.4087,1.0435
225,0.0766,1.8011,-9.6184,-8.9739,3.3391,0.9739
230,0.2299,1.7627,-9.4651,-8.6957,3.2696,1.3217
235,0.115,1.8011,-9.7334,-8.5565,3.1304,1.3217
240,0.0383,1.8394,-9.5801,-8.2087,3.2696,1.6
245,0.0383,1.916,-9.7717,-7.8609,3.4783,1.6
250,0.0766,1.9543,-9.6567,-7.4435,3.5478,1.7391
255,0.115,1.8394,-9.7334,-7.1652,3.687,1.6696
260,0.1533,1.916,-9.4651,-6.9565,3.7565,1.9478
265,0.0383,1.916,-9.6184,-6.7478,3.8261,2.0174
270,0.115,2.031,-9.6567,-6.4696,3.8261,2.2261
275,0.115,1.9543,-9.81,-6.1217,3.8261,2.1565
280,0.1533,1.9543,-9.7334,-5.8435,3.8261,2.3652
285,0.0766,1.9927,-9.81,-5.7043,3.7565,2.3652
290,0.115,1.9543,-9.7334,-5.5652,3.687,2.5043
295,0.0383,1.8394,-9.7717,-5.4261,3.4783,2.4348
300,0.115,1.8777,-9.81,-5.1478,3.3391,2.6435
305,0.0383,2.031,-9.7334,-5.0087,3.3391,2.713
310,0.0,2.1076,-9.8483,-5.0087,3.2696,2.9913
315,0.0766,2.1076,-9.81,-4.9391,3.4783,3.0609
320,0.0766,2.1843,-9.8866,-4.8,3.5478,3.2
325,0.115,2.1076,-9.6567,-4.6609,3.8261,3.0609
330,0.0383,2.2226,-9.6184,-4.5913,3.8957,3.2696
335,0.0,2.1843,-9.695,-4.5913,3.8261,3.0609
340,0.1916,2.1843,-9.81,-4.5217,3.8957,3.3391
345,0.1916,2.031,-9.7717,-4.4522,4.0348,3.4087
350,0.0766,2.1459,-9.8866,-4.1739,4.1043,3.6174
355,0.0383,1.9927,-9.8483,-4.1043,4.1739,3.6174
360,0.0766,2.1076,-9.7717,-4.0348,4.2435,3.7565
365,0.1533,2.0693,-9.8483,-4.1043,4.2435,3.687
370,0.115,2.0693,-9.8483,-4.2435,4.2435,3.8957
375,0.2299,1.9543,-9.81,-4.2435,4.313,3.8957
380,0.1533,2.2226,-9.81,-4.2435,4.3826,3.9652
385,0.1533,2.1459,-9.925,-4.2435,4.5913,3.7565
390,0.0383,2.1459,-9.8866,-4.1739,4.6609,3.8261
395,0.115,2.1843,-9.9633,-4.0348,4.7304,3.6174
400,0.115,2.0693,-9.8483,-3.8261,4.5913,3.5478
405,0.0766,2.1843,-9.8866,-3.5478,4.5217,3.5478
410,0.115,2.2226,-9.925,-3.4087,4.4522,3.5478
415,0.0766,2.1076,-9.925,-3.2,4.3826,3.4783
420,0.2299,2.1843,-10.0399,-3.2696,4.3826,3.4087
425,0.115,2.1843,-9.925,-3.4783,4.3826,3.2
430,0.1533,2.1459,-9.9633,-3.7565,4.3826,3.2
435,0.1533,2.1843,-9.7717,-3.9652,4.3826,3.0609
440,0.0766,2.1459,-9.925,-4.313,4.4522,3.0609
445,0.2682,2.1843,-9.8866,-4.5913,4.2435,2.9913
450,0.0766,2.1076,-9.7717,-5.0087,4.1739,3.1304
455,0.115,2.2226,-9.925,-5.287,4.1739,2.9913
460,0.1533,2.1843,-9.8866,-5.4957,4.313,2.9217
465,0.1533,2.2609,-9.7717,-5.6348,4.4522,2.713
470,0.0383,2.2992,-9.9633,-5.7043,4.5217,2.6435
475,0.1916,2.2226,-9.8866,-5.7739,4.5913,2.2957
480,0.1533,2.2992,-10.0782,-5.8435,4.5913,2.2261
485,0.115,2.2609,-9.8483,-5.9826,4.5217,1.8087
490,0.2299,2.2609,-9.8483,-5.9826,4.5913,1.8783
495,0.1916,2.2609,-10.1166,-5.913,4.5913,1.7391
500,0.1916,2.2992,-10.1549,-5.4957,4.4522,1.6696
505,0.3066,2.1459,-10.0782,-5.0783,4.3826,1.6696
510,0.1916,2.1843,-10.2315,-4.6609,4.3826,1.6696
515,0.0766,2.2226,-10.0399,-4.313,4.4522,1.6696
520,0.3832,2.2226,-9.9633,-4.0348,4.5217,1.8087
525,0.2299,2.2226,-9.9633,-3.687,4.6609,1.8087
530,0.1916,2.2226,-9.925,-3.4783,4.9391,1.9478
535,0.1533,2.2609,-9.7717,-3.2696,4.9391,1.8087
540,0.1533,2.1459,-9.6184,-3.2,5.1478,1.8783
545,0.2299,2.1843,-9.8866,-2.9217,5.4261,1.7391
550,0.2299,2.0693,-9.8866,-2.7826,5.4957,1.6
555,0.1916,2.1459,-9.6567,-2.5739,5.4957,1.5304
560,0.2682,2.1843,-9.6184,-2.4348,5.4261,1.3913
565,0.1533,2.1843,-9.695,-2.2957,5.3565,1.3217
570,0.115,2.1843,-9.7334,-2.2261,5.2174,1.3217
575,0.1533,2.2992,-9.6567,-2.2261,4.8696,1.1826
580,0.2682,2.2992,-9.7717,-2.2957,4.6609,1.113
585,0.1533,2.2609,-9.8483,-2.5043,4.5217,1.0435
590,0.2682,2.1843,-9.7334,-2.9913,4.3826,1.0435
595,0.2299,2.2992,-9.6567,-3.1304,4.313,0.9043
600,0.1916,2.1843,-9.7334,-3.4087,4.313,0.9043
605,0.1533,2.2609,-9.6567,-3.4087,4.3826,0.7652
610,0.2299,2.2226,-9.6184,-3.4087,4.5217,0.6957
615,0.2299,2.2226,-9.695,-3.4783,4.8,0.6261
620,0.1533,2.2609,-9.6184,-3.3391,4.9391,0.487
625,0.1916,2.2226,-9.5801,-3.2696,5.2174,0.3478
630,0.1533,2.2992,-9.7717,-3.1304,5.287,0.3478
635,0.2299,2.2226,-9.695,-2.9913,5.287,0.1391
640,0.2682,2.2226,-9.695,-2.7826,5.287,0.0696
645,0.3832,2.1459,-9.7334,-2.713,5.0783,0.0
650,0.3449,2.1843,-9.695,-2.4348,4.8,-0.0696
655,0.3449,2.2226,-9.7334,-2.4348,4.5217,-0.1391
660,0.3066,2.1459,-9.7717,-2.0174,4.2435,-0.2783
665,0.3449,2.2226,-9.6567,-1.6696,4.1043,-0.3478
670,0.2682,2.2609,-9.7717,-1.4609,4.0348,-0.4174
675,0.1916,2.2609,-9.81,-1.1826,4.0348,-0.487
680,0.2682,2.2226,-9.695,-0.8348,4.2435,-0.5565
685,0.4215,2.2609,-9.7334,-0.5565,4.3826,-0.6261
690,0.3449,2.1843,-9.81,-0.2783,4.7304,-0.8348
695,0.2682,2.2609,-9.6567,-0.1391,5.0087,-0.9739
700,0.3449,2.2226,-9.7717,0.0696,5.0783,-1.113
705,0.3832,2.1843,-9.81,0.0,5.2174,-1.0435
710,0.4215,2.1076,-9.7334,0.0696,5.2174,-1.0435
715,0.2682,2.2609,-9.6567,0.1391,5.287,-1.0435
720,0.3832,2.1459,-9.81,0.2087,5.287,-1.0435
725,0.2682,2.1459,-9.7334,0.2087,5.1478,-1.113
730,0.2299,2.2992,-9.695,0.2087,5.2174,-1.3217
735,0.3066,2.2226,-9.695,0.1391,5.2174,-1.4609
740,0.2682,2.2609,-9.7717,0.0,5.1478,-1.8087
745,0.2682,2.3759,-9.925,-0.0696,5.0783,-2.0174
750,0.3066,2.2609,-10.0016,-0.2087,5.0087,-2.4348
755,0.3066,2.2992,-9.9633,-0.3478,4.8696,-2.5739
760,0.2299,2.3759,-9.695,-0.5565,4.7304,-2.8522
765,0.2682,2.3759,-9.8483,-0.7652,4.5217,-2.9217
770,0.2299,2.3375,-9.7334,-1.113,4.2435,-3.0609
775,0.3449,2.2609,-9.6567,-1.3217,4.2435,-3.2
780,0.3066,2.1076,-9.81,-1.4609,4.1739,-3.3391
785,0.2682,2.2226,-9.5801,-1.6696,4.1739,-3.687
790,0.3066,2.1459,-9.5418,-1.6696,4.1739,-3.8261
795,0.4215,2.031,-9.6567,-1.6,4.313,-3.9652
800,0.3832,2.031,-9.6567,-1.7391,4.5217,-4.2435
805,0.3066,1.9927,-9.695,-1.7391,4.5913,-4.3826
810,0.3066,2.0693,-9.7717,-1.5304,4.4522,-4.5913
815,0.4598,2.1076,-9.7334,-1.3217,4.4522,-4.5913
820,0.3066,2.031,-9.8866,-1.113,4.5217,-4.5217
825,0.3449,1.9543,-9.8483,-0.8348,4.5217,-4.4522
830,0.2299,2.1076,-9.8866,-0.5565,4.5913,-4.5217
835,0.2682,2.0693,-9.7717,-0.1391,5.0087,-4.5217
840,0.2682,2.1459,-9.81,0.2087,5.2174,-4.4522
845,0.3066,2.0693,-9.81,0.487,5.5652,-4.4522
850,0.3066,2.0693,-9.6567,0.7652,5.7043,-4.5913
855,0.3832,2.1459,-9.7717,1.0435,5.8435,-4.3826
860,0.2299,2.1459,-9.7334,1.3217,5.7739,-4.4522
865,0.2299,2.1843,-9.7717,1.3913,5.6348,-4.2435
870,0.3449,2.0693,-10.0016,1.6,5.4957,-4.1043
875,0.3066,2.1076,-9.925,1.8087,5.3565,-3.9652
880,0.3066,2.0693,-9.81,1.8783,5.287,-3.8261
885,0.2299,2.1459,-9.7334,1.8783,5.287,-3.7565
890,0.1533,2.1459,-9.7334,1.8783,5.4261,-3.8261
895,0.115,2.031,-9.7717,2.0174,5.4957,-3.9652
900,0.2682,2.0693,-9.8866,2.2261,5.4261,-4.2435
905,0.2299,2.1076,-9.7334,2.2957,5.2174,-4.2435
910,0.2682,2.1076,-9.7717,2.5739,5.1478,-4.3826
915,0.2682,2.0693,-9.6567,2.5739,5.0783,-4.3826
920,0.2299,2.1076,-9.6567,2.4348,4.9391,-4.5217
925,0.2682,2.1843,-9.81,2.2261,4.9391,-4.313
930,0.3449,2.1076,-9.7717,2.087,4.8696,-4.3826
935,0.3066,2.0693,-9.8866,1.8783,4.7304,-4.2435
940,0.2682,2.2226,-9.81,1.5304,4.5913,-4.1739
945,0.3066,2.1076,-10.0016,1.4609,4.5217,-4.1043
950,0.3066,2.1459,-9.8866,1.3217,4.5217,-4.1043
955,0.2682,2.0693,-10.0782,1.3913,4.3826,-3.8957
960,0.2682,2.1076,-9.925,1.3913,4.313,-3.8261
965,0.2299,2.0693,-9.8483,1.3217,4.313,-3.6174
970,0.2682,2.1843,-9.925,1.2522,4.5217,-3.687
975,0.1916,2.1459,-9.9633,1.1826,4.5913,-3.6174
980,0.0766,1.6095,-10.2698,1.113,4.7304,-3.687
985,0.2299,2.0693,-9.925,1.113,4.6609,-3.6174
990,0.1916,2.2226,-9.8483,0.9043,4.5217,-3.7565
995,0.1916,2.1843,-10.0782,0.9739,4.2435,-3.687
1000,0.3066,2.2226,-10.0399,0.7652,4.1043,-3.7565
1005,0.3066,2.1459,-9.9633,0.7652,3.7565,-3.6174
1010,0.3066,2.2226,-10.0399,0.5565,3.687,-3.7565
1015,0.3066,2.1843,-10.0782,0.4174,3.687,-3.6174
1020,0.3066,2.1459,-10.0782,0.2783,3.6174,-3.687
1025,0.3066,2.1076,-10.1166,0.1391,3.6174,-3.687
1030,0.2299,2.2609,-9.9633,-0.0696,3.8261,-3.8261
1035,0.2682,2.2226,-9.9633,-0.3478,3.8957,-3.8957
1040,0.1916,2.2609,-10.0782,-0.487,4.0348,-4.0348
1045,0.3832,2.0693,-9.8866,-0.9043,3.9652,-4.0348
1050,0.4215,2.1459,-9.8866,-1.1826,3.9652,-4.1739
1055,0.3449,2.1459,-9.695,-1.5304,3.7565,-4.0348
1060,0.1916,2.1076,-9.81,-2.0174,3.6174,-4.1043
1065,0.3449,2.1076,-9.7717,-2.3652,3.4087,-3.8957
1070,0.3066,2.1843,-10.0016,-2.6435,3.2696,-3.9652
1075,0.3832,2.031,-9.7717,-2.7826,3.2696,-3.8957
1080,0.3066,1.916,-9.8866,-2.8522,3.2696,-4.1043
1085,0.2682,1.8777,-9.695,-2.9913,3.4087,-4.1043
1090,0.1916,2.1076,-9.8483,-2.9913,3.7565,-4.3826
1095,0.4215,1.9543,-9.81,-3.0609,3.9652,-4.4522
1100,0.2682,2.031,-9.8483,-2.9913,4.1739,-4.5913
1105,0.3449,1.8777,-9.8483,-2.8522,4.2435,-4.4522
1110,0.3449,1.8777,-9.9633,-2.6435,4.313,-4.5217
1115,0.2299,1.916,-10.0399,-2.3652,4.313,-4.313
1120,0.3449,1.8777,-9.9633,-2.0174,4.1739,-4.313
1125,0.3449,1.8394,-9.7717,-1.6,4.0348,-4.0348
1130,0.3449,1.8777,-9.925,-1.0435,4.0348,-3.9652
1135,0.3066,1.8394,-9.7334,-0.6957,4.0348,-3.687
1140,0.3449,1.8011,-9.8483,-0.2783,4.1739,-3.687
1145,0.3449,1.916,-9.6567,0.2783,4.1739,-3.5478
1150,0.2682,1.7627,-9.925,0.487,4.2435,-3.4783
1155,0.2299,1.8011,-9.695,0.6261,4.2435,-3.2696
1160,0.2299,1.916,-9.7334,0.7652,4.2435,-3.2696
1165,0.3449,1.916,-9.6567,0.9739,4.1043,-3.0609
1170,0.2682,1.9543,-9.7717,1.0435,3.9652,-2.9913
1175,0.3066,1.9543,-9.925,1.2522,3.687,-2.7826
1180,0.3066,1.9543,-9.9633,1.3217,3.4087,-2.8522
1185,0.2299,1.9543,-9.7717,1.0435,3.1304,-2.5043
1190,0.1533,1.9927,-10.0016,0.6957,3.0609,-2.6435
1195,0.1916,2.031,-10.0016,0.3478,3.0609,-2.2957
1200,0.2682,1.8777,-9.9633,0.2087,3.1304,-2.3652
1205,0.115,2.031,-9.925,0.2783,3.3391,-2.2261
1210,0.1533,1.9927,-9.8866,0.3478,3.4087,-2.3652
1215,0.115,2.0693,-9.695,0.3478,3.4783,-2.2261
1220,0.2299,1.9543,-9.8483,0.1391,3.6174,-2.2261
1225,0.1916,1.9927,-9.8866,-0.0696,3.687,-1.8783
1230,0.3449,1.9543,-9.8866,-0.2087,3.7565,-1.7391
1235,0.2299,1.9543,-9.81,-0.5565,3.7565,-1.3913
1240,0.2682,1.916,-9.8866,-0.8348,3.8261,-1.3217
1245,0.2682,1.9927,-9.925,-1.0435,3.9652,-1.113
1250,0.115,2.031,-9.7334,-1.2522,4.1739,-1.2522
1255,0.1916,1.9543,-9.8483,-1.4609,4.4522,-0.9739
1260,0.1533,1.9543,-9.925,-1.6,4.8696,-1.1826
1265,0.2682,1.9543,-9.8866,-1.5304,5.0783,-1.0435
1270,0.1916,2.031,-9.7717,-1.4609,5.2174,-1.2522
1275,0.2682,1.8777,-9.6567,-1.4609,5.2174,-0.9739
1280,0.1533,1.8394,-9.8483,-1.2522,5.2174,-1.2522
1285,0.2682,2.031,-9.8483,-1.1826,5.0783,-0.9739
1290,0.1533,1.916,-9.81,-0.9739,5.1478,-0.9739
1295,0.1533,1.9927,-9.8483,-0.6957,5.1478,-0.8348
1300,0.1916,1.9927,-9.8483,-0.4174,5.1478,-0.8348
1305,0.3066,1.9927,-9.7334,-0.0696,5.0087,-0.8348
1310,0.0766,1.9543,-9.9633,0.1391,4.8,-0.6957
1315,0.1533,1.916,-9.7334,0.3478,4.5913,-0.3478
1320,0.2682,1.916,-9.9633,0.4174,4.313,-0.3478
1325,0.2299,1.9927,-9.7717,0.2783,4.313,-0.0696
1330,0.1533,2.031,-9.925,0.2087,4.313,-0.0696
1335,0.1533,1.9927,-9.8866,0.0696,4.3826,0.0696
1340,0.2682,1.8777,-9.81,-0.0696,4.5217,0.0696
1345,0.1533,1.9927,-9.925,-0.1391,4.7304,0.2087
1350,0.0766,1.9543,-9.81,-0.1391,4.8,0.1391
1355,0.1916,1.9543,-9.7717,-0.4174,4.8696,0.4174
1360,0.115,1.9927,-9.7334,-0.3478,5.0087,0.2783
1365,0.2682,1.9543,-9.8866,-0.6261,4.9391,0.5565
1370,0.115,1.916,-9.8483,-0.6261,4.8,0.487
1375,0.1916,1.916,-9.8483,-0.6957,4.7304,0.6261
1380,0.2299,1.9543,-9.8866,-0.6957,4.5217,0.5565
1385,0.1533,1.9927,-9.6567,-0.6261,4.2435,0.9043
1390,0.1533,1.9927,-9.8483,-0.4174,4.0348,0.8348
1395,0.0383,2.031,-9.8483,-0.4174,4.0348,1.2522
1400,0.1533,1.9927,-9.81,-0.5565,3.8957,1.1826
1405,0.1533,1.9543,-9.8483,-0.7652,4.0348,1.3217
1410,0.0766,1.916,-9.7717,-0.8348,4.2435,1.113
1415,0.1916,1.9927,-10.0016,-1.0435,4.1739,1.2522
1420,0.1533,1.9927,-9.9633,-1.1826,4.1043,1.2522
1425,0.1533,2.031,-9.8483,-1.3217,3.8261,1.4609
1430,0.0383,1.8777,-10.0016,-1.3217,3.6174,1.5304
1435,0.2682,1.8777,-9.9633,-1.3913,3.3391,1.8087
1440,0.1533,1.8394,-9.925,-1.3913,3.2,1.6
1445,0.1916,1.8394,-9.925,-1.3913,3.2696,1.7391
1450,0.1533,1.8777,-9.9633,-1.3913,3.4783,1.6
1455,0.1916,1.8777,-9.8866,-1.4609,3.6174,1.6
1460,0.0766,1.9927,-9.9633,-1.4609,3.7565,1.3217
1465,0.0766,1.9927,-9.9633,-1.2522,3.8957,1.4609
1470,0.1916,1.916,-9.8483,-1.113,3.9652,1.4609
1475,0.0766,2.031,-9.8483,-1.0435,4.1043,1.6696
1480,0.1533,1.9543,-9.925,-1.0435,4.0348,1.4609
1485,0.2299,1.916,-9.925,-1.1826,3.9652,1.7391
1490,0.2299,1.8011,-9.925,-1.3913,4.0348,1.6
1495,0.1916,1.8394,-9.9633,-1.6,4.0348,1.6696
1500,0.0383,1.8777,-9.925,-1.8783,3.9652,1.4609
1505,0.115,1.9543,-9.8483,-1.9478,3.8261,1.6696
1510,0.1916,1.9543,-9.925,-1.9478,3.7565,1.5304
1515,0.2299,1.916,-9.8483,-2.2261,3.687,1.6696
1520,0.1916,1.916,-9.81,-2.5739,3.6174,1.5304
1525,0.2299,1.916,-9.7334,-2.8522,3.5478,1.6696
1530,0.1533,1.8394,-9.925,-3.1304,3.4783,1.4609
1535,0.2682,1.7627,-9.8866,-2.9217,3.4783,1.6
1540,0.2682,1.916,-9.8866,-2.713,3.5478,1.5304
1545,0.2682,1.9543,-9.925,-2.4348,3.4087,1.8087
1550,0.115,1.9543,-9.8866,-2.2261,3.3391,1.6696
1555,0.2299,1.9927,-9.81,-2.0174,3.3391,1.8783
1560,0.3066,1.8777,-9.7717,-2.0174,3.4783,1.8783
1565,0.3066,1.916,-9.7334,-1.7391,3.5478,1.9478
1570,0.2299,1.9543,-9.81,-1.6,3.5478,1.8087
1575,0.2682,1.9543,-9.8483,-1.3913,3.4783,1.8783
1580,0.1916,1.9543,-9.925,-1.113,3.4783,1.6696
1585,0.1916,2.031,-9.8483,-0.9043,3.3391,1.8783
1590,0.2682,2.1076,-9.8483,-0.9043,3.2696,1.7391
1595,0.2299,1.9927,-9.9633,-0.8348,3.2696,1.9478
1600,0.1916,1.916,-9.925,-0.6957,3.1304,1.7391
1605,0.2682,1.9543,-9.8866,-0.7652,3.0609,1.8783
1610,0.1533,1.916,-9.8866,-0.6957,3.0609,1.3913
1615,0.1533,1.9927,-10.0399,-0.7652,2.8522,1.5304
1620,0.1916,2.0693,-10.0016,-0.8348,2.713,1.2522
1625,0.1916,1.9927,-9.8866,-0.9739,2.5739,1.3217
1630,0.1533,2.1076,-9.8483,-0.9739,2.5043,1.113
1635,0.1533,2.031,-9.9633,-0.9739,2.5739,1.1826
1640,0.115,2.1459,-9.81,-1.113,2.6435,0.9739
1645,0.1916,2.031,-9.8866,-1.3217,2.8522,1.0435
1650,0.2682,2.1076,-9.8866,-1.5304,2.9913,0.8348
1655,0.1916,1.9543,-9.8483,-1.8087,3.1304,1.0435
1660,0.2299,2.0693,-9.8483,-2.1565,3.2696,0.9739
1665,0.2682,2.0693,-9.925,-2.4348,3.4087,1.113
1670,0.2299,1.9543,-9.7334,-2.5043,3.687,0.9739
1675,0.1533,1.9927,-9.9633,-2.5739,3.687,1.1826
1680,0.1916,2.031,-9.8866,-2.713,3.8261,1.113
1685,0.3066,1.9543,-9.695,-2.7826,3.9652,1.2522
1690,0.1533,2.031,-9.8866,-2.7826,4.2435,0.9739
1695,0.2299,1.8777,-9.7334,-2.9217,4.313,0.9739
1700,0.1533,2.0693,-9.695,-3.0609,4.3826,0.6957
1705,0.1916,1.8777,-9.6184,-3.2,4.5913,0.6957
1710,0.1533,1.9927,-9.6184,-3.2,4.5913,0.487
1715,0.2299,2.0693,-9.81,-3.2,4.5217,0.6957
1720,0.1916,1.9543,-9.81,-3.0609,4.313,0.6261
1725,0.115,1.9543,-9.7334,-2.7826,4.0348,0.8348
1730,0.1533,2.031,-9.7717,-2.4348,3.9652,0.6957
1735,0.1916,1.916,-9.5801,-2.1565,3.687,0.9043
1740,0.1533,2.0693,-9.7334,-1.9478,3.687,0.6957
1745,0.115,1.9927,-9.695,-1.8087,3.5478,0.7652
1750,0.115,1.9543,-9.5034,-1.5304,3.5478,0.487
1755,0.1533,1.916,-9.5801,-1.3217,3.5478,0.5565
1760,0.1916,1.8777,-9.5034,-1.0435,3.4783,0.3478
1765,0.2299,1.6861,-9.7717,-0.8348,3.5478,0.487
1770,0.1916,1.9543,-9.8483,-0.5565,3.4783,0.2783
1775,0.2299,1.9543,-9.8483,-0.4174,3.5478,0.4174
1780,0.1533,1.9543,-9.7717,-0.0696,3.8261,0.1391
1785,0.2682,2.031,-9.7334,0.1391,4.0348,0.1391
1790,0.1533,1.9927,-9.8483,0.2087,4.1739,-0.2087
1795,0.0383,2.2226,-9.8483,0.2783,4.313,-0.2087
1800,0.1916,2.1459,-9.7717,0.1391,4.3826,-0.487
1805,0.2299,2.1459,-9.8866,0.0696,4.5913,-0.3478
1810,0.1916,2.2226,-9.8866,-0.2087,4.6609,-0.6261
1815,0.115,2.0693,-9.7717,-0.487,4.6609,-0.487
1820,0.2299,2.1076,-10.0016,-0.9043,4.5217,-0.487
1825,0.115,2.1459,-9.6184,-1.113,4.2435,-0.3478
1830,0.1916,2.1459,-9.8866,-1.3217,4.1043,-0.2783
1835,0.115,2.1459,-9.6567,-1.4609,3.8261,-0.0696
1840,0.0766,2.1076,-9.7717,-1.6,3.7565,0.0
1845,0.1533,2.1076,-9.6184,-1.6,3.687,0.1391
1850,0.2682,1.9927,-9.7334,-1.4609,3.687,0.0
1855,0.1533,2.1459,-9.7717,-1.3217,3.8261,0.2087
1860,0.2682,1.9927,-9.8483,-1.113,3.9652,0.1391
1865,0.0383,2.0693,-9.8483,-0.9739,4.313,0.2783
1870,0.0766,1.9927,-9.9633,-0.9739,4.5913,0.0696
1875,0.1533,1.916,-9.7717,-0.8348,4.6609,0.1391
1880,0.115,2.0693,-9.81,-0.6957,4.8,0.0696
1885,-0.0383,2.1459,-9.8483,-0.4174,4.8696,0.2783
1890,0.115,2.031,-10.0399,-0.3478,5.0087,0.1391
1895,0.1916,2.1459,-10.0782,-0.2087,4.8696,0.4174
1900,0.1533,2.0693,-10.0016,-0.3478,4.8,0.2783
1905,0.0383,2.1459,-10.0782,-0.3478,4.7304,0.4174
1910,0.115,2.1843,-10.0782,-0.4174,4.7304,0.3478
1915,0.0383,2.1459,-9.925,-0.4174,4.6609,0.487
1920,0.1533,2.1843,-10.1932,-0.3478,4.6609,0.487
1925,0.0766,2.2226,-9.8866,-0.487,4.6609,0.5565
1930,0.1533,2.2992,-9.81,-0.6957,4.8,0.3478
1935,0.1533,2.2226,-10.0016,-0.8348,4.8,0.3478
1940,0.1916,2.2609,-9.9633,-0.9739,4.5913,0.1391
1945,0.1916,2.2609,-10.0016,-1.3217,4.4522,0.3478
1950,0.1916,2.2226,-10.0016,-1.6,4.3826,0.2783
1955,0.1533,2.2226,-10.0016,-2.0174,4.2435,0.487
1960,0.0766,2.3375,-9.9633,-2.2261,4.1043,0.487
1965,0.1533,2.1843,-9.8483,-2.5043,3.9652,0.6957
1970,0.2682,2.1843,-9.8866,-2.8522,3.9652,0.7652
1975,0.1533,2.2226,-9.8483,-3.0609,3.9652,0.8348
1980,0.2299,2.1459,-9.81,-3.3391,4.1043,0.6957
1985,0.1916,2.2609,-10.0782,-3.5478,4.2435,0.6261
1990,0.1916,2.2226,-10.1166,-3.687,4.313,0.487
1995,0.115,2.1843,-9.81,-3.8261,4.4522,0.6261
2000,0.1916,2.1843,-10.0399,-3.9652,4.5913,0.5565
2005,0.2682,2.2226,-10.0399,-4.1739,4.6609,0.6957
2010,0.1916,2.1459,-10.0016,-4.2435,4.8,0.6261
2015,0.1916,2.2226,-9.9633,-4.3826,4.9391,0.6957
2020,0.0383,2.2226,-9.695,-4.4522,5.0087,0.7652
2025,0.1533,2.1459,-9.8483,-4.5217,4.9391,0.9043
2030,0.2682,2.1843,-9.8483,-4.5217,5.0783,0.9739
2035,0.1916,2.1459,-9.8866,-4.5217,5.0087,0.9739
2040,0.2299,2.1459,-9.8483,-4.5217,4.9391,0.9739
2045,0.3066,2.031,-9.8866,-4.313,4.8,1.1826
2050,0.1916,1.9927,-9.81,-4.1739,4.8696,1.0435
2055,0.2682,2.1843,-9.8483,-3.8957,4.7304,1.2522
2060,0.1533,2.2609,-9.7717,-3.6174,4.5913,1.0435
2065,0.2299,2.1843,-9.9633,-3.5478,4.4522,1.113
2070,0.115,2.1843,-9.925,-3.5478,4.2435,0.9739
2075,0.1533,2.1459,-9.7717,-3.4783,4.0348,0.9043
2080,0.0766,2.2226,-9.8483,-3.4087,3.7565,0.8348
2085,0.115,2.1459,-9.8483,-3.2696,3.5478,0.7652
2090,0.1916,2.1843,-9.8866,-3.2,3.2696,0.6957
2095,0.1533,2.2609,-10.0399,-3.2696,3.0609,0.7652
2100,0.0766,2.3375,-9.8866,-3.2,3.0609,0.5565
2105,0.115,2.2609,-9.925,-3.3391,3.1304,0.5565
2110,0.2682,2.2609,-9.8866,-3.3391,3.3391,0.3478
2115,0.2299,2.1843,-9.8866,-3.3391,3.5478,0.4174
2120,0.1916,2.2609,-9.81,-3.3391,3.687,0.2783
2125,0.1916,2.2226,-10.0016,-3.4783,3.8957,0.4174
2130,0.115,2.2609,-9.81,-3.6174,3.8261,0.3478
2135,0.1916,2.2226,-9.9633,-3.6174,3.8957,0.4174
2140,0.115,2.1843,-9.8866,-3.6174,3.8957,0.4174
2145,0.0383,2.1076,-9.8866,-3.6174,3.8957,0.4174
2150,0.2682,2.1459,-9.6567,-3.4783,3.8957,0.3478
2155,0.2682,2.2226,-9.81,-3.1304,3.9652,0.4174
2160,0.2682,2.1459,-9.695,-2.9217,4.0348,0.2783
2165,0.3066,2.031,-9.695,-2.4348,4.1043,0.2783
2170,0.2682,2.1459,-9.7717,-2.0174,4.2435,0.0696
2175,0.3066,2.2226,-9.7334,-1.6,4.3826,0.1391
2180,0.3449,2.031,-9.7717,-1.3217,4.4522,0.1391
2185,0.3449,2.1843,-9.7334,-0.9739,4.5913,0.3478
2190,0.2299,2.1843,-9.6184,-0.5565,4.6609,0.3478
2195,0.3066,2.1843,-9.5801,-0.1391,4.8,0.487
2200,0.1533,2.1076,-9.6567,0.4174,4.9391,0.4174
2205,0.3449,2.031,-9.7334,0.9739,5.0783,0.487
2210,0.3066,2.1076,-9.7334,1.5304,5.2174,0.5565
2215,0.2682,2.1459,-9.7717,2.0174,5.2174,0.6957
2220,0.3066,2.1843,-9.81,2.5739,5.3565,0.6957
2225,0.1916,2.2992,-9.8483,3.1304,5.3565,0.6957
2230,0.1916,2.2609,-9.925,3.4087,5.287,0.6261
2235,0.0766,2.3375,-10.0782,3.4783,5.0783,0.5565
2240,0.1916,2.2992,-10.0782,3.3391,4.7304,0.4174
2245,0.115,2.3375,-10.1932,3.0609,4.3826,0.5565
2250,0.0383,2.3375,-10.0782,2.5043,3.8957,0.5565
2255,0.1916,2.3375,-10.3082,1.9478,3.8957,0.6957
2260,0.1533,2.3375,-10.1549,1.3217,3.8957,0.487
2265,0.1533,2.2992,-10.0782,0.3478,4.1043,0.487
2270,0.2682,2.2992,-10.0782,-0.487,4.2435,0.4174
2275,0.3066,2.2992,-10.0782,-1.3913,4.1739,0.3478
2280,0.3449,2.2992,-10.1549,-2.0174,4.2435,0.487
2285,0.2682,2.3375,-10.0399,-2.5739,4.4522,0.6261
2290,0.2682,2.2992,-9.8866,-2.9217,4.6609,0.6261
2295,0.2682,2.3759,-10.0016,-3.2696,4.8,0.6957
2300,0.3066,2.3375,-9.925,-3.687,4.6609,0.6957
2305,0.2682,2.2609,-9.8866,-4.1739,4.4522,0.8348
2310,0.3066,2.2609,-9.925,-4.3826,4.3826,0.8348
2315,0.3066,2.2992,-10.0782,-4.6609,4.3826,0.9739
2320,0.2299,2.2992,-10.0399,-4.9391,4.5217,0.8348
2325,0.2299,2.3375,-10.0782,-5.1478,4.7304,0.7652
2330,0.2299,2.3759,-10.1166,-5.3565,4.8696,0.5565
2335,0.1916,2.4142,-10.3082,-5.287,4.9391,0.4174
2340,0.2299,2.4142,-10.1549,-5.1478,5.0087,0.2783
2345,0.1916,2.4142,-10.4231,-4.9391,4.9391,0.1391
2350,0.1916,2.4525,-10.4998,-4.8,5.0087,-0.0696
2355,0.2299,2.5675,-10.3465,-4.8,5.0087,-0.1391
2360,0.2299,2.5291,-10.2315,-4.7304,4.8696,-0.2783
2365,0.2299,2.4525,-10.1932,-4.6609,4.7304,-0.487
2370,0.3066,2.4142,-10.2315,-4.5217,4.7304,-0.6261
2375,0.1916,2.3375,-10.1932,-4.3826,4.6609,-0.6957
2380,0.2299,2.3759,-9.9633,-4.1043,4.5217,-0.6957
2385,0.1533,2.3759,-9.925,-4.0348,4.313,-0.6261
2390,0.1916,2.2609,-9.8483,-3.8261,4.1739,-0.6261
2395,0.115,2.4142,-9.6567,-3.8261,3.9652,-0.5565
2400,0.115,2.3375,-9.7717,-3.8957,3.687,-0.487
2405,0.2299,2.3375,-9.6184,-3.687,3.4087,-0.6261
2410,0.2682,2.2992,-9.5801,-3.7565,3.2,-0.6261
2415,0.2299,2.2609,-9.5801,-3.9652,3.2,-0.6957
2420,0.2299,2.1076,-9.5034,-4.1739,3.2696,-0.8348
2425,0.1533,2.1843,-9.3885,-4.3826,3.2696,-0.9043
2430,0.2682,2.031,-9.4268,-4.5217,3.3391,-0.9739
2435,0.115,2.1076,-9.3502,-4.4522,3.2,-1.113
2440,0.2682,2.1459,-9.2735,-4.3826,3.1304,-1.2522
2445,0.2299,2.1459,-9.2735,-4.3826,2.8522,-1.1826
2450,0.1533,2.2226,-9.1586,-4.3826,2.7826,-1.1826
2455,0.1916,2.1076,-9.1969,-4.313,2.713,-0.9739
2460,0.3066,2.1843,-9.0436,-4.2435,2.8522,-0.7652
2465,0.3449,2.2226,-9.1202,-4.313,3.2,-0.6957
2470,0.3449,2.1843,-9.3502,-4.3826,3.5478,-0.487
2475,0.2299,2.031,-9.0819,-4.5217,3.8957,-0.5565
2480,0.1916,2.1843,-9.2735,-4.5217,3.7565,-0.5565
2485,0.2682,2.2609,-9.1586,-4.1739,3.2696,-0.487
2490,0.3449,2.031,-9.2735,-3.8261,2.9913,-0.4174
2495,0.2682,2.2226,-9.4268,-3.4087,2.8522,-0.2087
2500,0.3449,2.2226,-9.3885,-2.9913,2.9913,-0.1391
2505,0.1916,2.2226,-9.5801,-2.4348,3.4783,-0.1391
2510,0.3832,2.1843,-9.7717,-2.0174,3.9652,-0.2783
2515,0.3449,2.1843,-9.8866,-1.6,4.5217,-0.4174
2520,0.3449,2.1843,-9.7717,-1.2522,4.8,-0.6957
2525,0.3832,2.2226,-10.0782,-1.0435,4.8696,-0.9739
2530,0.3066,2.1076,-10.0399,-1.0435,4.8696,-1.113
2535,0.0,1.7627,-10.0016,-0.9739,4.9391,-1.113
2540,0.3449,2.1843,-9.8483,-1.1826,4.8,-1.2522
2545,0.4215,2.031,-9.8866,-1.8087,4.313,-1.6696
2550,0.4598,2.2226,-9.5418,-1.7391,3.8957,-1.0435
2555,0.4598,2.0693,-9.81,-1.8783,3.5478,-0.9043
2560,0.3449,2.1459,-9.8483,-1.8087,3.2696,-0.8348
2565,0.3832,2.0693,-9.8866,-2.0174,3.1304,-0.9043
2570,0.4215,2.031,-10.1166,-2.4348,3.2,-0.9043
2575,0.4598,2.1459,-10.4231,-2.9217,3.4783,-1.2522
2580,0.3449,2.3375,-10.4231,-3.7565,3.8261,-1.7391
2585,0.4215,2.2226,-10.768,-4.1043,4.4522,-1.8783
2590,0.3832,2.3759,-11.0363,-4.313,5.0087,-2.2261
2595,0.3066,2.3759,-11.0746,-4.5217,5.6348,-2.8522
2600,0.3066,2.4908,-11.1129,-4.5217,6.1913,-3.3391
2605,0.3449,2.4142,-11.2279,-4.2435,6.5391,-4.0348
2610,0.3066,2.5291,-11.4195,-3.8261,6.5391,-4.313
2615,0.2682,2.5675,-11.2279,-3.2,6.0522,-4.4522
2620,0.2682,2.6058,-10.9596,-2.713,5.3565,-4.3826
2625,0.2299,2.5675,-10.8446,-2.5043,4.6609,-4.3826
2630,0.2299,2.6058,-10.653,-2.3652,3.6174,-4.2435
2635,0.2682,2.6824,-10.8063,-2.6435,2.8522,-4.5913
2640,0.3066,2.5675,-10.4614,-2.8522,2.5043,-4.5913
2645,0.3832,2.4525,-10.5764,-3.4087,2.4348,-4.6609
2650,0.1916,2.4525,-10.4998,-4.4522,2.3652,-4.7304
2655,0.3066,2.3759,-10.4614,-5.7739,2.4348,-4.8
2660,0.3449,2.4525,-10.4998,-7.3043,2.8522,-4.5913
2665,0.3449,2.2992,-10.4998,-8.7652,3.687,-4.5217
2670,0.2682,2.3759,-10.883,-10.087,4.7304,-4.5217
2675,0.3066,2.4525,-10.653,-11.3391,5.4261,-4.8
2680,0.3449,2.4142,-10.9596,-12.7304,5.6348,-5.0087
2685,0.1916,2.5675,-10.9213,-14.1217,5.4261,-5.3565
2690,0.1533,2.5675,-11.3045,-14.7478,4.7304,-5.4261
2695,0.115,2.4525,-11.3811,-14.9565,4.1043,-5.7043
2700,0.3066,2.6441,-11.3045,-14.887,3.6174,-5.5652
2705,-0.0766,2.5291,-11.5344,-14.5391,3.1304,-5.8435
2710,0.0383,2.4908,-11.6494,-13.7043,2.713,-6.0522
2715,-0.0383,2.6441,-11.6494,-12.8696,2.4348,-6.5391
2720,0.1533,2.4908,-11.7643,-11.8261,2.2957,-6.6783
2725,0.3066,2.6824,-11.6494,-10.9217,2.1565,-7.0957
2730,0.3832,2.5675,-11.726,-10.0174,2.087,-7.3043
2735,0.3066,2.6441,-11.7643,-9.3913,1.9478,-7.513
2740,0.2682,2.9507,-11.5344,-8.8348,1.8783,-7.2348
2745,0.1916,3.0656,-11.5344,-8.5565,1.8783,-7.1652
2750,0.3832,2.9123,-11.5727,-8.3478,2.0174,-6.8174
2755,0.2682,3.1039,-11.5344,-8.1391,2.4348,-6.6783
2760,0.2682,3.2572,-11.4578,-7.9304,3.1304,-6.5391
2765,0.115,3.3339,-11.4961,-8.2087,3.7565,-6.6087
2770,0.8047,3.7937,-10.9213,-8.8348,4.313,-6.6087
2775,0.2299,3.3722,-11.4195,-9.7391,4.5217,-6.6087
2780,0.0766,3.4871,-11.2662,-10.9217,4.4522,-6.5391
2785,0.1533,3.2955,-10.883,-12.5913,4.0348,-6.8174
2790,0.1533,3.4105,-10.9979,-14.3304,3.6174,-6.8174
2795,0.1916,3.2572,-10.9979,-16.1391,3.0609,-7.2348
2800,0.115,3.2955,-10.9213,-17.5304,2.8522,-7.3043
2805,0.0383,3.1806,-10.8446,-18.8522,2.7826,-7.7217
2810,0.0766,2.989,-10.8446,-20.0348,2.7826,-8.0
2815,0.0383,2.989,-10.6914,-21.3565,3.2696,-8.3478
2820,0.0766,2.9123,-10.7297,-22.4696,4.0348,-8.2783
2825,0.115,2.7207,-10.6147,-23.1652,4.8,-8.0696
2830,0.115,2.7591,-10.4998,-23.6522,5.287,-7.4435
2835,0.1533,2.7591,-10.3848,-24.1391,5.8435,-6.5391
2840,0.2299,2.6441,-10.3082,-24.6261,5.9826,-5.4957
2845,0.115,2.5675,-10.2315,-25.113,5.913,-4.8696
2850,0.115,2.5291,-10.1549,-25.1826,5.7043,-4.313
2855,0.1916,2.4908,-10.0782,-24.8348,5.3565,-3.9652
2860,0.0766,2.4525,-10.0782,-24.2087,5.0087,-3.3391
2865,0.0766,2.2992,-10.0782,-23.3043,4.8,-2.9913
2870,0.115,2.3759,-10.0399,-22.1913,4.8696,-2.6435
2875,0.0766,2.1843,-10.0782,-20.5913,5.2174,-2.5739
2880,0.0383,2.2226,-9.9633,-18.7826,5.4957,-2.3652
2885,-0.0383,2.2226,-9.8866,-17.0435,6.1217,-2.2957
2890,0.0,2.2226,-9.8483,-14.4,6.4696,-1.8783
2895,0.0,2.2609,-9.695,-11.8957,6.887,-1.7391
2900,0.0,2.2226,-9.8866,-9.2522,7.1652,-1.2522
2905,0.0,2.2992,-9.8866,-6.5391,7.6522,-1.1826
2910,0.0766,2.4142,-9.8483,-4.1739,8.1391,-0.9043
2915,0.0766,2.3375,-9.8866,-1.4609,8.4174,-0.9043
2920,0.0383,2.4142,-9.695,1.3217,8.8348,-0.6957
2925,0.0,2.6058,-9.7334,4.0348,8.9043,-0.9043
2930,0.0,2.4908,-9.6184,6.2609,9.2522,-0.5565
2935,0.0,2.4142,-9.695,8.0,9.6,-0.6957
2940,-0.1533,2.5291,-9.81,10.087,9.8087,-0.487
2945,-0.1533,2.6058,-9.7334,11.6174,10.087,-0.6261
2950,-0.0383,2.4525,-9.6567,12.9391,10.3652,-0.487
2955,0.0,2.5291,-9.6567,13.8435,10.5043,-0.3478
2960,-0.0383,2.6441,-9.7717,14.5391,10.713,0.2087
2965,-0.1533,2.7207,-9.7334,15.3739,10.5739,0.3478
2970,-0.0383,2.6824,-9.6184,16.3478,10.4348,0.7652
2975,-0.115,2.7207,-9.5034,17.2522,10.6435,1.6
2980,-0.0766,2.6441,-9.5801,18.087,10.4348,2.5739
2985,-0.0383,2.7207,-9.81,18.7826,10.1565,3.3391
2990,-0.0383,2.5675,-9.6567,19.8957,10.2261,4.2435
2995,-0.0383,2.6058,-9.81,21.0087,10.1565,4.5217
