timestamp,accX,accY,accZ,gyroX,gyroY,gyroZ
0,-1.3795,-2.1459,-8.9286,-105.6,16.4174,-8.487
5,-1.4179,-2.031,-9.0436,-104.6957,17.3217,-7.7217
10,-1.2263,-1.8011,-9.1969,-103.3739,18.2957,-6.6087
15,-1.1113,-1.5711,-9.1202,-101.9826,19.6174,-5.4957
20,-1.073,-1.3795,-8.9286,-100.5913,20.6609,-4.3826
25,-0.958,-1.1496,-9.0053,-99.4783,21.7043,-3.3391
30,-0.6898,-1.3029,-9.1969,-98.3652,22.2609,-2.713
35,-0.5748,-1.1496,-9.3502,-96.5565,22.3304,-2.8522
40,-0.5365,-1.1113,-9.4651,-94.4696,22.0522,-3.4783
45,-0.3066,-0.9963,-9.5034,-92.5217,21.6348,-4.6609
50,-0.3066,-0.958,-9.6184,-90.9913,21.1478,-6.1217
55,-0.6131,-0.958,-9.2352,-89.3217,20.8,-7.8609
60,-0.6131,-0.843,-9.3502,-87.5826,20.2435,-9.1826
65,-0.5748,-0.843,-9.1969,-85.913,19.8957,-9.7391
70,-0.6514,-0.6514,-9.1969,-84.0348,19.7565,-9.9478
75,-0.8814,-0.6131,-9.0436,-81.9478,19.687,-9.8087
80,-0.8814,-0.3832,-9.1586,-80.0,19.5478,-9.6
85,-0.843,-0.3066,-9.3118,-78.5391,19.8261,-9.4609
90,-0.9197,-0.3449,-9.2352,-77.0783,20.4522,-9.113
95,-0.9963,-0.1916,-9.5418,-76.1739,21.0783,-8.487
100,-0.7281,-0.2682,-9.5034,-75.2,21.913,-7.2348
105,-0.7281,-0.0383,-9.5801,-74.8522,22.6087,-5.913
110,-0.5748,0.1916,-9.6184,-75.3391,23.0957,-4.313
115,-0.3832,0.1916,-9.4268,-76.1043,23.6522,-2.7826
120,-0.3449,0.4598,-9.3885,-77.5652,24.3478,-1.6
125,-0.5748,0.6898,-9.2352,-79.513,24.9043,-1.3217
130,-0.5365,0.9197,-9.0819,-81.9478,25.3217,-1.3217
135,-0.6514,0.7281,-8.852,-83.687,25.8783,-1.6696
140,-0.7281,0.7281,-8.737,-84.1043,26.3652,-2.087
145,-0.5365,0.7664,-8.737,-84.0348,26.1565,-2.8522
150,-0.7281,0.8814,-8.737,-83.5478,25.1826,-3.7565
155,-0.8047,0.8047,-9.1586,-82.7826,23.7217,-4.4522
160,-0.8814,0.958,-9.0053,-82.087,22.1913,-5.0783
165,-0.958,1.1113,-9.4268,-81.0435,20.3826,-5.6348
170,-0.7281,1.4179,-9.5034,-80.2783,18.8522,-5.8435
175,-0.8047,1.3795,-9.7717,-79.0957,18.2957,-4.7304
180,-0.6898,1.4562,-9.8866,-76.5913,18.4348,-3.3391
185,-0.5365,1.4562,-9.925,-74.087,18.2957,-1.6696
190,-0.5748,1.4945,-10.0016,-72.5565,18.3652,0.0696
195,-0.5365,1.6095,-10.1932,-71.3043,18.3652,1.3913
200,-0.6131,1.5711,-10.1549,-70.1217,18.5043,2.4348
205,-0.7281,1.4945,-9.9633,-69.1478,18.5739,2.7826
210,-0.9197,1.6478,-9.925,-67.3391,18.3652,2.2261
215,-1.0346,1.6861,-9.81,-64.9043,18.6435,1.6
220,-1.073,1.8394,-9.7334,-61.8435,18.6435,1.1826
225,-0.958,1.7244,-9.6567,-58.9913,18.5043,1.0435
230,-1.1879,1.8011,-9.695,-56.4174,17.9478,0.6957
235,-0.958,1.7627,-9.5034,-53.913,16.9739,0.0696
240,-0.958,1.7244,-9.3502,-51.5478,15.7217,-0.5565
245,-0.958,1.8777,-9.1586,-49.8087,14.2609,-1.4609
250,-0.7664,1.7627,-9.0819,-47.9304,12.7304,-2.0174
255,-0.7664,1.8394,-9.0819,-45.6348,11.687,-2.2261
260,-0.6514,1.7627,-9.0436,-43.1304,10.713,-2.5043
265,-0.4982,1.7627,-9.1202,-40.6957,10.5043,-2.9217
270,-0.4982,1.916,-9.3118,-38.6087,10.3652,-2.9913
275,-0.4215,1.916,-9.1969,-36.7304,10.4348,-2.8522
280,-0.3449,2.2609,-9.2352,-35.7565,10.5739,-2.7826
285,-0.4215,2.1459,-9.3885,-34.713,10.713,-3.0609
290,-0.4982,2.2609,-9.3885,-33.6,10.8522,-3.0609
295,-0.4215,2.2609,-9.2352,-32.6261,11.1304,-3.1304
300,-0.3832,2.4525,-9.1202,-31.5826,11.3391,-2.9913
305,-0.5365,2.2992,-9.2735,-30.3304,11.3391,-3.0609
310,-0.5365,2.3759,-9.0819,-29.1478,11.4087,-3.3391
315,-0.5365,2.4142,-9.0436,-27.7565,11.4783,-3.4087
320,-0.4598,2.2609,-8.967,-26.087,11.4783,-3.5478
325,-0.5748,2.4142,-8.7754,-24.6261,11.1304,-3.4087
330,-0.5748,2.3375,-8.7754,-23.0261,10.7826,-3.2696
335,-0.4982,2.1843,-8.8137,-21.3565,10.2261,-3.2
340,-0.4982,2.2992,-8.7754,-20.0348,9.6696,-3.1304
345,-0.4215,2.3759,-8.7754,-18.5739,9.3217,-2.9913
350,-0.3066,2.3759,-8.737,-17.113,9.0435,-2.6435
355,-0.2682,2.2992,-8.7754,-15.9304,8.7652,-2.2261
360,-0.3832,2.5675,-8.7754,-14.4,8.4174,-1.8087
365,-0.4215,2.4908,-9.0053,-13.0087,8.2783,-1.3913
370,-0.3066,2.6058,-8.7754,-11.8957,8.4174,-1.113
375,-0.1916,2.4908,-8.7754,-10.6435,8.5565,-0.8348
380,-0.3449,2.7207,-8.8137,-9.6696,8.487,-0.5565
385,-0.4598,2.6824,-8.7754,-8.8348,8.1391,-0.3478
390,-0.3832,2.7974,-8.6604,-8.2087,7.6522,-0.2783
395,-0.6131,2.9507,-8.6987,-7.5826,6.9565,-0.0696
400,-0.4598,2.7974,-8.8137,-6.8174,6.1913,0.1391
405,-0.5365,2.874,-8.6604,-6.0522,5.4957,0.3478
410,-0.5365,2.8357,-8.8903,-5.1478,4.8,0.487
415,-0.5365,2.9507,-8.852,-4.2435,4.4522,0.5565
420,-0.3832,2.9123,-8.8137,-3.4783,4.1043,0.7652
425,-0.2682,2.9507,-8.8137,-2.6435,3.9652,0.8348
430,-0.2299,2.9507,-8.8903,-1.9478,3.8957,1.1826
435,0.0,2.874,-9.0436,-1.4609,3.8261,1.5304
440,-0.115,2.9123,-9.0436,-1.1826,3.7565,1.9478
445,-0.115,3.0273,-8.9286,-1.1826,4.0348,2.4348
450,-0.115,3.1039,-8.9286,-1.5304,4.3826,2.8522
455,-0.115,3.0656,-8.9286,-1.9478,4.9391,3.2696
460,-0.1916,3.2189,-8.8903,-2.2261,5.7043,3.5478
465,-0.1533,3.0656,-8.9286,-2.5739,6.2609,4.0348
470,-0.2299,3.2189,-8.967,-2.5739,6.5391,4.3826
475,-0.1533,3.2955,-9.0053,-2.7826,6.6783,4.6609
480,-0.2682,3.2189,-8.967,-2.9913,6.6087,4.8
485,-0.2682,3.3339,-8.8903,-3.2,6.4696,5.0087
490,-0.3449,3.2189,-8.852,-3.5478,6.2609,5.0783
495,-0.1916,3.1806,-8.8137,-3.7565,5.9826,5.0783
500,-0.2299,3.1423,-8.7754,-3.7565,5.4261,5.1478
505,-0.115,3.1806,-8.8903,-3.687,4.8696,5.1478
510,0.0383,3.0273,-8.9286,-3.8261,4.313,5.1478
515,-0.0383,3.0656,-8.8903,-4.2435,3.9652,5.0783
520,0.0,3.1806,-8.852,-4.7304,3.8957,5.0087
525,0.0,3.0273,-8.7754,-5.287,4.0348,4.9391
530,0.0383,2.9507,-8.9286,-5.7043,4.3826,4.8696
535,0.0,3.1423,-8.8137,-6.1913,4.8,4.9391
540,-0.0766,3.1423,-8.8903,-6.6783,5.0783,4.8696
545,-0.0766,3.3339,-8.737,-7.1652,5.3565,4.7304
550,-0.115,3.4105,-8.7754,-7.5826,5.7043,4.5913
555,-0.1916,3.4105,-8.5838,-7.8609,6.0522,4.313
560,-0.2682,3.3722,-8.6221,-8.2087,6.1913,4.0348
565,-0.1916,3.2955,-8.5454,-8.2087,6.4,3.687
570,-0.1916,3.2572,-8.6604,-8.1391,6.2609,3.3391
575,-0.115,3.1806,-8.4305,-7.9304,6.0522,2.8522
580,0.0,3.1039,-8.4688,-7.9304,5.6348,2.5739
585,-0.0383,3.0273,-8.3538,-7.9304,5.0783,2.2957
590,-0.0383,3.1039,-8.3155,-8.0,4.5913,2.0174
595,0.0,3.0656,-8.3538,-8.0,4.4522,1.7391
600,0.0,2.989,-8.3538,-8.0,4.313,1.6696
605,0.0383,3.1039,-8.3921,-8.1391,4.1043,1.6
610,0.0766,3.0656,-8.2389,-8.1391,3.8957,1.5304
615,0.0766,3.2189,-8.2772,-8.2087,3.8957,1.5304
620,0.0,3.1423,-8.1622,-8.0696,3.7565,1.3217
625,0.115,3.2189,-8.0856,-7.9304,3.687,1.1826
630,0.115,3.1806,-8.1622,-7.6522,3.687,0.9739
635,0.115,3.1806,-8.0856,-7.4435,3.8261,0.6957
640,0.1916,3.1039,-8.0856,-7.0957,3.8957,0.487
645,0.0766,2.989,-8.2005,-6.7478,3.8957,0.2783
650,0.1533,3.0656,-8.3155,-6.4,4.1043,0.2783
655,0.115,3.1423,-8.2005,-6.1913,4.1739,0.2087
660,0.0766,2.9507,-8.2389,-5.9826,4.2435,0.2087
665,0.0383,3.2189,-8.2389,-5.8435,4.3826,0.2087
670,0.0,3.1039,-8.2389,-5.8435,4.4522,0.1391
675,0.0,3.1039,-8.3538,-5.6348,4.6609,0.2087
680,-0.0766,3.3339,-8.4688,-5.6348,4.4522,0.2087
685,0.0383,3.3339,-8.3921,-5.6348,4.313,0.2783
690,0.0766,3.3339,-8.5071,-5.5652,4.313,0.3478
695,0.0,3.3722,-8.4305,-5.7043,4.2435,0.2783
700,0.0,3.4105,-8.5454,-5.7043,4.1043,0.1391
705,0.0766,3.2955,-8.5454,-5.9826,4.0348,0.0696
710,-0.0766,3.3722,-8.3538,-6.3304,3.9652,-0.1391
715,0.0766,3.3339,-8.3921,-6.6087,3.8957,-0.2783
720,0.0383,3.3339,-8.3538,-6.8174,4.1043,-0.6261
725,0.0383,3.2572,-8.2772,-7.0261,4.1739,-0.9043
730,0.0766,3.1423,-8.3155,-7.0261,4.3826,-1.0435
735,-0.0383,3.2955,-8.3155,-6.887,4.5217,-1.2522
740,0.0,3.2572,-8.3155,-6.8174,4.3826,-1.2522
745,-0.0766,3.3722,-8.2772,-6.8174,4.1739,-1.3217
750,-0.0766,3.3722,-8.4305,-6.8174,3.8957,-1.6
755,0.0,3.1806,-8.3538,-6.6783,3.687,-1.7391
760,0.0,3.4105,-8.3155,-6.6783,3.687,-1.8783
765,-0.0383,3.3339,-8.3921,-6.6087,3.687,-2.087
770,0.0,3.3722,-8.4305,-6.5391,3.7565,-2.087
775,0.0383,3.5255,-8.3155,-6.4696,3.687,-2.087
780,0.0383,3.4488,-8.5838,-6.1913,3.8261,-2.087
785,0.0383,3.4105,-8.3921,-6.1217,3.8957,-1.9478
790,0.0,3.4871,-8.5838,-6.0522,4.2435,-1.9478
795,0.0383,3.5638,-8.4305,-5.8435,4.313,-1.9478
800,0.0,3.4105,-8.4305,-5.5652,4.5217,-1.8783
805,0.0,3.3722,-8.6221,-5.4957,4.6609,-2.1565
810,-0.0766,3.4871,-8.3155,-5.4957,4.8,-2.3652
815,-0.0383,3.5638,-8.4688,-5.5652,5.0087,-2.5739
820,-0.0383,3.5255,-8.5838,-5.6348,5.1478,-2.713
825,0.0,3.4871,-8.4305,-5.7739,5.1478,-2.8522
830,0.0,3.4488,-8.4305,-6.0522,5.3565,-3.0609
835,0.0,3.5638,-8.5454,-6.3304,5.3565,-2.9913
840,0.0,3.5638,-8.4305,-6.6087,5.287,-2.8522
845,0.0,3.5638,-8.3538,-6.7478,5.0783,-2.8522
850,0.0,3.6021,-8.2772,-6.9565,5.0783,-2.9913
855,0.0,3.4105,-8.2389,-6.9565,5.0087,-2.9913
860,-0.0383,3.4488,-8.3155,-7.0261,5.0087,-2.9913
865,-0.115,3.4871,-8.2772,-7.0261,5.0087,-3.0609
870,0.0,3.3339,-8.2005,-7.0261,4.9391,-3.2696
875,-0.0766,3.4488,-8.2389,-6.9565,5.0087,-3.2696
880,-0.0383,3.3339,-8.0089,-6.8174,5.1478,-3.2
885,-0.115,3.3339,-8.2005,-6.5391,5.0783,-3.2
890,0.0,3.3722,-8.0856,-6.3304,5.1478,-3.2
895,-0.0766,3.3339,-8.1239,-5.9826,5.2174,-3.2696
900,-0.0766,3.2955,-8.0473,-5.7043,5.287,-3.2
905,-0.115,3.3339,-8.1239,-5.4957,5.0783,-3.2
910,-0.1916,3.4105,-8.1239,-5.0783,4.9391,-3.0609
915,-0.115,3.3722,-8.1239,-4.6609,4.7304,-2.8522
920,-0.115,3.3722,-8.1622,-4.313,4.5217,-2.7826
925,0.0,3.4105,-8.0089,-4.0348,4.2435,-2.713
930,0.0,3.4871,-8.0856,-3.7565,4.1043,-2.6435
935,-0.0383,3.4105,-8.0856,-3.4783,3.9652,-2.713
940,-0.0383,3.4105,-8.2772,-3.2696,3.9652,-2.6435
945,-0.0383,3.4871,-8.2389,-3.0609,3.8957,-2.6435
950,-0.0766,3.6021,-8.2772,-2.9217,3.8261,-2.5739
955,-0.0766,3.6404,-8.2005,-2.8522,3.9652,-2.5043
960,-0.0383,3.5255,-8.2005,-2.8522,4.1043,-2.5043
965,0.0,3.5255,-8.3155,-2.6435,4.3826,-2.5043
970,-0.1916,3.5638,-8.0856,-2.5043,4.5217,-2.5043
975,-0.115,3.5638,-8.2005,-2.5043,4.7304,-2.4348
980,0.0,3.5255,-8.1622,-2.5739,4.8,-2.3652
985,-0.1533,3.5255,-8.1239,-2.6435,4.9391,-2.3652
990,-0.1916,3.4871,-8.2389,-2.713,4.9391,-2.3652
995,-0.1916,3.4871,-8.1622,-2.713,5.0087,-2.2261
1000,-0.1916,3.5255,-8.2389,-2.9913,4.8696,-2.087
1005,-0.2299,3.5255,-8.2772,-3.3391,4.8,-2.0174
1010,-0.2682,3.6404,-8.2772,-3.5478,4.4522,-1.7391
1015,-0.2299,3.5255,-8.2389,-3.6174,4.0348,-1.6696
1020,-0.2682,3.6021,-8.3155,-3.6174,3.8957,-1.6696
1025,-0.0383,3.5255,-8.2389,-3.4783,3.6174,-1.6
1030,-0.0383,3.6021,-8.2005,-3.6174,3.3391,-1.6696
1035,-0.1533,3.6787,-8.2005,-3.4783,3.2,-1.6696
1040,0.0,3.6021,-8.2772,-3.2696,3.1304,-1.8087
1045,0.0,3.5638,-8.3155,-3.2696,3.2,-1.8783
1050,-0.115,3.5255,-8.2389,-3.1304,3.3391,-2.0174
1055,0.0,3.5255,-8.3155,-3.0609,3.687,-1.8783
1060,-0.115,3.3722,-8.2389,-2.9913,3.9652,-1.8783
1065,-0.0766,3.4871,-8.2005,-2.9217,4.3826,-1.6696
1070,-0.1533,3.3722,-8.2389,-2.8522,4.5913,-1.4609
1075,-0.1533,3.4488,-8.2005,-2.8522,4.5913,-1.4609
1080,-0.1533,3.4871,-8.2772,-2.8522,4.6609,-1.2522
1085,-0.1533,3.5638,-8.0856,-2.713,4.7304,-1.2522
1090,-0.1916,3.4871,-8.1239,-2.5043,4.8696,-0.9739
1095,-0.0766,3.4105,-8.1622,-2.4348,4.9391,-0.9043
1100,-0.1916,3.6404,-8.1622,-2.2957,5.1478,-0.8348
1105,-0.1533,3.6404,-8.3538,-2.1565,5.2174,-0.8348
1110,-0.2682,3.6787,-8.1622,-2.087,5.2174,-0.6261
1115,-0.1916,3.6404,-8.0856,-2.087,5.2174,-0.6261
1120,-0.115,3.7171,-8.2389,-1.9478,5.2174,-0.5565
1125,-0.2682,3.6787,-8.2005,-1.9478,5.1478,-0.5565
1130,-0.2299,3.5638,-8.2005,-1.9478,5.2174,-0.4174
1135,-0.1916,3.6404,-8.0856,-1.8783,5.0087,-0.2783
1140,-0.1916,3.6021,-8.2005,-1.9478,5.0783,-0.2087
1145,-0.2682,3.6404,-8.2005,-2.0174,4.9391,-0.2087
1150,-0.3066,3.5638,-8.2005,-2.087,4.8,-0.2087
1155,-0.3449,3.6787,-8.2772,-2.087,4.7304,-0.2087
1160,-0.3066,3.6787,-8.2389,-2.1565,4.8,-0.0696
1165,-0.2682,3.5638,-8.1622,-2.2261,4.8,-0.0696
1170,-0.3066,3.6404,-8.2772,-2.1565,4.7304,0.0696
1175,-0.3449,3.6787,-8.1622,-2.0174,4.7304,0.2087
1180,-0.3066,3.5638,-8.2005,-1.8783,4.6609,0.3478
1185,-0.2299,3.4871,-8.1622,-1.6696,4.6609,0.3478
1190,-0.115,3.5255,-8.2772,-1.6,4.5217,0.4174
1195,-0.3066,3.5638,-8.3155,-1.3913,4.4522,0.3478
1200,-0.1916,3.5638,-8.2772,-1.1826,4.3826,0.487
1205,-0.1916,3.4105,-8.2005,-1.113,4.2435,0.5565
1210,-0.1916,3.5255,-8.2005,-1.113,4.1739,0.6957
1215,-0.3449,3.5255,-8.3921,-1.113,4.0348,0.6261
1220,-0.2299,3.6021,-8.3155,-1.2522,3.8261,0.487
1225,-0.3066,3.6021,-8.2389,-1.2522,3.687,0.487
1230,-0.2682,3.4488,-8.1622,-1.3913,3.4783,0.4174
1235,-0.1533,3.6404,-8.2005,-1.3217,3.4087,0.5565
1240,-0.3449,3.6021,-8.2005,-1.3217,3.2696,0.5565
1245,-0.3066,3.7171,-8.2772,-1.2522,3.1304,0.6261
1250,-0.2299,3.5255,-8.3155,-1.1826,2.9913,0.6957
1255,-0.1533,3.5638,-8.2772,-1.1826,2.9217,0.8348
1260,-0.1533,3.6787,-8.2005,-1.113,2.8522,0.8348
1265,-0.2299,3.6021,-8.2005,-0.9739,2.9913,0.9739
1270,0.0,3.5255,-8.1622,-0.8348,3.2,1.2522
1275,-0.0383,3.6021,-8.5454,-0.8348,3.3391,1.3913
1280,-0.115,2.989,-8.2772,-0.8348,3.3391,1.7391
1285,-0.4598,3.6021,-8.2772,-0.9043,3.5478,2.2261
1290,-0.115,3.5255,-7.894,-0.9739,3.5478,2.4348
1295,0.0383,3.5255,-8.3155,-1.0435,3.687,2.9217
1300,-0.2299,3.2189,-8.3155,-1.1826,3.8261,3.2
1305,-0.6131,4.062,-7.7407,-1.2522,3.8957,3.3391
1310,-0.115,3.832,-8.1622,-1.3217,3.9652,3.4087
1315,-0.2682,3.4871,-8.3155,-1.2522,3.9652,3.3391
1320,-0.1533,3.5638,-8.0856,-1.3217,4.1739,3.1304
1325,-0.1916,3.6021,-8.0089,-1.2522,4.2435,2.9913
1330,-0.115,3.5638,-8.0856,-1.0435,4.1739,2.8522
1335,-0.115,3.5638,-8.0856,-0.9043,4.1739,2.7826
1340,-0.1916,3.6787,-8.2772,-0.7652,4.1739,2.6435
1345,-0.1533,3.5255,-8.1239,-0.5565,3.9652,2.3652
1350,-0.2299,3.4488,-7.9706,-0.487,3.7565,2.2957
1355,-0.3066,3.5638,-8.2005,-0.2087,3.687,2.1565
1360,-0.2682,3.5255,-8.2005,0.0,3.6174,2.2261
1365,-0.2299,3.4871,-8.2005,0.0,3.6174,2.1565
1370,-0.1533,3.6021,-8.1622,0.2087,3.6174,2.2261
1375,-0.2682,3.5255,-8.0856,0.2087,3.687,2.3652
1380,-0.1533,3.6404,-8.2005,0.2087,3.687,2.3652
1385,-0.0383,3.6787,-8.2005,0.1391,3.687,2.2957
1390,-0.0766,3.5255,-8.1622,0.2087,3.687,2.4348
1395,0.0,3.5255,-8.0856,0.2087,3.7565,2.5043
1400,-0.115,3.6021,-8.1239,0.4174,3.8957,2.4348
1405,-0.0766,3.6404,-8.1622,0.487,3.8957,2.3652
1410,-0.1916,3.6787,-8.3155,0.487,4.1739,2.3652
1415,-0.2682,3.7171,-8.3155,0.3478,4.2435,2.087
1420,-0.0766,3.6021,-8.2389,0.2783,4.3826,2.0174
1425,-0.0383,3.6787,-8.2005,0.2087,4.5217,2.0174
1430,-0.1533,3.6404,-8.1622,0.0,4.4522,2.0174
1435,-0.115,3.6404,-8.3155,0.0,4.4522,1.9478
1440,-0.1533,3.6404,-8.3921,0.0,4.2435,1.9478
1445,-0.115,3.5255,-8.2772,0.1391,4.1043,1.9478
1450,-0.0766,3.6787,-8.4305,0.1391,3.8957,2.087
1455,-0.2682,3.5255,-8.3921,0.2783,3.6174,2.1565
1460,-0.1533,3.6021,-8.2389,0.2783,3.6174,2.1565
1465,-0.3066,3.5255,-8.3155,0.3478,3.6174,2.1565
1470,-0.1533,3.5638,-8.2772,0.3478,3.6174,2.087
1475,-0.1533,3.5255,-8.3155,0.4174,3.5478,2.0174
1480,-0.1533,3.6404,-8.2005,0.4174,3.4087,2.0174
1485,-0.1916,3.7171,-8.3921,0.487,3.3391,2.0174
1490,-0.1533,3.6021,-8.3921,0.4174,3.3391,1.9478
1495,-0.1916,3.6787,-8.3921,0.2783,3.4087,1.7391
1500,-0.115,3.6404,-8.2772,0.2783,3.5478,1.6696
1505,-0.1533,3.6404,-8.3921,0.1391,3.7565,1.6
1510,-0.1533,3.5638,-8.4305,-0.0696,3.8957,1.6696
1515,-0.0766,3.7171,-8.3921,-0.2783,4.2435,1.6696
1520,-0.1916,3.7554,-8.3155,-0.5565,4.4522,1.8087
1525,-0.1533,3.6404,-8.2005,-0.6957,4.6609,1.6696
1530,-0.115,3.6787,-8.0473,-0.7652,4.8696,1.8087
1535,-0.1533,3.7171,-8.1239,-0.8348,4.8696,1.8087
1540,-0.0383,3.6404,-8.1239,-0.9043,5.0087,1.9478
1545,-0.1916,3.5255,-8.0856,-0.8348,5.0087,1.8087
1550,-0.0766,3.4871,-8.1622,-0.6261,5.0087,1.8087
1555,-0.1916,3.4871,-8.0473,-0.4174,5.0087,1.8783
1560,-0.3066,3.5255,-8.0473,-0.3478,4.8,1.6696
1565,-0.115,3.4871,-8.0856,0.0,4.7304,1.5304
1570,-0.0766,3.4871,-8.2389,0.0696,4.5913,1.3913
1575,-0.115,3.3339,-8.2772,0.2783,4.3826,1.2522
1580,-0.1533,3.3339,-8.1239,0.3478,4.2435,1.3913
1585,-0.1533,3.4488,-8.2772,0.4174,4.1043,1.2522
1590,-0.115,3.3722,-8.3921,0.487,3.8957,1.113
1595,-0.2299,3.5638,-8.1622,0.6261,3.7565,1.1826
1600,-0.2299,3.6404,-8.1622,0.6957,3.6174,1.113
1605,-0.0383,3.5638,-8.2772,0.6261,3.687,1.0435
1610,-0.1916,3.6787,-8.4305,0.6261,3.687,0.9739
1615,-0.115,3.7171,-8.2772,0.5565,3.8261,0.9739
1620,-0.0383,3.6404,-8.2005,0.487,3.8261,0.9043
1625,-0.0766,3.6404,-8.1622,0.6261,4.0348,0.9043
1630,-0.3449,3.6404,-8.1622,0.487,4.2435,0.8348
1635,0.0,3.4488,-8.2005,0.3478,4.3826,0.9739
1640,-0.2682,3.6021,-8.1239,0.2783,4.5217,0.9739
1645,-0.2299,3.6787,-8.2005,0.2783,4.5913,0.8348
1650,-0.3066,3.5255,-8.1622,0.2087,4.5217,0.6957
1655,-0.2299,3.4871,-7.9323,0.2087,4.6609,0.5565
1660,-0.2299,3.4105,-8.1239,0.3478,4.7304,0.5565
1665,-0.1916,3.4488,-8.0856,0.5565,4.7304,0.4174
1670,-0.1533,3.3722,-8.0856,0.7652,4.6609,0.2783
1675,-0.1533,3.3722,-8.1622,0.9043,4.6609,0.1391
1680,-0.2682,3.3339,-8.0473,1.2522,4.5217,-0.1391
1685,-0.3449,3.5638,-8.2389,1.3913,4.6609,-0.0696
1690,-0.115,3.4871,-8.2005,1.6696,4.7304,-0.3478
1695,-0.115,3.4871,-8.2772,1.8783,4.7304,-0.4174
1700,-0.2682,3.5255,-8.1622,1.9478,4.7304,-0.3478
1705,-0.115,3.7171,-8.2389,2.087,4.8,-0.4174
1710,-0.1916,3.6404,-8.2389,2.2261,4.8,-0.487
1715,-0.0383,3.6021,-8.1239,2.2261,4.8,-0.4174
1720,-0.115,3.6404,-8.1622,2.2957,4.9391,-0.487
1725,-0.2299,3.6404,-8.1622,2.3652,4.9391,-0.5565
1730,-0.1916,3.6021,-8.2389,2.3652,4.8696,-0.6261
1735,-0.1533,3.5255,-8.2389,2.5043,4.8696,-0.5565
1740,-0.2299,3.6404,-8.1239,2.5043,5.1478,-0.5565
1745,-0.1916,3.3722,-8.0856,2.5043,5.0783,-0.6957
1750,-0.1916,3.5638,-8.1239,2.6435,5.0087,-0.6957
1755,-0.3066,3.5255,-8.0856,2.4348,4.9391,-0.6957
1760,-0.2299,3.5638,-8.1622,2.4348,5.0087,-0.6261
1765,-0.2299,3.4105,-8.0089,2.4348,4.8696,-0.6261
1770,-0.1533,3.5255,-8.1239,2.5043,4.7304,-0.487
1775,-0.1916,3.4105,-8.3155,2.6435,4.5217,-0.4174
1780,-0.1916,3.4105,-8.3155,2.7826,4.3826,-0.487
1785,-0.0383,3.3722,-8.2772,2.8522,4.3826,-0.4174
1790,-0.1533,3.4871,-8.3155,2.7826,4.5217,-0.3478
1795,-0.3066,3.4488,-8.1622,2.713,4.6609,-0.4174
1800,-0.2299,3.4871,-8.4688,2.5739,4.7304,-0.3478
1805,-0.1533,3.5638,-8.2389,2.5739,4.8,-0.487
1810,-0.2682,3.6404,-8.4305,2.5739,4.8,-0.4174
1815,-0.3066,3.6021,-8.3155,2.4348,4.7304,-0.4174
1820,-0.3449,3.5638,-8.3155,2.4348,4.5913,-0.487
1825,-0.1916,3.5255,-8.2389,2.4348,4.5217,-0.6261
1830,-0.2299,3.4871,-8.0473,2.5043,4.5913,-0.8348
1835,-0.2682,3.5638,-8.2389,2.5043,4.5913,-0.6261
1840,-0.3066,3.4871,-8.3155,2.5043,4.5913,-0.6957
1845,-0.3066,3.4105,-8.3155,2.6435,4.5217,-0.6261
1850,-0.2682,3.4105,-8.3538,2.9217,4.4522,-0.5565
1855,-0.2299,3.3722,-8.1622,3.0609,4.1739,-0.5565
1860,-0.1916,3.3722,-8.1622,3.3391,4.1739,-0.6261
1865,-0.0383,3.2955,-8.2772,3.3391,4.1739,-0.5565
1870,-0.115,3.3339,-8.3155,3.4783,4.1739,-0.5565
1875,-0.0383,3.2955,-8.2772,3.5478,4.3826,-0.487
1880,-0.1533,3.3722,-8.3155,3.5478,4.5217,-0.5565
1885,-0.1533,3.4488,-8.2005,3.6174,4.8,-0.5565
1890,-0.0383,3.3722,-8.4688,3.687,5.0087,-0.6261
1895,-0.115,3.5255,-8.3155,3.7565,5.2174,-0.6957
1900,-0.1533,3.4488,-8.2005,3.7565,5.4261,-0.8348
1905,-0.0766,3.3722,-8.3538,3.9652,5.4957,-0.7652
1910,-0.1916,3.4871,-8.2772,3.9652,5.6348,-0.7652
1915,-0.115,3.3722,-8.2005,3.8261,5.4957,-0.7652
1920,-0.2682,3.3722,-8.4688,3.8261,5.287,-0.8348
1925,-0.2682,3.4488,-8.5071,3.7565,5.1478,-0.6957
1930,-0.3449,3.3722,-8.2772,3.687,5.0087,-0.5565
1935,-0.3449,3.3722,-8.4688,3.5478,4.7304,-0.487
1940,-0.3449,3.4488,-8.2772,3.3391,4.5913,-0.4174
1945,-0.1916,3.3722,-8.2772,3.2,4.3826,-0.487
1950,-0.1916,3.4871,-8.2005,3.0609,4.3826,-0.487
1955,-0.1533,3.3339,-8.2005,2.8522,4.2435,-0.487
1960,-0.115,3.2189,-8.2772,2.7826,4.313,-0.3478
1965,-0.2299,3.3339,-8.2005,2.6435,4.3826,-0.3478
1970,-0.1533,3.2572,-8.3538,2.5043,4.6609,-0.2783
1975,-0.1916,3.3339,-8.3155,2.3652,4.9391,-0.1391
1980,-0.1533,3.2572,-8.3538,2.2957,5.0783,0.0
1985,-0.115,3.2189,-8.3921,2.1565,5.2174,-0.0696
1990,-0.3066,3.2572,-8.3538,2.2261,5.4957,0.0
1995,-0.2682,3.2955,-8.4305,2.2957,5.5652,0.0696
2000,-0.1916,3.2572,-8.3155,2.4348,5.7043,0.2783
2005,-0.1916,3.1806,-8.3538,2.5043,5.6348,0.2783
2010,-0.2682,3.2572,-8.3538,2.713,5.6348,0.2783
2015,-0.2299,3.4105,-8.2005,2.8522,5.7043,0.3478
2020,-0.115,3.2955,-8.4688,2.8522,5.7043,0.2783
2025,-0.3066,3.4105,-8.3921,2.8522,5.7043,0.2087
2030,-0.3066,3.4105,-8.4305,2.7826,5.7739,0.0696
2035,-0.3449,3.2189,-8.4305,2.6435,5.7739,-0.2087
2040,-0.3066,3.2955,-8.3921,2.3652,5.5652,-0.2783
2045,-0.3449,3.2572,-8.4688,2.087,5.3565,-0.487
2050,-0.3449,3.4105,-8.3921,1.8783,5.0783,-0.5565
2055,-0.4215,3.2955,-8.3155,1.6,5.0783,-0.487
2060,-0.2682,3.3722,-8.4688,1.5304,4.9391,-0.4174
2065,-0.4598,3.4488,-8.6221,1.3217,4.8696,-0.3478
2070,-0.3066,3.4488,-8.4688,1.1826,4.8,-0.2087
2075,-0.3449,3.4488,-8.5454,0.9739,4.6609,0.0696
2080,-0.3066,3.4105,-8.5071,0.9043,4.5913,0.2087
2085,-0.2299,3.4871,-8.5071,0.7652,4.3826,0.3478
2090,-0.115,3.3339,-8.4688,0.5565,4.3826,0.6261
2095,-0.3449,3.4488,-8.5454,0.1391,4.1739,0.6957
2100,-0.2299,3.3339,-8.5071,-0.0696,4.313,0.8348
2105,-0.3066,3.4105,-8.5454,-0.5565,4.313,1.0435
2110,-0.3832,3.3722,-8.3921,-0.9043,4.3826,1.1826
2115,-0.2682,3.4105,-8.5454,-1.3217,4.313,1.3913
2120,-0.3066,3.1423,-8.4688,-1.6,4.4522,1.6
2125,-0.3832,3.2189,-8.2389,-1.8087,4.5913,1.8783
2130,-0.3066,3.2189,-8.4305,-2.0174,4.6609,2.0174
2135,-0.4215,3.2189,-8.5838,-2.0174,4.8,2.2957
2140,-0.3449,3.2189,-8.4305,-1.9478,4.8,2.4348
2145,-0.3449,3.1806,-8.4688,-1.7391,4.6609,2.713
2150,-0.3066,3.3339,-8.3155,-1.7391,4.5217,2.6435
2155,-0.3449,3.2189,-8.4305,-1.6696,4.313,2.713
2160,-0.2299,3.1039,-8.3155,-1.5304,4.2435,2.5739
2165,-0.3066,3.2189,-8.1239,-1.3217,4.0348,2.5739
2170,-0.1916,3.1806,-8.2005,-1.113,4.0348,2.6435
2175,-0.3449,3.1423,-8.3538,-0.7652,3.8957,2.6435
2180,-0.3066,3.1423,-8.5454,-0.6261,3.8261,2.6435
2185,-0.3066,3.1806,-8.3155,-0.5565,3.687,2.6435
2190,-0.3449,3.1039,-8.2772,-0.4174,3.5478,2.713
2195,-0.2299,3.2572,-8.5071,-0.4174,3.4783,2.6435
2200,-0.3066,3.1806,-8.5454,-0.2783,3.4783,2.713
2205,-0.2299,3.1423,-8.4688,-0.2783,3.5478,2.6435
2210,-0.1916,3.1806,-8.3921,-0.2783,3.6174,2.5739
2215,-0.1533,3.1039,-8.3921,-0.2783,3.8261,2.4348
2220,-0.1916,3.2189,-8.5454,-0.487,3.9652,2.4348
2225,-0.3066,3.1806,-8.3155,-0.4174,4.1043,2.3652
2230,-0.3832,3.3339,-8.3538,-0.5565,4.2435,2.3652
2235,-0.3066,3.2955,-8.2772,-0.487,4.1739,2.4348
2240,-0.2299,3.2572,-8.4688,-0.487,4.0348,2.5043
2245,-0.1916,3.2955,-8.3921,-0.487,3.8957,2.5739
2250,-0.2682,3.2955,-8.4305,-0.6261,3.7565,2.6435
2255,-0.3449,3.2572,-8.4305,-0.7652,3.6174,2.6435
2260,-0.115,3.1423,-8.3155,-1.113,3.4087,2.5739
2265,-0.2682,3.2955,-8.4688,-1.3217,3.2,2.5739
2270,-0.2682,3.2189,-8.5454,-1.7391,2.9913,2.6435
2275,-0.1916,3.1806,-8.4688,-2.0174,2.713,2.5739
2280,-0.1533,3.2189,-8.4305,-2.2957,2.4348,2.6435
2285,-0.1916,3.1423,-8.4688,-2.5739,2.087,2.713
2290,-0.1533,3.1039,-8.3538,-2.7826,1.7391,2.7826
2295,-0.1533,3.2572,-8.3921,-2.8522,1.5304,2.9217
2300,-0.1533,3.2189,-8.4305,-2.9217,1.4609,2.9217
2305,-0.1533,3.1423,-8.3538,-2.8522,1.6696,2.9913
2310,-0.1533,3.1423,-8.3155,-2.8522,2.1565,2.8522
2315,-0.1916,3.1806,-8.3921,-2.713,2.713,2.8522
2320,-0.0383,3.1039,-8.2772,-2.5739,3.3391,2.6435
2325,-0.115,3.2189,-8.2005,-2.4348,3.8261,2.5043
2330,-0.2299,3.1806,-8.3921,-2.087,4.1043,2.3652
2335,-0.0383,3.2189,-8.1239,-1.6696,4.4522,2.2261
2340,-0.0383,3.1039,-8.2389,-1.4609,4.5913,2.1565
2345,-0.0383,3.1039,-8.3155,-1.113,4.8,2.1565
2350,-0.1916,3.1039,-8.2389,-0.8348,4.7304,2.2261
2355,-0.2299,3.1423,-8.3538,-0.6261,4.8,2.2957
2360,-0.4215,3.1806,-8.2772,-0.487,4.6609,2.2261
2365,-0.3832,3.1039,-8.3155,-0.2783,4.5913,2.2957
2370,-0.3066,3.2189,-8.4305,-0.2087,4.7304,2.4348
2375,-0.2299,3.1806,-8.3155,-0.2087,4.5217,2.3652
2380,-0.2299,3.0273,-8.3155,-0.2087,4.4522,2.4348
2385,-0.3066,3.1423,-8.4305,-0.4174,4.313,2.2957
2390,-0.2682,3.1806,-8.4688,-0.4174,4.1739,2.1565
2395,-0.2299,3.1039,-8.5454,-0.2783,3.8261,2.087
2400,-0.0766,3.0273,-8.4305,-0.2783,3.687,1.9478
2405,-0.1916,3.0656,-8.5071,-0.0696,3.5478,1.8783
2410,-0.115,3.0656,-8.3921,0.0,3.5478,1.8783
2415,-0.115,3.2189,-8.3921,0.0696,3.6174,1.8087
2420,-0.1533,3.1423,-8.3921,0.2087,3.4783,1.8087
2425,-0.2299,3.0273,-8.3538,0.2087,3.6174,1.8087
2430,-0.2299,3.2189,-8.4688,0.2783,3.8957,1.7391
2435,-0.115,3.1423,-8.2005,0.4174,4.1739,1.7391
2440,-0.115,3.1039,-8.2772,0.6261,4.5217,1.7391
2445,-0.1533,3.1806,-8.2389,0.6261,4.8,1.6696
2450,-0.1916,3.1423,-8.3155,0.6957,5.0087,1.7391
2455,-0.1916,3.0656,-8.3921,0.7652,5.287,1.7391
2460,-0.0766,3.0656,-8.2389,0.8348,5.4957,1.7391
2465,-0.1533,3.1806,-8.3155,0.9043,5.5652,1.8087
2470,-0.3066,3.1806,-8.3155,0.9043,5.7043,1.7391
2475,-0.2299,3.1806,-8.3538,0.9043,5.6348,1.8087
2480,-0.2299,3.2955,-8.3921,0.8348,5.7043,1.8087
2485,-0.2682,3.1806,-8.2005,0.6261,5.6348,1.6
2490,-0.2682,3.2189,-8.3538,0.5565,5.4957,1.6
2495,-0.2682,3.1039,-8.3538,0.487,5.3565,1.6
2500,-0.2299,3.1423,-8.2772,0.487,5.1478,1.5304
2505,-0.2299,3.1806,-8.3155,0.4174,5.0087,1.5304
2510,-0.3066,3.1806,-8.2389,0.6261,4.8,1.4609
2515,-0.3066,3.1039,-8.3921,0.6261,4.5913,1.3217
2520,-0.3066,3.1806,-8.3921,0.7652,4.3826,1.2522
2525,-0.1533,3.1423,-8.3921,0.8348,4.2435,1.2522
2530,-0.115,3.1039,-8.3538,0.9043,4.1739,1.0435
2535,-0.1916,3.1423,-8.5071,0.9739,3.9652,0.9739
2540,-0.1916,3.1806,-8.5454,1.0435,3.9652,0.8348
2545,-0.1533,3.1806,-8.5071,1.113,3.9652,0.6261
2550,-0.0766,3.1039,-8.4305,1.113,4.1739,0.6261
2555,-0.1916,3.1423,-8.4688,0.9043,4.313,0.487
2560,-0.115,3.3722,-8.5454,0.6957,4.3826,0.4174
2565,-0.0383,3.2572,-8.5454,0.487,4.4522,0.4174
2570,-0.0766,3.1423,-8.4305,0.3478,4.5217,0.5565
2575,-0.115,3.2572,-8.5454,0.0,4.5217,0.487
2580,-0.2299,3.2572,-8.4305,-0.2783,4.5913,0.5565
2585,-0.1533,3.2572,-8.2772,-0.5565,4.5217,0.4174
2590,-0.115,3.1806,-8.3921,-0.7652,4.5217,0.6957
2595,-0.115,3.2189,-8.4688,-0.9739,4.313,0.6957
2600,-0.0383,3.1423,-8.3921,-0.9739,4.2435,0.6261
2605,-0.115,3.1423,-8.4688,-0.9739,4.1739,0.6957
2610,-0.1916,3.2189,-8.5071,-0.9739,3.8957,0.5565
2615,-0.1916,3.1806,-8.4305,-0.9739,3.8957,0.487
2620,-0.115,3.0273,-8.4305,-0.9043,3.8261,0.4174
2625,-0.1533,3.2189,-8.3155,-0.8348,3.7565,0.3478
2630,-0.0383,3.0656,-8.3538,-0.8348,3.4783,0.1391
2635,-0.115,3.0656,-8.3155,-0.6957,3.4087,0.0696
2640,-0.0766,3.1806,-8.4688,-0.5565,3.3391,0.0696
2645,-0.1533,3.1423,-8.4688,-0.487,3.2696,-0.1391
2650,-0.0383,3.1423,-8.3155,-0.3478,3.3391,-0.2783
2655,-0.115,3.0273,-8.3538,-0.2087,3.3391,-0.3478
2660,-0.1533,3.1806,-8.3921,-0.1391,3.3391,-0.4174
2665,-0.3066,3.2572,-8.2772,-0.2087,3.3391,-0.5565
2670,-0.1916,3.2572,-8.3538,-0.2783,3.3391,-0.6957
2675,-0.115,3.2189,-8.3538,-0.3478,3.4087,-0.7652
2680,-0.2682,3.2189,-8.4688,-0.4174,3.5478,-0.9739
2685,-0.0766,3.2572,-8.4688,-0.4174,3.687,-0.9739
2690,-0.1533,3.2189,-8.4305,-0.2783,3.8957,-1.0435
2695,-0.115,3.1423,-8.3921,-0.3478,4.0348,-1.0435
2700,-0.0766,3.2189,-8.3921,-0.2783,4.2435,-1.0435
2705,-0.2682,3.2572,-8.3921,-0.4174,4.5217,-1.0435
2710,-0.115,3.2189,-8.3921,-0.487,4.3826,-0.9739
2715,-0.0766,3.3339,-8.5071,-0.6957,4.313,-0.8348
2720,-0.2299,3.2955,-8.3921,-0.9043,4.2435,-0.8348
2725,-0.2299,3.2572,-8.3538,-0.8348,4.1739,-0.9739
2730,-0.1533,3.1039,-8.3538,-0.7652,4.1043,-0.9739
2735,-0.3066,3.2189,-8.2005,-0.7652,3.8957,-1.113
2740,-0.1916,3.1039,-8.3155,-0.7652,3.8261,-1.0435
2745,-0.1916,3.2572,-8.3921,-0.6957,3.687,-1.1826
2750,-0.1533,3.0273,-8.4305,-0.6261,3.7565,-1.2522
2755,-0.2299,3.0656,-8.3921,-0.6957,3.7565,-1.3913
2760,-0.1533,3.2189,-8.3921,-0.6957,3.8261,-1.3913
2765,-0.2682,3.3339,-8.3921,-0.7652,3.8957,-1.3913
2770,-0.115,3.1806,-8.4688,-0.7652,3.687,-1.4609
2775,-0.115,3.0273,-8.3921,-0.7652,3.687,-1.4609
2780,-0.2299,3.3339,-8.2772,-0.8348,3.7565,-1.3217
2785,-0.2299,3.2189,-8.2389,-0.7652,3.8261,-1.2522
2790,-0.0383,3.1423,-8.2772,-0.6957,4.0348,-1.0435
2795,-0.2682,3.1039,-8.2772,-0.6261,4.2435,-0.9739
2800,-0.1916,3.2572,-8.3538,-0.487,4.3826,-0.9043
2805,-0.0766,3.1039,-8.2389,-0.3478,4.5217,-0.9739
2810,-0.115,3.1423,-8.3155,-0.2783,4.5913,-1.0435
2815,-0.1916,3.1423,-8.2389,-0.2087,4.8,-1.113
2820,-0.2682,3.1423,-8.3921,-0.2087,4.9391,-1.3217
2825,-0.2682,3.2189,-8.3538,-0.2783,4.9391,-1.3217
2830,-0.3449,3.0273,-8.2772,-0.2087,5.1478,-1.1826
2835,-0.3066,3.1806,-8.3155,-0.2087,5.0783,-1.2522
2840,-0.2299,3.1039,-8.5071,-0.3478,4.8696,-1.2522
2845,-0.3449,3.1423,-8.4688,-0.2783,4.8696,-1.3217
2850,-0.3066,3.1806,-8.3538,-0.2087,4.7304,-1.4609
2855,-0.3832,3.2189,-8.6221,-0.2087,4.6609,-1.4609
2860,-0.1916,3.1806,-8.4305,-0.2783,4.5217,-1.6
2865,-0.3449,3.2572,-8.5071,-0.3478,4.5217,-1.8087
2870,-0.1916,3.1423,-8.5454,-0.487,4.313,-1.8783
2875,-0.2682,3.3722,-8.4305,-0.487,4.1739,-1.8783
2880,-0.1916,3.2955,-8.5454,-0.7652,4.1739,-1.9478
2885,-0.2299,3.3722,-8.5454,-0.8348,4.2435,-1.9478
2890,-0.2299,3.3722,-8.3921,-0.9739,4.1043,-2.087
2895,-0.1533,3.3339,-8.6221,-1.2522,4.1043,-2.1565
2900,-0.1533,3.3722,-8.5454,-1.6,4.1043,-1.9478
2905,-0.2299,3.3339,-8.4688,-1.8783,4.0348,-1.8087
2910,-0.4215,3.4488,-8.3921,-2.087,4.1739,-1.6
2915,-0.1916,3.2955,-8.5071,-2.2261,4.313,-1.6
2920,-0.1533,3.2955,-8.5838,-2.4348,4.4522,-1.5304
2925,-0.115,3.2572,-8.3921,-2.5739,4.5217,-1.4609
2930,-0.2299,3.2572,-8.3921,-2.713,4.4522,-1.4609
2935,-0.3066,3.2572,-8.5071,-2.8522,4.4522,-1.3913
2940,-0.2299,3.2955,-8.5071,-2.9217,4.3826,-1.2522
2945,-0.2682,3.2572,-8.5838,-2.9913,4.313,-1.1826
2950,-0.3449,3.1806,-8.3538,-3.1304,4.313,-1.113
2955,-0.2682,3.1806,-8.5454,-3.1304,4.3826,-1.1826
2960,-0.2299,3.1423,-8.4305,-3.1304,4.4522,-1.1826
2965,-0.2299,3.1423,-8.2772,-3.1304,4.3826,-1.1826
2970,-0.2299,3.1423,-8.3538,-2.9913,4.313,-1.1826
2975,-0.115,3.0656,-8.3155,-2.9217,4.1043,-1.2522
2980,-0.3066,3.1039,-8.2772,-2.7826,3.9652,-1.2522
2985,-0.3066,3.1423,-8.3155,-2.5739,3.8957,-1.2522
2990,-0.115,3.1039,-8.2389,-2.4348,3.8261,-1.2522
2995,-0.3066,3.0656,-8.1622,-2.1565,3.9652,-1.2522
