timestamp,accX,accY,accZ,gyroX,gyroY,gyroZ
0,-6.0163,-0.1916,4.905,5.0783,-5.1478,9.8087
5,-5.978,0.0,4.8667,3.2696,-3.0609,7.7913
10,-5.978,-0.1533,4.905,0.9043,-0.0696,5.913
15,-6.0546,-0.3066,4.9816,-0.6957,2.6435,4.313
20,-5.9396,-0.5748,4.9816,-0.7652,4.8696,2.9217
25,-5.978,-0.6131,5.02,0.3478,6.6087,2.0174
30,-5.978,-0.7281,5.2499,2.5043,7.9304,1.6
35,-5.9013,-0.8047,5.4032,5.2174,9.4609,1.4609
40,-5.6714,-0.9963,5.5948,7.5826,10.6435,1.6
45,-5.9013,-0.6898,5.7097,9.3913,11.4783,1.6696
50,-5.9013,-0.6898,5.7864,9.8783,11.9652,1.6696
55,-6.0929,-0.5748,5.9013,9.1826,11.7565,1.6
60,-6.1313,-0.5748,5.9396,7.3739,10.8522,1.4609
65,-6.3995,-0.6131,5.9396,4.1739,9.3913,1.1826
70,-6.4378,-0.843,5.863,0.1391,7.513,0.6957
75,-6.5911,-1.0346,5.863,-3.9652,5.913,0.1391
80,-6.7827,-1.4179,5.8247,-7.7913,4.7304,-0.7652
85,-6.7827,-1.8011,5.5564,-11.0609,4.4522,-1.6696
90,-6.821,-1.9927,5.3265,-13.4957,5.287,-2.087
95,-7.0509,-2.2226,5.4415,-15.1652,7.4435,-2.1565
100,-6.7444,-2.6441,5.0583,-15.513,10.7826,-1.9478
105,-6.6294,-2.9507,4.905,-14.887,15.0261,-1.1826
110,-6.6294,-3.1423,4.8667,-13.4261,19.8957,-0.5565
115,-6.6677,-3.3339,4.6368,-11.8957,24.9043,0.4174
120,-6.7444,-3.3722,4.5218,-10.0174,29.4261,1.7391
125,-6.5145,-3.3722,4.3685,-8.487,31.8609,3.2696
130,-6.5528,-3.1423,4.5218,-7.513,31.8609,4.9391
135,-6.5911,-3.1039,4.7517,-6.7478,29.287,6.6087
140,-6.5528,-3.0656,4.8667,-5.7739,25.3217,8.2087
145,-6.4378,-2.8357,5.2499,-5.0783,21.0087,9.7391
150,-6.3995,-2.7591,5.6714,-5.287,17.0435,11.4087
155,-6.5528,-2.4525,5.6331,-6.5391,13.4957,13.287
160,-6.4378,-2.3759,5.9013,-8.1391,10.3652,14.9565
165,-6.3612,-2.3375,6.0546,-9.4609,7.9304,16.2783
170,-6.4378,-2.4142,5.863,-10.3652,6.2609,17.3217
175,-6.7827,-2.4525,5.5948,-10.3652,6.1217,17.8783
180,-6.821,-2.4908,5.4032,-9.8783,8.0,17.8087
185,-7.3192,-2.4525,4.79,-8.9739,11.8957,17.3217
190,-7.7024,-2.4525,4.5601,-8.4174,16.6957,16.7652
195,-7.6641,-2.4525,4.3685,-8.3478,21.6348,16.2783
200,-7.7024,-2.4142,4.2152,-7.7217,25.7391,15.7913
205,-7.4725,-2.6824,3.9853,-6.0522,28.9391,15.7217
210,-7.2425,-2.6441,3.3722,-3.7565,31.0957,15.8609
215,-6.9743,-2.6824,3.3722,-1.2522,31.8609,16.3478
220,-6.7444,-2.7207,3.3722,0.9739,30.887,17.0435
225,-6.5528,-2.5675,3.3722,2.9217,28.7304,17.4609
230,-6.4761,-2.4908,3.4105,4.3826,25.3913,18.2261
235,-6.2845,-2.4142,3.6404,5.3565,21.4261,18.9913
240,-5.863,-2.2226,3.7171,5.287,17.4609,19.7565
245,-5.4032,-1.9927,3.8704,3.8261,14.0522,20.313
250,-5.2882,-1.6478,4.062,1.5304,11.5478,20.8
255,-4.8284,-1.5711,4.2152,-1.0435,10.1565,21.3565
260,-4.79,-1.4945,4.6751,-3.4087,10.5043,22.3304
265,-4.7517,-1.2263,4.6368,-5.913,11.687,24.0
270,-4.79,-1.1113,4.79,-8.8348,13.6348,25.9478
275,-4.9433,-0.958,4.9816,-11.6174,15.5826,27.8261
280,-5.0583,-1.1496,5.1349,-13.1478,16.6261,29.8435
285,-5.1349,-1.2263,4.79,-12.5913,17.0435,31.4435
290,-5.0966,-1.2646,4.4452,-10.2957,17.2522,32.7652
295,-5.2882,-1.073,4.2152,-6.6783,18.2957,33.6
300,-5.2116,-0.9197,3.5638,-3.2696,20.7304,34.0174
305,-5.2499,-0.843,2.9123,-1.5304,24.3478,33.5304
310,-5.3648,-0.6131,2.7591,-0.6957,28.3826,33.113
315,-5.3265,-0.5365,2.6058,-0.487,31.6522,33.3217
320,-4.905,-0.3832,2.6441,-0.3478,33.3913,34.087
325,-4.7517,-0.115,2.874,-0.6261,34.3652,35.4087
330,-4.5601,0.1533,2.9123,-1.2522,36.1043,37.0783
335,-4.5984,0.3066,3.0273,-2.087,40.0696,38.4696
340,-4.6368,0.4982,3.2955,-3.4783,46.1913,38.6087
345,-4.7134,0.3449,3.2955,-5.0087,53.9826,37.7043
350,-5.2116,0.1533,3.3722,-6.0522,62.4,36.3826
355,-5.5181,0.0383,3.6021,-6.4,69.8435,35.2
360,-6.0546,0.0766,3.7554,-5.8435,75.2696,34.5043
365,-6.5911,-0.0766,3.9853,-4.3826,78.6087,33.9478
370,-6.9743,-0.1533,4.0236,-2.5739,80.0696,32.9043
375,-7.3958,0.0,4.1003,-0.7652,80.487,31.7217
380,-7.8557,-0.0383,4.1003,0.7652,80.5565,30.7478
385,-8.3538,-0.2299,4.062,1.9478,80.0,29.6348
390,-8.9286,-0.2299,4.0236,3.0609,78.6783,28.8696
395,-9.1202,-0.4215,4.1386,3.9652,76.3826,27.9652
400,-9.7334,-0.2299,4.1003,4.313,73.4609,26.9913
405,-9.4268,-0.3832,3.8704,3.7565,70.1217,25.8783
410,-10.0782,-0.4982,3.947,2.087,66.5043,24.1391
415,-10.1932,-0.4982,3.6787,-1.0435,61.913,21.8435
420,-10.0016,-0.5365,3.8704,-4.7304,56.1391,19.6174
425,-10.0782,-0.6898,3.9087,-8.487,49.6,17.9478
430,-10.0016,-0.7281,3.9087,-11.7565,42.9913,16.6957
435,-9.925,-0.843,3.9853,-14.4,36.6609,15.6522
440,-9.81,-0.8047,4.2152,-16.4174,30.6087,14.9565
445,-9.5801,-0.8814,4.4835,-17.7391,25.113,14.4696
450,-9.4268,-0.958,4.4835,-18.6435,20.3826,13.913
455,-9.3885,-0.9197,4.6368,-19.3391,16.5565,13.287
460,-9.1969,-0.843,4.6368,-19.7565,13.7043,12.4522
465,-8.6221,-0.843,4.3685,-20.5217,11.4783,11.1304
470,-8.3538,-0.843,4.4068,-21.8435,10.087,8.8348
475,-8.1622,-0.8814,4.2152,-23.5826,9.5304,6.2609
480,-8.0856,-0.6898,4.1769,-25.3217,9.3217,3.8957
485,-8.0856,-0.7664,4.0236,-26.7826,9.1826,1.8087
490,-8.1239,-0.7281,4.062,-27.5478,8.5565,0.0
495,-8.1622,-0.8047,4.0236,-27.9652,7.3043,-1.7391
500,-7.9706,-0.8814,3.832,-28.0348,5.9826,-3.2696
505,-7.8557,-0.9197,3.7937,-28.0348,4.6609,-5.0783
510,-7.5491,-0.9197,3.4488,-27.8261,3.7565,-6.4
515,-7.5108,-0.8814,3.3339,-26.9913,3.7565,-7.7217
520,-7.2809,-0.843,3.0656,-25.7391,4.5913,-8.9739
525,-7.1659,-0.6898,2.989,-23.9304,6.2609,-9.8087
530,-7.0893,-0.6131,2.7974,-22.0522,8.6261,-10.6435
535,-7.0893,-0.4982,2.7591,-20.8,11.687,-11.4087
540,-7.1276,-0.4215,2.7974,-20.1739,15.0261,-11.687
545,-7.2425,-0.3449,2.989,-20.5913,18.5739,-11.9652
550,-7.2425,-0.4215,2.989,-21.4261,21.7043,-11.8261
555,-7.4341,-0.4982,2.9507,-22.6783,24.2783,-11.6174
560,-7.6641,-0.4982,2.9123,-23.5826,25.8783,-10.9913
565,-7.7024,-0.843,3.0656,-24.1391,26.8522,-10.3652
570,-7.9323,-0.7664,3.1039,-24.3478,27.2696,-9.6696
575,-8.0089,-0.7664,3.1423,-24.0696,27.687,-8.9043
580,-8.1622,-0.7664,3.2572,-23.5826,27.8957,-8.2783
585,-8.3155,-0.9197,3.3339,-23.2348,28.1043,-7.6522
590,-8.3921,-1.073,2.989,-23.0261,27.8957,-7.3043
595,-8.3921,-1.1496,3.0273,-22.887,27.4783,-6.887
600,-8.6604,-1.3412,2.989,-22.7478,26.087,-6.6783
605,-8.6604,-1.4562,3.0273,-22.1913,23.8609,-6.1217
610,-8.8137,-1.6095,3.1039,-21.1478,20.8,-5.6348
615,-8.9286,-1.6861,2.989,-19.7565,16.8348,-4.9391
620,-9.0053,-1.6861,2.9507,-18.087,12.313,-4.313
625,-8.9286,-1.7627,2.7207,-16.2783,7.6522,-3.4783
630,-8.9286,-1.4562,2.6058,-14.8174,3.2,-2.7826
635,-8.7754,-1.4562,2.6058,-13.4261,-0.7652,-2.2261
640,-8.4305,-1.6478,2.5675,-12.1739,-3.9652,-1.7391
645,-8.3538,-1.4179,2.5291,-11.3391,-5.9826,-1.3217
650,-8.0473,-1.6095,2.4525,-10.4348,-6.8174,-0.9043
655,-8.0856,-1.5328,2.4525,-9.6,-6.1217,-0.7652
660,-8.1239,-1.4945,2.4142,-9.0435,-4.2435,-0.6261
665,-8.2005,-1.6478,2.2226,-8.7652,-1.4609,-0.5565
670,-8.4688,-1.5328,2.4142,-8.9739,2.0174,-0.6261
675,-8.5838,-1.6095,2.4142,-9.8783,5.4957,-0.5565
680,-8.737,-1.5711,2.5675,-10.9913,8.5565,-0.4174
685,-8.7754,-1.7627,2.4908,-12.1739,10.9217,-0.5565
690,-8.9286,-1.8777,2.4142,-12.6609,12.1739,-0.487
695,-8.6987,-2.0693,2.4908,-12.7304,12.2435,-0.6957
700,-8.9286,-1.916,2.4525,-12.1043,11.0609,-0.7652
705,-8.737,-1.916,2.4525,-11.0609,8.9043,-0.9739
710,-8.6221,-2.031,2.5675,-9.6696,6.4696,-1.1826
715,-8.5454,-1.8011,2.6824,-8.3478,4.313,-1.4609
720,-8.4305,-1.8777,2.7207,-7.0261,2.9913,-2.087
725,-8.3921,-1.8394,2.9507,-5.8435,2.9217,-2.713
730,-8.3538,-1.916,3.1806,-4.8,3.5478,-3.4087
735,-8.2005,-1.8011,3.0656,-4.0348,4.8,-4.313
740,-8.3538,-1.7627,3.3339,-3.8261,6.4696,-5.2174
745,-8.3538,-1.6478,3.1806,-4.1043,8.487,-6.0522
750,-8.4305,-1.6861,3.1039,-5.0783,10.6435,-7.0261
755,-8.5071,-1.8777,3.1806,-6.2609,12.313,-8.0
760,-8.5454,-2.031,2.989,-7.513,13.3565,-8.9739
765,-8.4688,-2.1843,3.2189,-7.9304,13.287,-9.8783
770,-8.5454,-2.1843,2.989,-7.2348,12.1043,-10.2957
775,-8.5838,-2.4142,2.9507,-5.6348,9.9478,-10.2957
780,-8.5071,-2.5291,2.874,-2.713,7.3043,-9.8783
785,-8.3921,-2.4525,2.8357,0.9739,4.313,-9.5304
790,-8.3155,-2.3375,2.8357,5.0087,1.4609,-8.9739
795,-8.6221,-2.0693,2.7207,9.113,-0.9739,-8.487
800,-8.3155,-2.1076,2.6824,12.5913,-2.9217,-7.8609
805,-8.5454,-2.1076,2.5291,15.0261,-4.5217,-7.2348
810,-8.5071,-1.8394,2.6441,16.0,-5.913,-7.1652
815,-8.5838,-1.8011,2.4908,15.6522,-7.0957,-7.0261
820,-8.5454,-1.6095,2.6058,14.5391,-7.9304,-6.8174
825,-8.5454,-1.4179,2.5291,12.5913,-8.6957,-6.6783
830,-8.5071,-1.4179,2.7207,10.2261,-9.3913,-6.5391
835,-8.2389,-1.6478,2.7591,7.9304,-10.0174,-6.4696
840,-8.2772,-1.5711,2.7207,5.7739,-10.6435,-6.3304
845,-8.2772,-1.6095,2.7974,4.1043,-11.2,-6.3304
850,-8.1622,-1.7244,3.0273,3.0609,-11.687,-6.2609
855,-8.5071,-1.6095,3.0656,2.6435,-11.9652,-6.2609
860,-8.2389,-1.7627,3.1423,3.0609,-11.8261,-6.1217
865,-8.2389,-1.8011,3.1806,3.9652,-11.3391,-6.1217
870,-8.1622,-1.7244,3.1423,5.287,-10.7826,-5.9826
875,-8.2772,-1.6861,3.2572,7.2348,-9.8783,-5.9826
880,-8.0856,-1.8777,3.1039,9.6,-8.9739,-5.7043
885,-8.4305,-1.7627,3.2189,12.2435,-8.0,-5.287
890,-8.3155,-1.8394,2.8357,14.5391,-7.3739,-5.5652
895,-8.0473,-1.7244,3.1806,16.2087,-7.3739,-5.913
900,-8.2005,-1.6478,3.1423,17.2522,-7.3043,-6.1217
905,-8.0473,-1.8394,2.874,17.5304,-7.2348,-6.1217
910,-8.1239,-1.8777,3.0273,17.3217,-6.9565,-5.9826
915,-8.0856,-1.6095,2.9123,16.487,-6.4696,-5.9826
920,-8.0856,-1.6095,3.2189,15.3043,-5.913,-5.8435
925,-8.0473,-1.4179,3.1039,13.9826,-5.4957,-5.7043
930,-8.0473,-1.4179,3.1806,12.6609,-5.4261,-5.4957
935,-8.0473,-1.2646,3.2189,11.2696,-5.3565,-5.287
940,-7.6257,-1.2646,3.1806,10.087,-5.4261,-5.2174
945,-8.2005,-1.2646,3.3722,8.9739,-5.1478,-4.9391
950,-8.0089,-1.3795,3.4871,8.4174,-5.4957,-4.8
955,-8.0089,-1.1879,3.4488,8.2087,-6.3304,-4.9391
960,-7.6257,-0.9197,3.3339,8.2087,-7.0261,-4.9391
965,-7.4341,-1.2646,3.6021,8.3478,-7.3043,-5.0087
970,-7.4341,-1.0346,3.5255,8.6957,-6.9565,-5.0087
975,-7.5491,-1.073,3.4488,9.0435,-6.1913,-4.9391
980,-7.3958,-1.1879,3.2955,9.1826,-4.6609,-4.9391
985,-7.3958,-1.1879,3.4488,9.3217,-2.9913,-4.8696
990,-7.3958,-1.1113,3.3339,9.1826,-1.113,-4.8
995,-7.3575,-0.9963,3.4488,8.6957,0.6261,-4.7304
1000,-7.3575,-1.073,3.5255,7.9304,2.3652,-4.5217
1005,-7.3958,-1.073,3.6021,6.887,3.8957,-4.313
1010,-7.4341,-1.1879,3.4871,5.8435,5.3565,-4.1739
1015,-7.3575,-1.3795,3.4488,5.0087,6.3304,-3.8957
1020,-7.2042,-0.958,3.4105,4.7304,6.6783,-3.8261
1025,-7.4341,-1.3412,3.4105,5.0087,6.8174,-3.7565
1030,-7.5108,-1.2646,3.4488,5.6348,6.5391,-3.687
1035,-7.5108,-1.4179,3.4488,6.3304,5.8435,-3.7565
1040,-7.5108,-1.4179,3.3339,7.0957,4.8696,-3.8261
1045,-7.5491,-1.4562,3.2955,7.5826,3.8957,-3.9652
1050,-7.4725,-1.3029,3.1039,7.8609,2.8522,-4.313
1055,-7.5874,-1.4562,3.2189,7.8609,2.2957,-4.5217
1060,-7.5491,-1.3795,3.3339,7.8609,1.7391,-4.8
1065,-7.6257,-1.3029,3.2955,7.3739,1.5304,-5.0087
1070,-7.5108,-1.2646,3.4105,6.6783,1.3913,-5.1478
1075,-7.5874,-1.2646,3.1039,5.913,1.6696,-5.2174
1080,-7.6257,-1.1879,3.3339,4.8,2.0174,-5.0783
1085,-7.5108,-1.1496,3.1806,3.5478,2.7826,-4.8696
1090,-7.5108,-1.0346,3.3722,1.9478,3.8957,-4.5913
1095,-7.6257,-1.073,3.2572,-0.0696,5.4957,-4.2435
1100,-7.5874,-0.958,3.2572,-2.4348,7.1652,-3.9652
1105,-7.779,-0.958,3.3339,-4.5217,9.3217,-3.7565
1110,-7.894,-1.0346,3.3722,-6.1913,11.2,-3.5478
1115,-7.9323,-1.1879,3.2955,-7.0957,12.1739,-3.4783
1120,-8.0856,-1.3029,3.1806,-7.1652,12.5217,-3.4783
1125,-8.2005,-1.1879,3.3722,-6.4696,11.8261,-3.4087
1130,-8.0473,-1.1113,3.4871,-5.3565,10.2957,-3.3391
1135,-8.0089,-1.3412,3.4105,-3.8261,8.487,-3.1304
1140,-8.0473,-1.3029,3.4105,-2.1565,6.4,-3.0609
1145,-8.0856,-1.3795,3.2955,-0.4174,4.4522,-2.9913
1150,-8.0089,-1.3795,3.3722,1.0435,2.713,-2.7826
1155,-8.0473,-1.3412,3.2572,2.2957,1.3217,-2.713
1160,-7.9323,-1.1879,3.2572,3.1304,0.487,-2.5739
1165,-7.8557,-1.1496,3.4105,3.7565,0.4174,-2.5043
1170,-7.8557,-1.0346,3.2572,3.8261,0.8348,-2.2957
1175,-7.7024,-1.0346,3.1806,3.4783,2.0174,-2.2957
1180,-7.779,-0.9963,3.1806,2.9217,3.687,-2.2957
1185,-7.9706,-0.8814,3.0273,2.1565,5.8435,-2.2957
1190,-7.8173,-0.958,3.0273,1.3217,8.0696,-2.4348
1195,-7.8557,-0.843,3.0273,0.4174,10.2957,-2.5043
1200,-7.8173,-0.9197,2.9123,-0.5565,12.3826,-2.5739
1205,-7.8173,-0.8047,2.8357,-1.4609,14.1217,-2.6435
1210,-7.8557,-0.8814,2.874,-2.5739,15.5826,-2.5739
1215,-7.9323,-0.9197,3.0656,-3.5478,16.5565,-2.5043
1220,-7.9706,-0.8047,2.9123,-4.5217,17.2522,-2.4348
1225,-7.894,-1.0346,2.9507,-5.6348,17.7391,-2.2261
1230,-7.894,-0.958,2.9123,-6.887,18.0174,-2.0174
1235,-8.0856,-1.1496,2.8357,-8.0696,18.2261,-1.8783
1240,-8.1239,-0.8814,2.9507,-9.5304,18.2957,-1.6696
1245,-8.0473,-1.0346,3.1423,-10.9217,18.2261,-1.3913
1250,-8.0856,-1.0346,2.989,-12.5913,18.1565,-1.2522
1255,-8.1239,-1.1879,2.9507,-13.9826,18.2261,-1.0435
1260,-8.2772,-1.3412,3.0656,-15.1652,18.087,-1.0435
1265,-8.2005,-1.3795,3.1423,-16.0,17.7391,-1.0435
1270,-8.1239,-1.3795,3.1423,-16.3478,16.9739,-1.0435
1275,-8.3155,-1.4945,3.0273,-16.1391,16.1391,-0.9043
1280,-8.2389,-1.5711,3.0273,-15.3739,14.887,-0.7652
1285,-8.1239,-1.5711,3.1039,-14.1913,13.6348,-0.7652
1290,-8.2005,-1.7244,2.9123,-12.5217,12.2435,-0.6957
1295,-8.2772,-1.6861,2.9507,-10.6435,10.9913,-0.6261
1300,-8.2389,-1.6095,2.874,-8.6957,9.8087,-0.6261
1305,-8.2389,-1.6095,2.7591,-6.9565,8.7652,-0.5565
1310,-8.3155,-1.6095,2.6441,-5.287,7.9304,-0.5565
1315,-8.3155,-1.4562,2.8357,-3.6174,7.2348,-0.6261
1320,-8.2772,-1.4179,2.6441,-2.2261,6.7478,-0.487
1325,-8.3538,-1.3795,2.7974,-0.9739,6.2609,-0.487
1330,-8.2389,-1.4562,2.6058,0.0696,5.913,-0.5565
1335,-8.3155,-1.3412,2.6058,0.7652,5.5652,-0.5565
1340,-8.2005,-1.3795,2.4908,1.2522,5.3565,-0.487
1345,-8.3538,-1.1113,2.4142,1.6,5.1478,-0.4174
1350,-8.2005,-1.2263,2.5291,1.7391,4.9391,-0.4174
1355,-8.3538,-1.1879,2.4525,1.6,4.6609,-0.2087
1360,-8.2389,-1.2263,2.5675,1.0435,4.5913,-0.2087
1365,-8.2389,-1.3412,2.4908,0.3478,4.5217,-0.2087
1370,-8.2005,-1.1879,2.5291,-0.6957,4.5217,-0.1391
1375,-8.2389,-1.1879,2.6441,-1.7391,4.5913,-0.2087
1380,-8.1622,-1.1113,2.7207,-2.7826,4.7304,-0.1391
1385,-8.0856,-1.2646,2.6824,-3.8261,4.7304,-0.2087
1390,-8.0089,-1.2263,2.6824,-4.7304,4.8,-0.3478
1395,-8.1622,-1.3029,2.6824,-5.6348,4.5913,-0.3478
1400,-8.1239,-1.4179,2.6058,-6.6783,4.5217,-0.4174
1405,-8.1239,-1.3795,2.7591,-7.7217,4.5217,-0.5565
1410,-8.1622,-1.3029,2.9507,-8.7652,4.6609,-0.6261
1415,-8.1239,-1.5328,2.8357,-9.6,4.7304,-0.6957
1420,-8.2005,-1.3412,2.874,-10.2957,4.7304,-0.6957
1425,-8.3155,-1.4945,2.9507,-10.5043,4.8,-0.6957
1430,-8.2005,-1.7244,2.989,-10.3652,4.7304,-0.7652
1435,-8.2005,-1.5328,3.0273,-10.0174,4.5913,-0.8348
1440,-8.2772,-1.4945,2.7207,-9.3913,4.5913,-0.6957
1445,-8.3538,-1.4562,2.989,-8.4174,4.8696,-0.6261
1450,-8.3155,-1.4562,2.9507,-7.513,5.4957,-0.487
1455,-8.2772,-1.1879,3.0273,-6.6783,6.1217,-0.487
1460,-8.2005,-1.4179,2.9507,-5.7739,6.7478,-0.6261
1465,-8.3921,-1.3412,2.7974,-4.7304,7.2348,-0.6957
1470,-8.2005,-1.4179,2.7974,-3.9652,7.513,-0.8348
1475,-8.2772,-1.3795,2.6441,-3.2696,7.3043,-0.9739
1480,-8.2772,-1.3029,2.6441,-2.5739,6.887,-0.9739
1485,-8.3155,-1.3412,2.6058,-2.2957,5.9826,-0.9043
1490,-8.1622,-1.4562,2.6441,-2.2957,4.7304,-0.8348
1495,-8.1622,-1.4179,2.6058,-2.5043,3.4087,-0.9043
1500,-8.1622,-1.4179,2.6058,-3.0609,2.1565,-0.9043
1505,-8.1622,-1.2646,2.7591,-3.8261,1.0435,-0.8348
1510,-8.0856,-1.3029,2.7207,-4.8,0.3478,-0.8348
1515,-8.2389,-1.3795,2.6441,-5.8435,0.0,-0.9043
1520,-8.2389,-1.3412,2.6058,-6.8174,-0.0696,-1.0435
1525,-8.1239,-1.4179,2.7207,-7.7217,0.2783,-1.113
1530,-8.1622,-1.4945,2.7591,-8.2783,0.8348,-1.1826
1535,-8.0856,-1.4945,2.6441,-8.6957,1.6,-1.2522
1540,-8.1622,-1.5328,2.6441,-8.9043,2.5043,-1.3217
1545,-8.2005,-1.6478,2.5291,-8.6261,3.4087,-1.2522
1550,-8.0089,-1.6861,2.6058,-7.8609,4.1043,-1.2522
1555,-8.0856,-1.8011,2.5291,-6.7478,4.5913,-1.1826
1560,-7.894,-1.7627,2.7591,-5.4261,4.8696,-1.1826
1565,-8.0856,-1.7627,2.6824,-3.8261,4.8696,-0.9043
1570,-8.0089,-1.7627,2.5291,-2.2261,4.6609,-0.8348
1575,-7.9706,-1.7244,2.5675,-0.7652,4.2435,-0.6261
1580,-8.0856,-1.7244,2.5675,0.4174,3.687,-0.4174
1585,-7.9706,-1.6861,2.4142,1.113,2.9913,-0.2783
1590,-8.0473,-1.4562,2.6058,1.5304,1.9478,-0.1391
1595,-7.9323,-1.4945,2.5675,1.5304,0.9739,-0.0696
1600,-7.9323,-1.4945,2.6058,1.113,-0.2087,0.0696
1605,-8.0089,-1.4562,2.7207,0.4174,-1.1826,0.0
1610,-7.9706,-1.3029,2.6824,-0.6261,-2.1565,0.0
1615,-7.9323,-1.4179,2.6058,-1.6,-2.8522,0.0
1620,-7.9706,-1.4179,2.6058,-2.6435,-3.0609,-0.0696
1625,-7.9706,-1.3795,2.874,-3.6174,-3.2,-0.1391
1630,-8.0856,-1.3795,2.9123,-4.1739,-3.2,-0.1391
1635,-8.1239,-1.4179,2.7207,-4.3826,-2.9913,-0.2783
1640,-8.1239,-1.5328,2.7974,-4.1739,-2.7826,-0.3478
1645,-8.1622,-1.5711,2.8357,-3.687,-2.713,-0.487
1650,-8.1622,-1.6478,2.7974,-2.9913,-2.4348,-0.487
1655,-8.2005,-1.5711,2.6824,-2.2957,-2.2957,-0.5565
1660,-8.2005,-1.6861,2.7207,-1.6696,-2.0174,-0.6261
1665,-8.2389,-1.6478,2.7207,-1.113,-1.9478,-0.7652
1670,-8.5071,-1.4562,2.7591,-0.6261,-1.8783,-0.8348
1675,-8.4688,-1.3795,2.5675,-0.2087,-1.8783,-0.8348
1680,-8.3921,-1.5711,2.6441,0.2087,-2.0174,-0.8348
1685,-8.3921,-1.4945,2.7207,0.4174,-2.5043,-0.7652
1690,-8.2772,-1.5711,2.5675,0.6261,-3.0609,-0.6957
1695,-8.2772,-1.4945,2.6441,0.6261,-3.687,-0.6957
1700,-8.2772,-1.4945,2.5291,0.4174,-4.1043,-0.487
1705,-8.2772,-1.4945,2.5291,0.0,-4.5913,-0.487
1710,-8.1239,-1.5328,2.6441,-0.3478,-4.8696,-0.3478
1715,-8.1622,-1.5328,2.5675,-0.8348,-5.0783,-0.3478
1720,-8.2772,-1.5328,2.5675,-1.1826,-5.287,-0.2087
1725,-8.1622,-1.5711,2.7974,-1.4609,-5.4261,-0.0696
1730,-8.0473,-1.3412,2.6058,-1.3913,-5.5652,0.0696
1735,-8.0473,-1.4562,2.6058,-1.6,-5.6348,0.1391
1740,-8.0856,-1.4562,2.6058,-1.4609,-5.7043,0.3478
1745,-8.0473,-1.3795,2.6058,-1.3217,-5.6348,0.5565
1750,-7.9706,-1.3795,2.6441,-1.1826,-5.7043,0.6261
1755,-7.9323,-1.4179,2.6058,-1.113,-5.7043,0.6957
1760,-8.0856,-1.4179,2.7974,-1.0435,-5.5652,0.8348
1765,-7.8557,-1.5711,2.7591,-0.9043,-5.4957,0.9739
1770,-7.894,-1.4562,2.8357,-0.7652,-5.3565,0.9739
1775,-7.8557,-1.5328,2.8357,-0.6957,-5.2174,0.9739
1780,-7.9323,-1.4179,2.7207,-0.7652,-5.1478,1.0435
1785,-7.8557,-1.4562,2.9123,-1.0435,-4.9391,1.113
1790,-8.0473,-1.3795,3.0273,-1.3217,-4.6609,1.113
1795,-8.0856,-1.4562,3.0273,-1.6696,-4.3826,1.1826
1800,-8.0473,-1.3795,3.1039,-2.0174,-3.9652,1.1826
1805,-8.1622,-1.4562,3.1806,-2.2957,-3.4087,1.2522
1810,-8.1239,-1.4179,3.0273,-2.713,-2.9913,1.3217
1815,-8.0473,-1.5711,2.989,-2.7826,-2.6435,1.2522
1820,-8.1239,-1.3795,2.989,-2.6435,-2.4348,1.1826
1825,-8.0856,-1.4179,3.0656,-2.3652,-2.5043,1.2522
1830,-8.1622,-1.4562,3.1423,-1.7391,-2.7826,1.3217
1835,-8.2005,-1.1496,3.0273,-0.8348,-3.0609,1.1826
1840,-8.1239,-1.2646,2.7974,-0.1391,-3.6174,1.113
1845,-8.0473,-1.3412,2.9123,0.6957,-4.1739,1.113
1850,-8.0473,-1.2263,2.7974,1.3217,-4.5913,1.0435
1855,-8.1239,-1.1879,2.7207,1.8783,-5.0087,1.113
1860,-8.0089,-1.1113,2.7207,1.9478,-5.2174,0.9043
1865,-8.0089,-1.1496,2.7207,2.0174,-5.4261,0.7652
1870,-7.894,-1.3029,2.7591,1.6696,-5.4261,0.6261
1875,-7.8557,-1.3412,2.7207,1.1826,-5.3565,0.6261
1880,-7.9323,-1.1879,2.6824,0.6261,-5.2174,0.5565
1885,-7.9323,-1.3412,2.7207,0.2087,-5.0087,0.4174
1890,-7.6257,-1.3029,2.7591,-0.2087,-4.7304,0.4174
1895,-7.779,-1.3795,2.9507,-0.6261,-4.5913,0.3478
1900,-7.8557,-1.4945,3.1039,-0.8348,-4.5217,0.3478
1905,-7.894,-1.4179,2.7974,-1.1826,-4.4522,0.3478
1910,-7.894,-1.3795,2.9507,-1.5304,-4.5217,0.4174
1915,-7.8557,-1.4562,3.1039,-1.8087,-4.5913,0.3478
1920,-7.8557,-1.3795,2.7974,-2.1565,-4.5217,0.3478
1925,-7.894,-1.3412,2.9507,-2.6435,-4.313,0.4174
1930,-7.9323,-1.4179,3.1806,-3.1304,-4.2435,0.4174
1935,-7.894,-1.3795,3.2189,-3.4087,-3.8261,0.487
1940,-8.0473,-1.4179,3.1806,-3.687,-3.4087,0.487
1945,-7.894,-1.6861,3.0273,-3.8261,-3.2,0.5565
1950,-7.9706,-1.3029,3.1039,-3.687,-2.7826,0.5565
1955,-8.0856,-1.3412,3.1423,-3.6174,-2.2957,0.6261
1960,-8.0089,-1.3795,3.1423,-3.3391,-1.9478,0.6261
1965,-8.1622,-1.4562,3.2572,-2.9217,-1.5304,0.7652
1970,-8.0473,-1.3412,3.2189,-2.4348,-1.113,0.7652
1975,-8.0473,-1.3412,3.1806,-2.087,-0.9043,0.7652
1980,-7.894,-1.3412,3.1806,-1.4609,-0.7652,0.9043
1985,-8.1622,-1.3029,3.1039,-0.8348,-0.487,0.9739
1990,-8.0089,-1.3795,3.0656,-0.2783,-0.487,1.0435
1995,-8.0473,-1.3412,2.989,0.2087,-0.5565,1.0435
2000,-8.2005,-1.5711,2.6824,0.6261,-0.6957,0.9739
2005,-8.0089,-1.2646,2.9123,0.8348,-0.7652,0.9043
2010,-8.0856,-1.3029,3.0656,0.9043,-0.9043,0.9739
2015,-7.9323,-1.2263,2.9123,0.6957,-1.0435,0.9043
2020,-8.0856,-1.2646,2.7974,0.5565,-1.1826,0.6957
2025,-7.9706,-1.2263,2.9507,0.3478,-1.4609,0.6957
2030,-8.0473,-1.2646,2.7974,0.1391,-1.7391,0.6261
2035,-8.0089,-1.2646,2.9123,-0.0696,-2.1565,0.7652
2040,-7.9706,-1.3029,2.8357,-0.1391,-2.713,0.6957
2045,-7.9323,-1.2646,2.9507,-0.3478,-3.1304,0.8348
2050,-8.0473,-1.2263,2.989,-0.5565,-3.687,0.9043
2055,-7.894,-1.5328,2.9123,-0.6261,-4.2435,0.9739
2060,-7.9706,-1.3029,2.9507,-0.7652,-4.5913,0.9043
2065,-8.0473,-1.3412,2.9507,-0.8348,-5.0087,0.9043
2070,-7.9323,-1.3029,2.874,-0.8348,-5.3565,0.9043
2075,-8.0473,-1.2646,2.874,-0.8348,-5.3565,0.9043
2080,-7.9323,-1.3412,3.0273,-0.8348,-5.4261,0.9043
2085,-7.9323,-1.2263,2.989,-0.8348,-5.3565,0.8348
2090,-7.8557,-1.4179,2.989,-0.8348,-5.287,0.8348
2095,-8.0856,-1.2646,3.0656,-0.9043,-5.0783,0.7652
2100,-8.0473,-1.1879,3.0656,-0.9043,-4.9391,0.6957
2105,-7.894,-1.1879,3.0656,-0.9739,-4.7304,0.6957
2110,-7.9706,-1.3412,2.9507,-1.1826,-4.4522,0.7652
2115,-8.0473,-1.3029,3.1806,-1.3913,-4.313,0.6261
2120,-8.2005,-1.3795,3.1806,-1.3913,-4.1043,0.7652
2125,-7.9706,-1.3029,3.0656,-1.4609,-3.9652,0.9043
2130,-8.0856,-1.3795,3.2189,-1.6,-3.8957,0.9043
2135,-8.0089,-1.2646,3.1806,-1.6,-3.8957,0.9043
2140,-8.0473,-1.2263,3.1423,-1.3913,-3.9652,0.9043
2145,-8.0089,-1.3795,2.989,-1.3217,-4.1043,0.9739
2150,-7.9706,-1.3795,3.1423,-1.1826,-4.2435,1.0435
2155,-8.0856,-1.1879,3.0656,-1.0435,-4.313,0.9739
2160,-8.0856,-1.1879,3.1039,-0.8348,-4.5217,0.9043
2165,-8.0473,-1.3029,3.0273,-0.6957,-4.7304,0.8348
2170,-7.9706,-1.2263,2.989,-0.487,-4.9391,0.7652
2175,-7.894,-1.2646,3.2189,-0.3478,-5.1478,0.6957
2180,-7.9323,-1.3029,3.1423,-0.1391,-5.4261,0.6261
2185,-7.9706,-1.3412,3.1806,-0.1391,-5.7739,0.487
2190,-7.9323,-1.3029,3.1423,0.0696,-5.913,0.487
2195,-7.8173,-1.3029,3.0656,0.2783,-5.9826,0.3478
2200,-7.894,-1.4562,3.0273,0.3478,-6.1913,0.3478
2205,-7.8557,-1.2263,3.2189,0.4174,-6.2609,0.2087
2210,-7.9323,-1.3029,3.1806,0.4174,-6.4696,0.2087
2215,-7.8557,-1.3029,3.2189,0.2783,-6.6087,0.2087
2220,-7.7407,-1.2646,3.2189,0.0696,-6.6087,0.3478
2225,-7.894,-1.3029,3.2955,-0.2783,-6.5391,0.2783
2230,-7.8557,-1.2263,3.2572,-0.8348,-6.3304,0.4174
2235,-7.894,-1.1496,3.2572,-1.2522,-6.1217,0.4174
2240,-7.9323,-1.3412,3.3339,-1.7391,-5.913,0.487
2245,-8.0089,-1.0346,3.3339,-2.087,-5.6348,0.6261
2250,-7.8173,-1.3412,3.3339,-2.2957,-5.4261,0.6261
2255,-7.9706,-1.1879,3.4105,-2.4348,-5.2174,0.6957
2260,-7.8557,-1.2263,3.2955,-2.5043,-5.0087,0.6261
2265,-7.8557,-1.2646,3.2955,-2.6435,-4.9391,0.5565
2270,-7.9323,-1.1879,3.2955,-2.5043,-4.8696,0.5565
2275,-7.9706,-1.4179,3.3722,-2.3652,-4.7304,0.6261
2280,-7.894,-1.2263,3.3339,-2.087,-4.7304,0.6957
2285,-8.0089,-1.1113,3.4105,-1.8087,-4.8696,0.5565
2290,-8.0473,-1.1496,3.2955,-1.2522,-5.1478,0.6261
2295,-8.0089,-1.1496,3.1423,-0.6261,-5.4957,0.4174
2300,-7.9323,-1.1496,3.2572,-0.2783,-5.7043,0.4174
2305,-7.9323,-1.2263,3.2189,-0.0696,-5.913,0.3478
2310,-7.9323,-1.1879,3.2572,0.1391,-5.9826,0.2087
2315,-7.8557,-1.1496,3.3722,0.3478,-5.913,0.1391
2320,-7.9323,-1.2263,3.2189,0.487,-5.8435,0.0
2325,-8.0473,-1.2263,3.1806,0.6957,-5.6348,-0.1391
2330,-7.894,-1.3029,3.3339,0.6957,-5.4261,-0.2783
2335,-7.8557,-1.3029,3.4105,0.9043,-5.0783,-0.3478
2340,-7.8173,-1.1879,3.4871,0.9739,-4.7304,-0.4174
2345,-7.8557,-1.2263,3.1806,1.113,-4.5217,-0.4174
2350,-7.9323,-1.2263,3.2189,1.2522,-4.2435,-0.4174
2355,-7.9323,-1.2646,3.2572,1.3217,-4.0348,-0.3478
2360,-7.9323,-1.1496,3.3339,1.3913,-3.8957,-0.2087
2365,-7.9323,-1.2646,3.2572,1.4609,-3.9652,-0.1391
2370,-7.8557,-1.1879,3.2955,1.4609,-4.0348,-0.1391
2375,-7.8173,-1.1879,3.2955,1.3217,-4.313,0.0696
2380,-7.6641,-1.3029,3.2189,1.2522,-4.4522,0.2087
2385,-7.894,-1.073,3.4488,0.9739,-4.6609,0.2087
2390,-7.8173,-1.1879,3.2955,0.9739,-4.8696,0.3478
2395,-7.7407,-1.2646,3.4488,0.5565,-5.0087,0.3478
2400,-7.894,-1.1113,3.3339,0.3478,-5.0783,0.4174
2405,-7.8173,-1.1113,3.1806,0.0696,-5.287,0.487
2410,-7.779,-1.1113,3.3722,0.0,-5.4261,0.6261
2415,-7.7407,-1.073,3.4871,-0.2087,-5.6348,0.6957
2420,-7.7407,-0.958,3.4105,-0.1391,-5.6348,0.6261
2425,-7.8173,-1.1113,3.5255,-0.1391,-5.7043,0.6261
2430,-7.6257,-1.1496,3.4488,-0.487,-5.6348,0.4174
2435,-7.779,-1.1879,3.5255,-0.5565,-5.4261,0.4174
2440,-7.7024,-0.9197,3.5255,-0.8348,-5.2174,0.3478
2445,-7.779,-1.073,3.6404,-0.9043,-4.9391,0.2783
2450,-7.7407,-1.2263,3.3339,-0.9739,-4.7304,0.1391
2455,-7.7024,-1.1113,3.5638,-1.113,-4.3826,0.0696
2460,-7.7407,-1.1113,3.5255,-1.113,-4.1043,-0.1391
2465,-7.6641,-1.073,3.5638,-1.1826,-3.7565,-0.2087
2470,-7.8173,-1.1879,3.5638,-1.113,-3.2696,-0.2783
2475,-7.8557,-1.073,3.6021,-1.0435,-2.9913,-0.4174
2480,-7.779,-1.1113,3.6404,-0.9739,-2.6435,-0.4174
2485,-7.779,-1.2263,3.4488,-0.9043,-2.3652,-0.4174
2490,-7.8557,-1.1879,3.3722,-0.9739,-2.1565,-0.487
2495,-7.779,-1.1496,3.6021,-1.0435,-1.8783,-0.4174
2500,-7.779,-1.2263,3.2572,-0.9043,-1.6,-0.3478
2505,-7.7024,-1.3029,3.4871,-0.6261,-1.5304,-0.2783
2510,-7.6641,-1.2263,3.4488,-0.3478,-1.4609,-0.2087
2515,-7.6641,-1.1496,3.3722,-0.1391,-1.5304,-0.1391
2520,-7.7407,-1.1879,3.5638,0.2087,-1.8087,0.0
2525,-7.5491,-1.3029,3.6021,0.4174,-2.1565,0.0696
2530,-7.5108,-1.1879,3.4871,0.6957,-2.5043,0.0696
2535,-7.5874,-1.2263,3.2572,0.7652,-2.8522,0.1391
2540,-7.7024,-1.1113,3.4488,0.9043,-3.1304,0.0
2545,-7.4725,-1.1496,3.5638,0.6261,-3.3391,0.0
2550,-7.5874,-1.1496,3.4488,0.487,-3.4783,-0.1391
2555,-7.5874,-1.073,3.4871,0.2087,-3.6174,-0.0696
2560,-7.5491,-1.1496,3.5255,-0.0696,-3.6174,-0.2087
2565,-7.5491,-1.1113,3.6404,-0.3478,-3.4783,-0.2783
2570,-7.5874,-1.1113,3.5255,-0.8348,-3.4087,-0.3478
2575,-7.5874,-1.1879,3.5638,-1.113,-3.2,-0.3478
2580,-7.6641,-1.2646,3.5638,-1.4609,-3.0609,-0.5565
2585,-7.5874,-1.2646,3.6787,-1.6,-2.9217,-0.487
2590,-7.7024,-1.1496,3.6787,-1.8087,-2.8522,-0.5565
2595,-7.6641,-1.1879,3.5255,-1.8783,-2.9217,-0.487
2600,-7.779,-1.1113,3.5255,-1.9478,-2.9913,-0.5565
2605,-7.6257,-1.1113,3.5255,-2.1565,-3.0609,-0.487
2610,-7.6641,-1.1496,3.5255,-2.2261,-3.2696,-0.2783
2615,-7.7024,-1.1496,3.6404,-2.3652,-3.4087,-0.2783
2620,-7.6257,-1.1496,3.6404,-2.5043,-3.4783,-0.2087
2625,-7.779,-1.0346,3.5638,-2.6435,-3.4087,-0.2783
2630,-7.7407,-1.1879,3.5255,-2.8522,-3.2696,-0.2087
2635,-7.7407,-1.073,3.5638,-2.8522,-3.0609,-0.1391
2640,-7.6641,-1.1879,3.4105,-2.9913,-2.7826,-0.0696
2645,-7.779,-1.073,3.4871,-3.1304,-2.4348,-0.0696
2650,-7.6257,-1.1879,3.6787,-3.0609,-2.2261,-0.1391
2655,-7.779,-1.1113,3.4488,-2.7826,-1.9478,-0.0696
2660,-7.7407,-1.1496,3.5638,-2.5043,-1.8087,0.0
2665,-7.8173,-1.1879,3.6021,-2.1565,-1.8783,0.0
2670,-7.7407,-1.1879,3.5255,-1.8783,-2.1565,-0.0696
2675,-7.7407,-1.073,3.5638,-1.3913,-2.3652,-0.1391
2680,-7.779,-1.0346,3.6021,-1.1826,-2.6435,-0.2087
2685,-7.6641,-1.073,3.5255,-0.8348,-2.8522,-0.2087
2690,-7.7024,-1.073,3.4871,-0.6957,-3.1304,-0.2783
2695,-7.779,-1.1113,3.5255,-0.7652,-3.3391,-0.4174
2700,-7.6641,-1.073,3.4871,-0.8348,-3.4783,-0.4174
2705,-7.8173,-1.073,3.6787,-0.9739,-3.4087,-0.4174
2710,-7.8557,-0.8814,3.8704,-1.3217,-3.2,-0.487
2715,-7.8557,-0.958,3.6787,-1.6,-2.8522,-0.487
2720,-7.894,-0.9197,3.6404,-1.9478,-2.2957,-0.6261
2725,-7.9706,-0.9963,3.6787,-2.4348,-1.7391,-0.6957
2730,-7.9323,-0.8814,3.6787,-2.8522,-0.8348,-0.8348
2735,-7.9706,-0.9197,3.7554,-3.2696,0.2087,-0.9043
2740,-8.0856,-0.958,3.6787,-3.6174,1.3217,-1.1826
2745,-8.0089,-0.9963,3.7554,-3.8957,2.2957,-1.2522
2750,-8.0473,-1.0346,3.6787,-4.2435,3.4783,-1.5304
2755,-8.1622,-0.958,3.7937,-4.5913,4.5913,-1.6696
2760,-8.3155,-0.8047,3.7554,-5.0087,5.7739,-1.8783
2765,-8.3538,-0.843,3.7937,-5.4261,6.8174,-2.2261
2770,-8.3538,-0.9963,3.7937,-5.5652,7.9304,-2.6435
2775,-8.2772,-1.1113,3.6787,-5.7043,8.9739,-3.1304
2780,-8.5071,-0.843,3.6404,-5.5652,9.6,-3.7565
2785,-8.5454,-0.958,3.7171,-5.4957,10.087,-4.2435
2790,-8.5071,-0.958,3.7937,-5.1478,10.087,-4.8696
2795,-8.4688,-0.958,3.7937,-4.9391,9.9478,-5.5652
2800,-8.6604,-0.958,3.947,-4.8696,9.9478,-6.0522
2805,-8.6987,-0.8814,3.8704,-5.0783,9.8087,-6.7478
2810,-8.6987,-0.9963,3.947,-5.2174,9.3913,-7.3043
2815,-8.6987,-0.8047,3.7937,-5.7739,8.8348,-8.0
2820,-8.6221,-1.1113,3.947,-6.2609,8.0696,-8.6261
2825,-8.6604,-0.958,3.832,-6.9565,6.8174,-9.0435
2830,-8.5838,-1.0346,3.832,-7.5826,5.6348,-9.5304
2835,-8.5454,-0.958,3.8704,-8.0,4.1043,-9.8783
2840,-8.5071,-1.0346,3.9087,-8.3478,2.7826,-10.0174
2845,-8.5838,-0.8814,3.7937,-8.7652,1.7391,-10.1565
2850,-8.5454,-0.9197,3.7171,-8.9043,1.3913,-10.2957
2855,-8.6987,-0.8814,3.5638,-9.3913,1.6,-10.3652
2860,-8.4305,-0.9197,3.5255,-10.087,2.2261,-10.5739
2865,-8.5071,-0.8814,3.4105,-11.2,2.8522,-10.713
2870,-8.3538,-0.9197,3.1806,-12.5217,3.6174,-10.7826
2875,-8.4305,-0.958,3.1039,-13.7043,4.5217,-10.713
2880,-8.2389,-1.2263,2.9507,-14.3304,5.4957,-10.713
2885,-8.0856,-1.2646,2.8357,-14.3304,6.6783,-10.5739
2890,-8.0473,-1.2263,2.6824,-13.7043,7.7913,-10.087
2895,-8.0089,-1.3795,2.7207,-12.5913,8.8348,-9.7391
2900,-7.9706,-1.3412,2.5675,-11.1304,9.5304,-9.2522
2905,-7.9706,-1.4179,2.5675,-9.8783,9.9478,-8.6261
2910,-7.9706,-1.4179,2.4525,-8.487,9.8087,-7.5826
2915,-7.7024,-1.4945,2.4142,-7.1652,9.0435,-6.4696
2920,-7.7024,-1.4179,2.2992,-5.9826,7.9304,-5.2174
2925,-7.9323,-1.073,2.2992,-4.9391,6.6087,-3.9652
2930,-7.6641,-1.073,2.2226,-4.0348,5.4957,-2.9913
2935,-7.7407,-1.073,2.4525,-3.1304,4.2435,-2.2261
2940,-7.8173,-0.9963,2.4525,-2.0174,2.713,-1.6696
2945,-7.9323,-0.9963,2.4142,-0.7652,0.487,-1.3217
2950,-7.9323,-1.2263,2.4525,0.7652,-2.9217,-1.1826
2955,-7.9706,-1.2263,2.4908,2.087,-6.9565,-1.2522
2960,-8.0473,-1.1113,2.4525,2.8522,-10.2957,-1.7391
2965,-8.0856,-0.9963,2.4525,2.2957,-11.9652,-2.5739
2970,-8.4688,-0.9197,2.4142,0.9739,-11.4783,-3.6174
2975,-8.5071,-0.958,2.6824,-0.2087,-9.7391,-4.8696
2980,-8.3921,-1.1879,2.7591,-0.2783,-8.5565,-6.1217
2985,-8.6604,-1.5328,2.874,1.1826,-9.3217,-7.3043
2990,-8.6604,-1.8394,2.7207,3.9652,-12.3826,-8.0696
2995,-8.8137,-1.9543,2.5675,7.5826,-17.1826,-8.6261
