timestamp,accX,accY,accZ,gyroX,gyroY,gyroZ
0,0.2299,-6.8977,-6.3229,67.4087,-6.5391,-1.7391
5,0.2299,-6.9743,-6.4378,67.7565,-7.1652,-1.6696
10,0.2299,-7.0126,-6.6294,68.1739,-7.6522,-1.0435
15,0.2682,-7.2809,-6.7444,69.0087,-7.9304,-0.6957
20,0.3066,-7.3575,-6.8977,69.9826,-8.0696,0.0
25,0.3449,-7.4341,-6.821,71.7217,-8.0696,0.5565
30,0.1916,-7.5491,-6.9743,73.3913,-8.0696,1.3913
35,0.3832,-7.5491,-7.0509,74.9217,-8.0,1.8783
40,0.2299,-7.6641,-7.1276,75.9652,-8.1391,2.2957
45,0.1533,-7.5491,-7.0509,76.6609,-8.2087,2.2261
50,0.0766,-7.4725,-7.2042,76.313,-8.487,2.2957
55,0.115,-7.4725,-7.2809,75.3391,-8.3478,2.087
60,0.115,-7.4341,-7.1659,73.8087,-8.0696,2.1565
65,0.115,-7.5108,-7.3192,71.8609,-7.3043,2.0174
70,0.0,-7.3958,-7.2425,69.8435,-6.3304,2.1565
75,0.0383,-7.5108,-7.1276,67.9652,-5.3565,2.087
80,0.0383,-7.5108,-7.3192,66.2957,-4.3826,2.087
85,0.0766,-7.5108,-7.1276,65.0435,-3.5478,1.9478
90,0.0766,-7.6257,-7.2425,64.2087,-2.4348,1.9478
95,0.1533,-7.7407,-7.2042,63.5826,-1.3913,1.7391
100,0.1533,-7.894,-7.1276,63.6522,-0.487,1.8087
105,0.115,-8.0089,-6.936,63.8609,0.4174,2.087
110,0.2682,-8.1622,-6.7827,64.6261,0.9739,2.6435
115,0.1916,-8.2772,-6.5528,65.6696,1.3217,2.9217
120,0.0383,-8.3921,-6.7444,67.1304,1.4609,3.4087
125,0.1916,-8.3921,-6.4378,68.5217,1.1826,3.7565
130,0.0383,-8.3155,-6.1696,69.9826,0.7652,4.313
135,-0.0766,-8.3538,-6.0163,71.3043,0.0,4.8
140,-0.0766,-8.3538,-5.9396,72.3478,-0.7652,5.3565
145,0.0,-8.3921,-5.748,72.6261,-1.3913,5.6348
150,-0.0383,-8.1239,-5.5181,72.5565,-1.7391,5.913
155,-0.1533,-8.1239,-5.3648,71.7217,-2.1565,6.1913
160,-0.115,-8.1622,-5.2116,70.6087,-2.3652,6.1913
165,-0.2299,-8.1239,-5.02,69.0783,-2.7826,5.9826
170,-0.1533,-8.0856,-5.0583,67.687,-3.5478,6.1913
175,-0.3449,-7.9706,-4.9433,66.2261,-4.313,6.0522
180,-0.2682,-7.9706,-4.7134,64.9739,-5.1478,6.0522
185,-0.0766,-8.0089,-4.6751,63.3043,-6.1217,5.9826
190,-0.2299,-8.0473,-4.5984,61.7739,-6.4,6.0522
195,-0.115,-7.9706,-4.6751,60.3826,-6.5391,5.9826
200,-0.1533,-8.0856,-4.5218,58.8522,-6.4,5.913
205,0.0,-8.1239,-4.4452,57.4609,-6.4696,5.7043
210,0.0766,-8.1239,-4.5601,55.9304,-6.3304,5.4957
215,0.0766,-8.4305,-4.4452,54.4696,-5.9826,5.4261
220,0.1533,-8.4688,-4.5984,53.2174,-5.5652,5.287
225,0.2682,-8.6221,-4.5601,52.0348,-4.8696,5.0783
230,0.3066,-8.737,-4.5601,51.2696,-4.1043,4.8696
235,0.4982,-8.9286,-4.5601,50.6435,-3.4783,4.5913
240,0.4215,-8.9286,-4.6368,50.4348,-2.4348,4.2435
245,0.5748,-8.967,-4.79,50.5739,-1.4609,4.1739
250,0.6898,-9.0819,-4.6368,50.713,-0.2087,4.1043
255,0.6514,-9.1586,-4.5601,50.9913,1.1826,4.0348
260,0.6898,-9.1969,-4.6368,51.0609,1.8783,4.2435
265,0.6898,-9.2735,-4.5218,50.8522,2.713,4.4522
270,0.7281,-9.1969,-4.4452,50.2261,3.1304,4.8
275,0.8814,-9.3502,-4.6751,49.113,3.3391,5.1478
280,0.958,-9.2352,-4.5984,47.5826,3.5478,5.287
285,0.843,-9.2735,-4.5984,46.3304,3.9652,5.4261
290,0.8814,-9.1969,-4.6368,45.2174,4.0348,5.7043
295,0.7281,-9.0819,-4.6751,44.2435,4.1043,5.913
300,0.9197,-9.1202,-4.6368,43.6174,4.313,6.0522
305,0.8047,-9.0819,-4.5601,43.0609,5.0087,6.2609
310,0.6514,-9.1202,-4.5601,42.8522,5.4261,6.2609
315,0.7281,-9.0436,-4.6751,43.0609,5.7043,6.5391
320,0.7281,-9.0053,-4.4835,43.4087,5.913,6.0522
325,0.6514,-9.1202,-4.5218,44.0348,6.0522,5.8435
330,0.5748,-8.967,-4.5984,44.8,6.0522,5.913
335,0.4598,-8.967,-4.2919,45.2174,5.8435,5.8435
340,0.3066,-9.0053,-4.2536,45.4261,5.4957,5.7739
345,0.0766,-8.852,-4.2536,45.3565,4.6609,5.4261
350,0.1533,-8.8137,-4.0236,44.7304,3.8261,5.0087
355,0.0383,-8.8903,-4.0236,43.8957,2.5043,4.8696
360,-0.0383,-8.737,-3.9853,42.8522,1.2522,4.3826
365,-0.2682,-8.8137,-3.9087,41.4609,0.2087,4.1739
370,-0.2299,-8.6987,-3.8704,39.4435,-1.3217,3.4087
375,-0.3832,-8.6987,-3.832,36.3826,-2.1565,3.2
380,-0.4982,-8.5838,-4.1003,33.9478,-2.8522,2.9217
385,-0.5748,-8.6987,-4.062,31.8609,-3.2,2.713
390,-0.5365,-8.6221,-3.947,29.913,-3.2696,2.0174
395,-0.6514,-8.6221,-4.0236,28.1739,-2.9913,1.6696
400,-0.7664,-8.737,-4.1003,26.6435,-2.5739,1.3217
405,-0.5748,-8.7754,-4.0236,25.2522,-2.0174,1.1826
410,-0.6514,-8.8137,-3.947,24.1391,-1.3913,0.6957
415,-0.5365,-8.8137,-3.9087,23.0261,-0.9739,0.7652
420,-0.4598,-8.852,-3.7937,21.4957,-0.6957,0.8348
425,-0.4598,-9.0053,-3.947,20.4522,-0.487,1.1826
430,-0.4598,-9.1202,-3.9087,19.6174,-0.1391,1.1826
435,-0.4215,-9.1202,-3.6021,18.9913,0.2087,1.3913
440,-0.3832,-9.2352,-3.7171,18.6435,0.7652,1.0435
445,-0.4215,-9.2352,-3.7937,18.8522,1.1826,1.3913
450,-0.3066,-9.3502,-3.832,19.0609,1.5304,1.3217
455,-0.3066,-9.3885,-3.4871,19.2696,2.2261,1.3217
460,-0.4215,-9.5034,-3.5255,19.7565,2.7826,1.113
465,-0.3449,-9.5034,-3.4871,20.0348,3.4087,1.113
470,-0.3832,-9.4651,-3.4871,20.313,3.8957,1.0435
475,-0.3832,-9.3885,-3.5638,20.5913,4.313,1.1826
480,-0.3449,-9.3502,-3.4105,20.8,4.7304,1.1826
485,-0.4215,-9.3118,-3.1039,20.9391,5.3565,1.4609
490,-0.4215,-9.2735,-3.1423,21.3565,5.7043,1.5304
495,-0.1916,-9.1969,-3.2572,21.4957,5.913,1.9478
500,-0.4215,-9.1202,-3.2189,21.4261,6.2609,1.8783
505,-0.2299,-9.2352,-2.989,21.3565,6.6087,2.087
510,-0.3066,-9.1202,-2.874,21.0087,6.7478,2.1565
515,-0.3066,-9.0053,-3.0273,20.2435,6.8174,2.2957
520,-0.115,-9.2352,-2.989,19.4783,6.5391,2.2261
525,-0.1533,-9.1586,-2.9507,18.7826,5.913,1.8087
530,-0.1533,-9.1969,-2.9123,18.1565,5.0783,1.6696
535,-0.115,-9.1969,-3.0273,17.6,4.3826,1.9478
540,-0.0766,-9.1586,-2.9507,17.0435,3.9652,1.7391
545,-0.115,-9.1586,-3.1039,16.6261,3.6174,1.7391
550,-0.0383,-9.2735,-3.0273,16.2783,3.5478,1.3913
555,-0.115,-9.1969,-3.0273,16.0696,3.3391,1.3217
560,-0.0383,-9.3118,-2.9507,15.9304,3.0609,1.113
565,-0.0383,-9.3885,-2.9123,15.8609,2.9913,1.2522
570,-0.1533,-9.4651,-2.8357,15.9304,2.9913,0.9739
575,-0.1916,-9.4651,-2.9123,15.7217,2.9217,1.113
580,-0.1533,-9.3502,-2.874,15.513,2.5043,0.9043
585,-0.115,-9.4268,-2.8357,15.4435,2.087,0.7652
590,-0.2299,-9.4651,-2.9123,15.3739,1.8087,0.6261
595,-0.2299,-9.4651,-2.7974,15.1652,1.7391,0.7652
600,-0.2299,-9.4268,-2.9507,14.9565,1.6,0.6957
605,-0.1916,-9.4268,-2.7591,14.6087,1.6,0.9043
610,-0.2299,-9.4651,-2.989,14.2609,1.3913,0.9043
615,-0.1533,-9.5034,-2.874,13.9826,1.3217,1.1826
620,-0.1533,-9.3502,-2.9123,13.7043,1.113,0.9043
625,-0.115,-9.3118,-2.8357,13.2174,0.6261,0.9739
630,-0.0766,-9.3885,-2.874,12.5913,0.2783,1.0435
635,0.0,-9.3118,-2.874,12.1043,0.0,0.9739
640,-0.0766,-9.2352,-2.9507,11.4087,0.0696,0.487
645,0.0383,-9.2352,-2.874,10.7826,0.2783,0.2087
650,-0.1533,-9.2735,-2.8357,10.3652,0.5565,-0.4174
655,-0.0383,-9.1586,-2.9123,10.2261,0.7652,-0.6957
660,0.0383,-9.3118,-2.9507,10.0174,0.7652,-1.3217
665,-0.1916,-9.1969,-3.0273,9.8783,0.9043,-1.5304
670,-0.0766,-9.1586,-2.989,9.7391,0.9739,-1.8783
675,-0.115,-9.0819,-3.1039,9.4609,1.2522,-2.087
680,-0.1916,-8.9286,-2.989,9.2522,1.6696,-2.4348
685,-0.2682,-8.967,-2.7974,8.5565,2.087,-2.5043
690,-0.2682,-9.0436,-2.9507,7.7217,2.4348,-2.7826
695,-0.2682,-8.852,-2.9507,6.4696,2.6435,-2.8522
700,-0.2682,-8.967,-2.7591,5.2174,2.5739,-3.1304
705,-0.1533,-8.9286,-2.9507,3.7565,2.2261,-3.2696
710,-0.2299,-8.9286,-2.9507,2.0174,1.8783,-3.6174
715,-0.1916,-9.0436,-3.0273,0.4174,1.3913,-3.7565
720,-0.1533,-9.1969,-3.0273,-1.2522,1.0435,-3.9652
725,-0.115,-9.0819,-2.9123,-2.5739,0.7652,-4.1043
730,0.0,-9.2352,-3.0273,-3.6174,0.9739,-4.4522
735,0.0,-9.2352,-2.874,-4.4522,0.9739,-4.4522
740,0.1533,-9.3885,-2.989,-4.9391,1.1826,-4.5913
745,0.2299,-9.4268,-3.0273,-5.1478,1.3913,-4.5217
750,0.1533,-9.4268,-2.9507,-5.4957,1.7391,-4.4522
755,0.2682,-9.3885,-3.0656,-5.5652,2.0174,-4.1739
760,0.3066,-9.3118,-3.0273,-5.6348,2.3652,-4.1739
765,0.3066,-9.4651,-3.1039,-5.7043,3.1304,-3.8957
770,0.3832,-9.5801,-3.0273,-5.6348,4.0348,-3.7565
775,0.3832,-9.5418,-2.989,-6.0522,4.8696,-3.4783
780,0.5365,-9.5418,-3.0656,-6.3304,5.4957,-3.4087
785,0.3832,-9.4268,-3.1039,-6.7478,5.913,-3.2696
790,0.4215,-9.3885,-3.2189,-6.9565,5.8435,-3.4783
795,0.1916,-9.3118,-3.3339,-7.2348,5.4261,-3.3391
800,0.1533,-9.3118,-3.3722,-7.513,5.0087,-3.4087
805,0.0766,-9.3502,-3.5255,-7.5826,4.6609,-3.4087
810,-0.0766,-9.3885,-3.4488,-7.0957,4.313,-3.687
815,-0.0766,-9.3502,-3.2189,-6.3304,4.2435,-3.9652
820,-0.2299,-9.5034,-3.3722,-5.4261,3.9652,-4.3826
825,-0.3066,-9.5034,-3.2955,-4.8,3.9652,-4.8
830,-0.3832,-9.5801,-3.1806,-3.8261,3.7565,-5.0087
835,-0.3832,-9.5418,-3.2572,-3.2,3.4087,-5.0783
840,-0.3832,-9.5034,-3.0656,-2.9913,2.7826,-5.0783
845,-0.4215,-9.4268,-3.2189,-2.8522,2.087,-5.0783
850,-0.3832,-9.3885,-3.1806,-2.9217,1.5304,-4.9391
855,-0.3449,-9.3118,-3.1039,-3.1304,1.0435,-4.6609
860,-0.3066,-9.3118,-3.2189,-3.5478,0.6957,-4.3826
865,-0.3449,-9.2735,-3.2189,-4.0348,0.5565,-4.1043
870,-0.3449,-9.2735,-3.1806,-4.3826,0.3478,-3.687
875,-0.1533,-9.3118,-3.0273,-5.0087,0.3478,-3.687
880,-0.2299,-9.3502,-3.2189,-5.3565,0.2783,-3.3391
885,-0.0766,-9.4651,-3.0656,-5.4261,0.3478,-3.0609
890,-0.115,-9.4651,-3.1423,-5.4957,0.4174,-2.8522
895,-0.0766,-9.4651,-3.1039,-5.2174,0.6261,-2.5739
900,-0.0383,-9.5418,-2.989,-4.8696,0.9739,-2.2957
905,-0.0383,-9.4651,-3.1039,-4.5217,1.3913,-2.2261
910,0.0,-9.5801,-3.0273,-3.9652,1.9478,-2.087
915,0.0383,-9.5418,-3.0273,-3.2696,2.6435,-2.087
920,0.0383,-9.5034,-3.0273,-2.8522,3.3391,-1.9478
925,0.115,-9.4651,-3.0656,-2.3652,4.0348,-2.0174
930,0.0,-9.5418,-3.0273,-1.7391,4.5217,-2.087
935,0.0383,-9.6567,-3.0273,-1.5304,5.1478,-2.4348
940,0.0,-9.6567,-2.9123,-1.3913,5.5652,-2.713
945,0.0383,-9.6567,-2.989,-1.0435,5.7043,-3.0609
950,0.0,-9.5418,-3.0273,-0.8348,5.913,-3.3391
955,-0.115,-9.6567,-3.2572,-0.6957,5.913,-3.7565
960,-0.0383,-9.4268,-3.2189,-0.5565,5.913,-3.8957
965,-0.115,-9.4651,-3.1806,-0.6261,5.8435,-4.1739
970,-0.1916,-9.4651,-3.4105,-0.6261,5.7043,-4.0348
975,-0.1916,-9.3885,-3.1423,-0.5565,5.4957,-3.8261
980,-0.0766,-9.4268,-3.2955,-0.2783,5.1478,-3.4087
985,-0.0383,-9.4268,-3.3722,-0.0696,5.287,-3.1304
990,0.0383,-9.4268,-3.2955,0.0696,5.1478,-2.713
995,0.1533,-9.4268,-3.1423,0.2783,5.0087,-2.2261
1000,0.0,-9.3118,-3.1423,0.5565,4.8696,-1.7391
1005,0.1533,-9.3118,-2.989,0.4174,4.7304,-1.3913
1010,0.3066,-9.3885,-3.0656,0.2087,4.5913,-0.9043
1015,0.3832,-9.4268,-2.9123,-0.2087,4.4522,-0.5565
1020,0.3832,-9.1586,-2.9507,-1.1826,4.4522,-0.2087
1025,0.4215,-9.0819,-2.9507,-2.087,4.3826,-0.1391
1030,0.4215,-9.2352,-2.874,-3.0609,4.3826,0.2087
1035,0.4215,-9.1969,-3.0656,-4.0348,4.1739,0.3478
1040,0.3832,-9.3118,-3.1806,-4.9391,3.9652,0.6957
1045,0.3066,-9.1969,-3.0656,-5.6348,3.8261,0.6261
1050,0.3449,-9.2735,-3.2572,-6.0522,3.7565,0.7652
1055,0.3066,-9.2735,-3.3339,-6.1913,3.4783,0.487
1060,0.3449,-9.3118,-3.3339,-5.9826,3.3391,0.5565
1065,0.2299,-9.3118,-3.2572,-5.3565,3.2,0.3478
1070,0.1916,-9.4268,-3.3339,-4.5217,3.0609,0.4174
1075,0.115,-9.3118,-3.3722,-3.8957,2.9913,0.2087
1080,0.0383,-9.3885,-3.4488,-3.4783,3.0609,0.2783
1085,0.0383,-9.2735,-3.2572,-3.4087,3.0609,0.2087
1090,-0.0383,-9.4268,-3.4105,-3.5478,2.9217,0.5565
1095,-0.115,-9.5034,-3.2955,-3.8957,2.8522,0.487
1100,-0.0766,-9.4651,-3.2189,-4.1043,2.6435,0.7652
1105,-0.115,-9.4268,-3.3339,-4.1739,2.5739,0.6261
1110,-0.1533,-9.6184,-3.2572,-4.1739,2.3652,0.8348
1115,-0.1916,-9.5034,-3.3722,-3.687,2.2957,0.8348
1120,-0.1533,-9.5034,-3.3339,-3.3391,2.4348,1.0435
1125,-0.1916,-9.4651,-3.3339,-2.6435,2.5043,0.7652
1130,-0.0383,-9.5034,-3.2189,-2.1565,2.6435,0.9739
1135,-0.0766,-9.4651,-3.2572,-1.6,2.8522,0.6261
1140,-0.0766,-9.5034,-3.3339,-1.0435,3.1304,0.6957
1145,-0.0383,-9.3885,-3.3722,-0.6957,3.2696,0.5565
1150,0.0,-9.3118,-3.3339,-0.4174,3.5478,0.7652
1155,0.0383,-9.3118,-3.3339,-0.2087,3.687,0.7652
1160,0.1533,-9.3502,-3.1806,-0.1391,3.8957,0.9043
1165,0.1916,-9.3502,-3.1423,-0.0696,4.0348,0.8348
1170,0.2299,-9.3502,-3.2572,0.0,4.313,1.1826
1175,0.2299,-9.3885,-3.1423,0.0696,4.5913,1.113
1180,0.2299,-9.3502,-3.2189,0.0,4.8,1.2522
1185,0.1916,-9.3118,-3.1423,0.0,5.1478,1.2522
1190,0.115,-9.3885,-3.1806,-0.0696,5.287,1.5304
1195,0.0766,-9.2352,-3.2572,-0.2783,5.4957,1.4609
1200,0.0383,-9.3118,-3.1806,-0.4174,5.6348,1.8087
1205,0.0766,-9.2735,-3.4105,-0.6261,5.5652,1.6
1210,0.0383,-9.3118,-3.1423,-0.8348,5.4957,1.7391
1215,-0.0383,-9.3118,-3.1806,-1.0435,5.4957,1.6
1220,-0.0383,-9.3502,-3.1806,-1.1826,5.4261,1.7391
1225,-0.115,-9.3118,-3.2572,-1.4609,5.4261,1.4609
1230,-0.0766,-9.4268,-3.2189,-1.7391,5.5652,1.6
1235,-0.0766,-9.2735,-3.1806,-2.087,5.8435,1.4609
1240,-0.115,-9.3502,-3.2189,-2.5043,5.913,1.3913
1245,-0.2299,-9.3118,-3.2189,-2.8522,5.913,1.2522
1250,-0.2299,-9.3885,-3.2572,-2.9913,5.913,1.3217
1255,-0.2682,-9.4268,-3.3339,-2.9913,5.7043,1.113
1260,-0.2682,-9.3885,-3.1806,-2.7826,5.4957,1.2522
1265,-0.115,-9.4268,-3.2189,-2.2957,5.3565,0.9739
1270,-0.1916,-9.3885,-3.4488,-1.7391,5.1478,0.9043
1275,-0.1533,-9.2735,-3.3722,-1.2522,5.0087,0.5565
1280,-0.1533,-9.5418,-3.2189,-1.0435,4.8696,0.5565
1285,-0.0383,-9.3885,-3.2955,-1.113,4.6609,0.2783
1290,-0.0383,-9.3118,-3.3339,-1.113,4.4522,0.3478
1295,-0.0383,-9.3118,-3.3339,-1.0435,4.313,0.1391
1300,-0.0383,-9.3885,-3.3339,-1.0435,4.5217,0.487
1305,-0.0383,-9.4268,-3.3339,-1.113,4.6609,0.3478
1310,0.0,-9.3502,-3.2189,-1.0435,4.9391,0.5565
1315,-0.0766,-9.3885,-3.1806,-1.2522,5.1478,0.487
1320,-0.0766,-9.4651,-3.1423,-1.3913,5.287,0.6261
1325,-0.0383,-9.3885,-3.1039,-1.3913,5.6348,0.5565
1330,0.0766,-9.4651,-3.2955,-1.4609,5.9826,0.7652
1335,-0.0766,-9.3885,-3.1806,-1.3913,6.1913,0.6957
1340,-0.0383,-9.5034,-3.2572,-1.2522,6.4,0.8348
1345,0.0766,-9.4268,-3.3722,-1.2522,6.4696,0.6957
1350,0.1533,-9.3502,-3.1039,-1.113,6.4,0.9043
1355,0.0,-9.2735,-3.2955,-1.1826,6.4696,0.6957
1360,0.0383,-9.4268,-3.2189,-1.0435,6.4,0.9739
1365,0.0766,-9.4268,-3.0656,-0.7652,6.4,0.9043
1370,0.115,-9.4268,-3.3339,-0.2783,6.4696,0.9043
1375,0.0766,-9.4651,-3.2955,-0.1391,6.7478,0.7652
1380,0.0766,-9.4651,-3.1806,0.2783,7.0261,0.7652
1385,0.115,-9.4651,-3.1423,0.6261,7.3739,0.487
1390,0.0383,-9.4268,-3.1806,0.7652,7.6522,0.487
1395,0.115,-9.4268,-3.3339,1.1826,7.9304,0.487
1400,0.1916,-9.3502,-3.1806,1.4609,8.0696,0.5565
1405,0.0383,-9.3502,-3.1806,1.5304,8.2087,0.5565
1410,0.1533,-9.4651,-3.1806,1.6696,8.4174,0.6957
1415,0.0766,-9.3118,-3.1423,1.6696,8.3478,0.6957
1420,0.0,-9.3885,-3.1806,1.5304,8.2087,0.7652
1425,0.0766,-9.3885,-3.1039,1.3217,8.0,0.8348
1430,0.115,-9.3502,-3.1423,0.9739,7.6522,0.9739
1435,-0.0383,-9.2735,-3.1423,0.7652,7.513,0.9043
1440,0.0,-9.4268,-3.2189,0.5565,7.1652,0.9739
1445,0.0383,-9.3502,-3.2572,0.4174,6.887,0.9043
1450,0.0,-9.2352,-3.1423,0.4174,6.5391,0.9043
1455,0.0,-9.4651,-3.1423,0.4174,6.4696,0.8348
1460,0.0766,-9.3885,-3.0273,0.2783,6.2609,0.7652
1465,-0.0766,-9.4268,-3.0273,0.2087,6.3304,0.6261
1470,-0.0383,-9.3885,-3.2955,0.2087,6.1913,0.5565
1475,0.0383,-9.3885,-3.0273,0.0696,6.1217,0.5565
1480,0.0766,-9.4268,-2.989,-0.2783,6.1217,0.5565
1485,0.115,-9.3885,-3.3339,-0.487,6.2609,0.3478
1490,0.0383,-9.4651,-3.2189,-0.6957,6.1913,0.3478
1495,0.1533,-9.3502,-3.1039,-0.7652,6.2609,0.2783
1500,-0.0383,-9.3502,-3.1039,-0.7652,6.1217,0.2087
1505,0.0383,-9.4651,-3.1806,-0.6957,6.2609,0.2087
1510,0.0766,-9.3118,-3.2189,-0.6957,6.5391,0.2783
1515,0.1533,-9.4268,-3.2572,-0.6957,6.6087,0.2087
1520,0.115,-9.4268,-3.1806,-0.5565,6.6783,0.3478
1525,0.0766,-9.4268,-3.3339,-0.487,6.6087,0.2783
1530,0.0383,-9.4268,-3.3722,-0.4174,6.6783,0.4174
1535,0.0,-9.3502,-3.3339,-0.5565,6.5391,0.487
1540,0.0383,-9.3502,-3.2955,-0.4174,6.3304,0.487
1545,0.0,-9.3502,-3.1806,-0.4174,6.1217,0.6261
1550,-0.115,-9.4268,-3.4871,-0.3478,5.9826,0.5565
1555,0.0,-9.4651,-3.2955,-0.4174,5.8435,0.6957
1560,-0.1533,-9.3502,-3.3339,-0.4174,5.6348,0.6261
1565,-0.0383,-9.4268,-3.2572,-0.4174,5.5652,0.6261
1570,-0.115,-9.5418,-3.1423,-0.487,5.5652,0.5565
1575,-0.0766,-9.5034,-3.2189,-0.5565,5.6348,0.487
1580,-0.115,-9.3885,-3.3339,-0.6957,5.7043,0.3478
1585,-0.115,-9.4268,-3.2189,-0.6957,5.6348,0.2783
1590,-0.115,-9.5034,-3.2572,-0.6261,5.7043,0.1391
1595,-0.0766,-9.3885,-3.2572,-0.5565,5.8435,0.1391
1600,-0.0766,-9.3885,-3.2572,-0.5565,5.913,0.0696
1605,-0.1533,-9.4651,-3.3339,-0.487,6.0522,0.0696
1610,-0.1533,-9.4268,-3.2189,-0.4174,6.1913,-0.1391
1615,0.0766,-9.5034,-3.2955,-0.4174,6.3304,0.0
1620,-0.0766,-9.3502,-3.4488,-0.5565,6.3304,-0.0696
1625,-0.1533,-9.3885,-3.2572,-0.8348,6.3304,0.0
1630,-0.0383,-9.3885,-3.2189,-0.9043,6.3304,0.0
1635,-0.0383,-9.3502,-3.2189,-1.113,6.2609,0.0696
1640,-0.0383,-9.4651,-3.1423,-1.0435,6.3304,0.0696
1645,0.0,-9.3885,-3.2572,-0.9739,6.2609,0.0696
1650,-0.0766,-9.4268,-3.2572,-0.7652,6.0522,-0.0696
1655,0.0383,-9.4651,-3.1039,-0.6261,5.913,0.0696
1660,-0.1533,-9.4268,-3.2189,-0.2783,5.913,-0.1391
1665,-0.1533,-9.4651,-3.2189,-0.0696,5.913,-0.1391
1670,-0.0766,-9.4268,-3.1806,0.0,5.7739,-0.2783
1675,-0.0766,-9.4651,-3.1039,0.0,5.6348,-0.1391
1680,-0.1533,-9.3118,-3.2189,-0.0696,5.4957,-0.2087
1685,-0.1916,-9.3885,-3.3339,-0.3478,5.2174,-0.1391
1690,-0.0383,-9.4651,-3.1806,-0.487,5.2174,-0.3478
1695,0.0383,-9.5034,-3.1806,-0.6261,5.1478,-0.2087
1700,-0.0383,-9.3885,-3.4105,-0.6261,5.287,-0.3478
1705,-0.1533,-9.3885,-3.3339,-0.6261,5.4261,-0.2783
1710,-0.115,-9.4651,-3.2189,-0.487,5.5652,-0.487
1715,0.0,-9.5418,-3.1806,-0.487,5.6348,-0.4174
1720,-0.0383,-9.4268,-3.2955,-0.4174,5.913,-0.487
1725,0.0,-9.3502,-3.2572,-0.3478,6.0522,-0.2783
1730,0.0,-9.3502,-3.3722,-0.487,6.2609,-0.4174
1735,0.0383,-9.3885,-3.2572,-0.5565,6.6087,-0.3478
1740,0.0766,-9.4651,-3.3722,-0.6957,6.7478,-0.5565
1745,0.0383,-9.4268,-3.2189,-0.8348,7.0261,-0.5565
1750,0.0383,-9.4268,-3.1806,-1.0435,7.3043,-0.8348
1755,0.115,-9.3885,-3.2572,-1.0435,7.513,-0.8348
1760,0.115,-9.3502,-3.3339,-1.0435,7.7913,-1.0435
1765,0.2299,-9.4651,-3.2189,-0.7652,8.0,-0.9043
1770,0.1533,-9.3885,-3.2189,-0.487,8.0696,-1.113
1775,0.115,-9.3502,-3.1039,-0.2783,8.1391,-0.8348
1780,0.115,-9.4268,-3.1806,-0.0696,8.1391,-0.9739
1785,0.1916,-9.4268,-3.1423,-0.0696,8.1391,-0.6957
1790,0.0766,-9.3118,-3.1806,-0.2783,7.8609,-0.7652
1795,0.0383,-9.3885,-3.2572,-0.4174,7.5826,-0.487
1800,0.0766,-9.3885,-3.1423,-0.6261,7.1652,-0.4174
1805,0.0,-9.4268,-3.2955,-0.9739,6.8174,-0.2087
1810,-0.0383,-9.4268,-3.0273,-1.1826,6.6087,-0.2087
1815,-0.0766,-9.4651,-3.2955,-1.2522,6.3304,0.0
1820,-0.115,-9.2735,-3.2572,-1.1826,6.0522,-0.0696
1825,0.0383,-9.4651,-3.2572,-1.2522,5.9826,0.2783
1830,-0.115,-9.3502,-3.2189,-1.0435,5.913,0.2087
1835,-0.115,-9.3118,-3.2572,-0.9739,5.913,0.3478
1840,-0.0766,-9.3502,-3.2189,-0.7652,5.9826,0.1391
1845,-0.0383,-9.4268,-3.2572,-0.7652,6.1217,0.2087
1850,0.0,-9.3502,-3.1806,-0.7652,6.1217,-0.0696
1855,0.0,-9.2352,-3.3722,-0.9739,6.1217,-0.0696
1860,0.0383,-9.3502,-3.2189,-1.113,6.1913,-0.3478
1865,0.0766,-9.4268,-3.2572,-1.5304,6.1913,-0.2087
1870,0.115,-9.4651,-3.2189,-1.7391,6.1913,-0.487
1875,0.0766,-9.4651,-3.1806,-1.6,6.2609,-0.3478
1880,0.0,-9.3885,-3.4105,-1.6,6.3304,-0.487
1885,0.2299,-9.4268,-3.2189,-1.4609,6.1913,-0.4174
1890,0.1533,-9.3885,-3.3722,-1.3217,6.2609,-0.6261
1895,0.1533,-9.5418,-3.0656,-1.2522,6.2609,-0.4174
1900,0.1533,-9.4268,-3.2572,-1.0435,6.3304,-0.5565
1905,0.0,-9.5034,-3.2572,-0.9043,6.4,-0.2783
1910,0.1533,-9.5034,-3.2189,-0.5565,6.4,-0.3478
1915,0.0383,-9.5034,-3.1039,-0.5565,6.1913,-0.0696
1920,0.0383,-9.5034,-3.0656,-0.2783,6.1217,-0.2087
1925,0.1533,-9.5418,-3.1039,-0.0696,5.9826,0.1391
1930,0.0383,-9.4268,-3.1039,0.2087,5.8435,-0.0696
1935,0.115,-9.4268,-3.2189,0.4174,5.7043,0.2087
1940,-0.0383,-9.4651,-3.1806,0.487,5.5652,0.0696
1945,0.0383,-9.4268,-3.1423,0.5565,5.4261,0.2783
1950,0.0383,-9.4268,-3.1806,0.7652,5.3565,0.1391
1955,-0.0383,-9.4651,-3.2189,0.8348,5.3565,0.3478
1960,0.0766,-9.3502,-2.989,0.8348,5.4261,0.1391
1965,0.0383,-9.3118,-3.1423,0.7652,5.6348,0.3478
1970,0.0383,-9.3885,-3.1039,0.5565,5.6348,0.1391
1975,0.2299,-9.3502,-3.0273,0.1391,5.6348,0.3478
1980,0.0383,-9.3118,-3.1039,-0.0696,5.4957,0.3478
1985,0.0,-9.3118,-3.3339,-0.4174,5.5652,0.487
1990,0.0,-9.3502,-3.2189,-0.6957,5.4957,0.487
1995,0.0383,-9.4651,-3.1423,-0.7652,5.5652,0.5565
2000,-0.0383,-9.4651,-3.1806,-0.6957,5.7043,0.4174
2005,-0.0383,-9.3885,-3.1806,-0.6261,5.6348,0.487
2010,-0.0383,-9.3502,-3.2572,-0.5565,5.4957,0.3478
2015,0.0,-9.3885,-3.1423,-0.6261,5.4957,0.4174
2020,-0.0383,-9.4268,-3.2955,-0.5565,5.5652,0.2783
2025,0.0766,-9.4651,-3.0273,-0.487,5.4261,0.3478
2030,0.0766,-9.3885,-3.2955,-0.487,5.287,0.2783
2035,-0.0383,-9.4268,-3.2572,-0.4174,5.1478,0.3478
2040,0.0,-9.4268,-3.1806,-0.5565,5.0087,0.2087
2045,0.0,-9.3118,-3.2189,-0.5565,4.8696,0.3478
2050,-0.0766,-9.4268,-2.989,-0.5565,4.6609,0.3478
2055,-0.0766,-9.3502,-3.0656,-0.6261,4.5913,0.487
2060,0.0,-9.4268,-3.1039,-0.7652,4.5217,0.3478
2065,-0.0383,-9.2735,-3.1039,-0.9739,4.3826,0.487
2070,0.0,-9.4268,-3.0273,-1.2522,4.3826,0.4174
2075,0.0,-9.3118,-3.1423,-1.5304,4.3826,0.5565
2080,0.0,-9.4651,-3.1423,-2.0174,4.2435,0.487
2085,0.0383,-9.4651,-3.1806,-2.3652,4.2435,0.4174
2090,0.0,-9.3885,-3.1423,-2.5043,4.1739,0.2783
2095,0.0,-9.3502,-3.3339,-2.5739,4.1739,0.2783
2100,0.1533,-9.5034,-3.3722,-2.2957,3.9652,0.2087
2105,0.0,-9.3885,-3.4105,-1.9478,3.6174,0.2783
2110,-0.1916,-9.3502,-3.2572,-1.5304,3.4783,0.2783
2115,0.0383,-9.5034,-3.2572,-0.9739,3.4087,0.4174
2120,0.0,-9.4651,-3.1806,-0.5565,3.3391,0.4174
2125,-0.0383,-9.5801,-3.3339,0.0696,3.2,0.5565
2130,-0.115,-9.4651,-3.2955,0.6261,3.2696,0.6261
2135,0.0,-9.5034,-3.2572,1.1826,3.4087,0.8348
2140,-0.0383,-9.4651,-3.1423,1.4609,3.4783,0.7652
2145,0.0,-9.4651,-3.1806,1.6696,3.5478,0.9739
2150,0.0,-9.3885,-3.1806,1.6696,3.5478,0.9043
2155,0.0,-9.3885,-3.1806,1.4609,3.6174,0.9739
2160,-0.0383,-9.3502,-3.1423,1.113,3.687,1.0435
2165,0.0,-9.3118,-3.2572,0.487,3.5478,0.9739
2170,-0.0383,-9.3885,-3.1806,0.0,3.4087,1.113
2175,0.0383,-9.3118,-3.1039,-0.5565,3.2696,1.0435
2180,0.115,-9.5034,-3.0273,-1.113,3.2,0.9739
2185,0.0,-9.3885,-3.1806,-1.3913,3.0609,1.0435
2190,0.0766,-9.3502,-3.2189,-1.5304,3.0609,0.9739
2195,0.0,-9.2352,-3.1423,-1.8087,2.9217,0.8348
2200,0.0766,-9.5034,-3.2189,-1.9478,2.8522,0.7652
2205,0.115,-9.3885,-3.2955,-1.9478,2.713,0.7652
2210,-0.0383,-9.2735,-3.1806,-2.0174,2.8522,0.8348
2215,0.115,-9.3502,-3.2955,-2.2957,2.8522,0.8348
2220,0.0383,-9.4268,-3.1423,-2.4348,2.9913,0.7652
2225,0.115,-9.3502,-3.2189,-2.5739,3.0609,0.7652
2230,0.0766,-9.3502,-3.1423,-2.8522,3.0609,0.8348
2235,-0.0383,-9.3502,-3.1423,-3.2696,3.1304,0.7652
2240,0.0383,-9.3885,-3.2955,-3.7565,3.0609,0.8348
2245,0.0766,-9.3118,-3.2189,-4.1043,2.9913,0.9043
2250,-0.115,-9.3502,-3.3339,-4.3826,2.7826,0.9043
2255,-0.0383,-9.4651,-3.3339,-4.7304,2.713,0.8348
2260,-0.0383,-9.3885,-3.2572,-4.5217,2.7826,1.0435
2265,0.0,-9.3885,-3.3339,-4.3826,2.713,0.9739
2270,-0.0766,-9.3885,-3.2955,-4.0348,2.7826,0.9739
2275,-0.115,-9.4268,-3.3339,-3.6174,2.7826,0.9739
2280,-0.0766,-9.4268,-3.2189,-3.3391,2.7826,0.8348
2285,-0.0383,-9.4268,-3.3722,-3.2,2.7826,0.6261
2290,-0.0383,-9.4268,-3.2955,-3.1304,2.8522,0.6261
2295,-0.0766,-9.3502,-3.2955,-3.0609,2.7826,0.4174
2300,-0.0766,-9.3118,-3.1806,-3.0609,2.8522,0.3478
2305,0.0,-9.4268,-3.0656,-2.9217,2.713,0.2087
2310,-0.115,-9.4268,-3.1806,-2.8522,2.6435,0.3478
2315,0.0766,-9.5418,-3.2189,-2.5043,2.7826,0.2783
2320,0.0,-9.5418,-3.2189,-2.3652,2.9913,0.487
2325,0.0766,-9.4268,-3.2572,-2.0174,3.0609,0.487
2330,0.0383,-9.3885,-3.2955,-1.8087,3.2696,0.5565
2335,0.0,-9.5034,-3.2189,-1.5304,3.6174,0.487
2340,-0.115,-9.5034,-3.2572,-1.4609,3.687,0.5565
2345,-0.0766,-9.4651,-3.2572,-1.5304,3.687,0.2783
2350,0.0383,-9.3885,-3.1423,-1.5304,3.6174,0.4174
2355,0.0,-9.5801,-3.1806,-1.6696,3.5478,0.0696
2360,0.115,-9.5034,-3.1423,-1.7391,3.4783,0.2783
2365,0.0383,-9.5034,-3.2955,-1.9478,3.4087,0.0
2370,-0.0766,-9.3885,-3.4488,-1.9478,3.2,0.1391
2375,-0.1916,-9.2735,-3.3722,-1.8783,2.9217,0.0
2380,-0.0383,-9.4268,-3.1806,-1.9478,2.6435,0.2087
2385,-0.1916,-9.3118,-3.4488,-1.9478,2.5043,0.0696
2390,-0.0766,-9.3502,-3.4105,-1.7391,2.4348,0.2783
2395,-0.115,-9.4268,-3.2189,-1.5304,2.5043,0.2087
2400,-0.115,-9.3502,-3.2189,-1.1826,2.2957,0.3478
2405,-0.115,-9.3502,-3.1423,-1.0435,2.2957,0.3478
2410,-0.115,-9.2735,-3.1806,-0.6957,2.5043,0.4174
2415,-0.115,-9.3118,-3.3339,-0.487,2.5043,0.2783
2420,0.0383,-9.5034,-3.1423,-0.3478,2.713,0.4174
2425,-0.115,-9.4268,-3.0656,-0.4174,2.9217,0.2087
2430,-0.0383,-9.4268,-3.0273,-0.4174,3.1304,0.4174
2435,-0.0766,-9.3502,-3.0273,-0.487,3.2,0.2087
2440,0.0,-9.3502,-3.1423,-0.6261,3.4087,0.2783
2445,0.115,-9.3885,-3.2572,-0.8348,3.5478,0.0
2450,0.0383,-9.3118,-3.1423,-1.2522,3.687,0.0696
2455,0.115,-9.5418,-2.989,-1.6696,3.9652,-0.0696
2460,-0.0383,-9.3118,-3.1806,-2.1565,4.1043,0.1391
2465,0.1533,-9.3118,-3.1039,-2.5739,4.1739,-0.2087
2470,0.0383,-9.2735,-3.0273,-2.9217,4.313,0.0696
2475,0.0766,-9.2735,-3.0656,-2.9913,4.3826,-0.1391
2480,0.0766,-9.3118,-3.2189,-3.0609,4.313,0.0696
2485,0.0766,-9.2352,-3.2189,-3.1304,4.313,0.0
2490,-0.0383,-9.3502,-3.1423,-3.0609,4.2435,0.1391
2495,-0.0383,-9.3502,-3.1423,-3.2696,4.2435,0.1391
2500,0.0383,-9.3502,-3.1806,-3.2,4.1043,0.3478
2505,-0.0766,-9.4268,-3.2572,-3.2,4.0348,0.2783
2510,-0.0383,-9.3885,-3.2189,-3.2696,3.7565,0.487
2515,0.0,-9.3885,-3.2189,-3.2,3.6174,0.2783
2520,-0.115,-9.4268,-3.3339,-3.0609,3.4087,0.4174
2525,-0.115,-9.4268,-3.2189,-2.8522,3.3391,0.2087
2530,-0.1916,-9.4651,-3.4105,-2.713,3.2696,0.3478
2535,-0.2299,-9.4651,-3.2955,-2.5043,3.2,0.2087
2540,-0.115,-9.4268,-3.2189,-2.1565,3.1304,0.2783
2545,-0.1916,-9.4651,-3.2189,-1.8783,3.2,0.1391
2550,-0.115,-9.3885,-3.2189,-1.7391,3.1304,0.1391
2555,-0.0766,-9.2352,-3.2955,-1.7391,3.1304,-0.1391
2560,-0.0383,-9.3885,-3.1806,-1.8087,2.9913,-0.0696
2565,-0.0766,-9.3118,-3.2572,-1.8783,2.9217,-0.3478
2570,-0.0766,-9.4651,-3.3722,-1.9478,2.713,-0.2783
2575,-0.0766,-9.3885,-3.3722,-1.9478,2.6435,-0.5565
2580,0.0,-9.3118,-3.2572,-1.9478,2.5739,-0.4174
2585,-0.0766,-9.3885,-3.4105,-1.8087,2.3652,-0.5565
2590,-0.0383,-9.3502,-3.3339,-1.8087,2.4348,-0.2783
2595,0.0,-9.3502,-3.4105,-1.8783,2.3652,-0.3478
2600,-0.115,-9.3118,-3.2955,-1.8087,2.3652,-0.1391
2605,-0.0766,-9.3502,-3.1423,-1.8783,2.2261,-0.2783
2610,-0.115,-9.3118,-3.2955,-1.8783,2.2957,-0.1391
2615,0.0,-9.3502,-3.3339,-1.9478,2.3652,-0.1391
2620,-0.1916,-9.3502,-3.2572,-1.8087,2.2957,0.0696
2625,-0.0766,-9.3502,-3.4105,-2.087,2.2957,-0.0696
2630,-0.115,-9.3118,-3.3339,-2.0174,2.2957,0.1391
2635,-0.2299,-9.3502,-3.3339,-2.2261,2.3652,0.0
2640,-0.115,-9.3885,-3.3339,-2.2957,2.5043,0.0
2645,-0.1533,-9.3118,-3.2189,-2.4348,2.713,-0.2087
2650,-0.1533,-9.3502,-3.2955,-2.4348,2.8522,-0.0696
2655,-0.0383,-9.2735,-3.3722,-2.4348,3.2,-0.1391
2660,-0.115,-9.3118,-3.3339,-2.3652,3.2696,0.0
2665,-0.0383,-9.3118,-3.1423,-2.1565,3.6174,0.1391
2670,-0.0766,-9.3885,-3.3722,-1.8087,3.8261,0.2087
2675,-0.0383,-9.4268,-3.1806,-1.4609,3.7565,0.1391
2680,-0.1533,-9.2735,-3.3722,-1.113,3.8957,0.0696
2685,0.0383,-9.4651,-3.2572,-0.8348,3.9652,-0.2087
2690,-0.1533,-9.3885,-3.0656,-0.5565,4.1043,-0.0696
2695,0.0,-9.5034,-3.1806,-0.5565,4.1739,-0.1391
2700,0.0,-9.5801,-3.1423,-0.5565,4.1043,0.1391
2705,-0.0766,-9.4268,-3.2189,-0.6261,4.0348,0.0696
2710,-0.115,-9.5034,-3.1423,-0.487,3.8261,0.3478
2715,-0.0383,-9.4651,-3.2189,-0.2087,3.7565,0.4174
2720,-0.0766,-9.5034,-3.1806,0.0696,3.6174,0.5565
2725,0.0,-9.5801,-3.2572,0.2783,3.4783,0.6261
2730,-0.115,-9.3118,-3.1806,0.5565,3.4087,0.6261
2735,-0.1916,-9.3885,-3.2189,0.6261,3.2696,0.6261
2740,-0.115,-9.4268,-3.0656,0.7652,3.2,0.9043
2745,-0.1916,-9.3502,-3.3339,1.113,3.2696,0.9043
2750,-0.2299,-9.3885,-3.2572,1.2522,3.4783,1.0435
2755,-0.115,-9.5034,-3.2189,1.3217,3.6174,0.9043
2760,-0.1916,-9.4268,-2.874,1.4609,3.7565,0.8348
2765,-0.0383,-9.3885,-3.2572,1.3913,3.8261,0.6957
2770,-0.1533,-9.3502,-3.1806,1.1826,3.8261,0.6261
2775,-0.115,-9.3118,-3.2189,1.0435,4.0348,0.2087
2780,0.0,-9.4268,-3.2572,0.7652,3.8261,0.1391
2785,0.0,-9.2735,-3.4105,0.487,3.8261,-0.2087
2790,-0.0766,-9.2352,-3.4105,0.2783,3.6174,-0.3478
2795,0.0383,-9.2352,-3.4871,0.0696,3.5478,-0.6957
2800,-0.0383,-9.1586,-3.4488,-0.1391,3.4087,-0.7652
2805,0.0766,-9.3118,-3.4105,-0.2783,3.2696,-0.9739
2810,0.0766,-9.2352,-3.3722,-0.3478,3.2,-1.0435
2815,0.0383,-9.1586,-3.2189,-0.5565,2.9913,-1.113
2820,0.0766,-9.1586,-3.3722,-0.6957,2.8522,-1.113
2825,0.0,-9.1969,-3.1806,-0.7652,2.5739,-1.0435
2830,-0.0383,-9.2352,-3.2955,-0.8348,2.4348,-1.0435
2835,0.0,-9.1969,-3.4105,-1.1826,2.087,-1.113
2840,-0.115,-9.2352,-3.4105,-1.4609,1.7391,-1.113
2845,-0.0383,-9.2352,-3.3722,-1.8783,1.3913,-1.113
2850,-0.0766,-9.1969,-3.4871,-2.2957,1.1826,-1.113
2855,-0.115,-9.2352,-3.4105,-2.5739,0.9043,-1.113
2860,-0.0383,-9.2735,-3.5638,-2.5739,0.6957,-1.2522
2865,-0.115,-9.3118,-3.4488,-2.5043,0.6957,-1.2522
2870,-0.1533,-9.3502,-3.7171,-2.3652,0.7652,-1.1826
2875,-0.115,-9.3885,-3.4871,-1.8783,1.0435,-1.1826
2880,-0.115,-9.4268,-3.2189,-1.2522,1.2522,-1.113
2885,0.1533,-9.1202,-3.2189,-0.7652,1.5304,-0.9739
2890,0.0383,-9.5418,-3.6787,-0.4174,1.8087,-0.9043
2895,0.0,-9.1202,-3.1039,-0.1391,2.0174,-0.7652
2900,-0.115,-9.5418,-3.2572,0.0,2.1565,-0.7652
2905,0.0766,-9.4268,-3.3722,-0.0696,2.3652,-0.6957
2910,0.115,-9.4651,-3.2189,-0.0696,2.2957,-0.9043
2915,0.115,-9.3885,-3.2189,-0.3478,2.5043,-1.0435
2920,0.0383,-9.3502,-3.3339,-0.5565,2.3652,-1.113
2925,0.0766,-9.3885,-3.3339,-0.7652,2.2261,-1.1826
2930,0.0383,-9.4268,-3.3722,-0.6261,2.0174,-1.3913
2935,0.0766,-9.4268,-3.2572,-0.487,1.9478,-1.3217
2940,0.0766,-9.4651,-3.4488,-0.2087,1.8087,-1.3217
2945,-0.0383,-9.2735,-3.2955,0.0,1.7391,-1.3913
2950,-0.115,-9.3118,-3.4105,0.1391,1.6,-1.5304
2955,-0.0766,-9.3885,-3.3722,0.2783,1.2522,-1.5304
2960,-0.0766,-9.5034,-3.3339,0.4174,1.0435,-1.4609
2965,-0.115,-9.4651,-3.2955,0.7652,0.6957,-1.3913
2970,-0.0766,-9.3502,-3.2955,0.9043,0.5565,-1.3913
2975,-0.115,-9.4268,-3.2572,1.1826,0.2783,-1.1826
2980,-0.0766,-9.2735,-3.2572,1.4609,0.2087,-1.113
2985,-0.0766,-9.3502,-3.3339,1.3913,0.0,-0.9739
2990,-0.1533,-9.5034,-3.3339,1.3913,0.0,-0.9739
2995,-0.0383,-9.4651,-3.2189,1.4609,0.1391,-0.8348
