timestamp,accX,accY,accZ,gyroX,gyroY,gyroZ
0,2.031,-7.7407,5.4415,4.7304,0.6957,-1.6
5,1.9927,-7.7407,5.2116,5.0087,0.5565,-1.6
10,1.9927,-7.7407,5.3648,5.0783,0.487,-1.6
15,1.9543,-7.6641,5.1732,5.2174,0.4174,-1.6
20,2.031,-7.6257,5.1349,5.3565,0.2783,-1.6696
25,1.9543,-7.7024,5.1349,5.5652,0.2783,-1.6
30,1.916,-7.5874,5.2116,5.7739,0.1391,-1.4609
35,2.031,-7.6257,5.1349,5.913,0.0696,-1.4609
40,2.0693,-7.7407,5.0583,6.1913,0.0,-1.4609
45,2.0693,-7.5874,5.1732,6.1913,-0.0696,-1.4609
50,2.1459,-7.7024,5.3648,6.3304,-0.2087,-1.3217
55,1.9543,-7.5108,5.1349,6.4,-0.3478,-1.3217
60,2.0693,-7.4341,5.4032,6.2609,-0.3478,-1.2522
65,2.0693,-7.4725,5.2882,6.1913,-0.487,-1.113
70,1.9927,-7.4725,5.2116,5.913,-0.4174,-1.0435
75,2.0693,-7.5491,5.2499,5.7739,-0.4174,-0.9739
80,2.031,-7.5108,5.2882,5.5652,-0.4174,-0.6957
85,1.9927,-7.4725,5.3265,5.3565,-0.2087,-0.6957
90,1.9543,-7.4725,5.2499,5.1478,-0.0696,-0.6957
95,1.9927,-7.4341,5.4032,5.0783,0.2087,-0.6261
100,2.1459,-7.4341,5.2882,4.8,0.5565,-0.5565
105,2.031,-7.5108,5.2116,4.6609,0.8348,-0.487
110,2.1076,-7.6641,5.2499,4.3826,1.1826,-0.4174
115,2.031,-7.7407,5.3265,4.1043,1.3913,-0.4174
120,2.0693,-7.5874,5.4032,3.9652,1.6696,-0.487
125,2.0693,-7.4341,5.1732,3.7565,1.8783,-0.5565
130,2.1076,-7.5874,5.1732,3.4087,2.1565,-0.6261
135,1.9927,-7.5874,5.4032,3.3391,2.4348,-0.6261
140,2.1843,-7.6641,5.3648,3.2,2.5043,-0.7652
145,2.1843,-7.7024,5.2882,3.0609,2.6435,-0.8348
150,1.9927,-7.6257,5.2499,3.0609,2.713,-0.9739
155,2.1459,-7.8557,5.1349,3.0609,2.713,-0.9739
160,2.1459,-7.5874,5.4415,3.0609,2.5739,-0.9739
165,2.0693,-7.5491,5.1349,3.1304,2.2957,-1.0435
170,2.1843,-7.4341,5.0583,3.1304,2.087,-1.1826
175,2.031,-7.5874,5.0966,3.1304,1.9478,-1.0435
180,1.9543,-7.5491,5.3265,3.0609,1.7391,-1.113
185,2.031,-7.6641,5.2499,3.0609,1.4609,-1.2522
190,2.1076,-7.7407,5.2882,2.9913,1.2522,-1.1826
195,1.9927,-7.5491,5.2116,3.0609,1.113,-1.2522
200,2.0693,-7.6257,5.1732,3.0609,0.9739,-1.113
205,2.0693,-7.6641,5.3648,3.2,0.9043,-1.0435
210,2.0693,-7.7024,5.1349,3.2696,0.7652,-1.0435
215,1.8777,-7.5108,5.3648,3.3391,0.6957,-0.9739
220,1.916,-7.6641,5.2116,3.4087,0.6261,-0.9043
225,2.031,-7.5108,5.1349,3.4087,0.5565,-0.9043
230,1.8777,-7.6257,5.1349,3.3391,0.5565,-0.6957
235,1.9543,-7.5491,5.1732,3.2696,0.5565,-0.6261
240,1.9927,-7.5108,5.3265,3.3391,0.7652,-0.6261
245,1.9927,-7.5874,5.4032,3.4087,0.7652,-0.6957
250,1.916,-7.4725,5.2499,3.3391,0.9043,-0.6957
255,1.8777,-7.4725,5.4032,3.4087,0.9043,-0.6957
260,1.9927,-7.6641,5.4032,3.4087,0.9043,-0.6261
265,1.9927,-7.5874,5.2116,3.3391,1.0435,-0.6957
270,1.9543,-7.5874,5.2882,3.2696,1.0435,-0.8348
275,1.916,-7.5874,5.4032,3.2696,1.0435,-0.8348
280,1.916,-7.7024,5.2116,3.2696,1.0435,-0.9043
285,2.031,-7.5108,5.3648,3.3391,0.9739,-0.8348
290,1.9927,-7.6257,5.2882,3.1304,0.9739,-0.9739
295,2.0693,-7.5108,5.3648,3.2,0.9043,-0.9739
300,2.0693,-7.5491,5.3265,3.2,0.9043,-0.9739
305,1.9927,-7.5108,5.2116,3.2,0.8348,-0.9043
310,1.9543,-7.6257,5.4032,3.2696,0.8348,-0.9043
315,2.031,-7.5108,5.3648,3.2696,0.8348,-0.9043
320,2.1843,-7.6257,5.3265,3.4087,0.8348,-0.9043
325,2.1459,-7.6641,5.2116,3.4783,0.9043,-0.8348
330,2.031,-7.7024,5.2882,3.6174,0.9043,-0.7652
335,2.1076,-7.6257,5.3265,3.6174,0.8348,-0.7652
340,2.0693,-7.5874,5.2882,3.6174,0.7652,-0.7652
345,2.0693,-7.6641,5.2499,3.687,0.8348,-0.7652
350,2.1076,-7.5491,5.4032,3.6174,0.7652,-0.7652
355,2.0693,-7.6257,5.1732,3.6174,0.7652,-0.7652
360,1.9543,-7.5874,5.2116,3.5478,0.6261,-0.8348
365,1.9543,-7.5874,5.2882,3.5478,0.5565,-0.8348
370,2.031,-7.5874,5.3265,3.4783,0.5565,-0.7652
375,2.0693,-7.6257,5.2499,3.5478,0.487,-0.6957
380,2.0693,-7.6641,5.2499,3.5478,0.5565,-0.6261
385,2.1459,-7.6257,5.2116,3.687,0.6261,-0.5565
390,2.031,-7.5491,5.3265,3.7565,0.6261,-0.5565
395,2.0693,-7.6641,5.2116,3.8261,0.6957,-0.487
400,2.0693,-7.6257,5.3648,3.8261,0.6957,-0.487
405,1.9927,-7.5874,5.2499,3.8261,0.6261,-0.487
410,2.031,-7.5874,5.3265,3.8957,0.6957,-0.4174
415,2.031,-7.6257,5.2882,3.8957,0.6261,-0.4174
420,1.9927,-7.5491,5.3648,3.8261,0.487,-0.4174
425,2.0693,-7.5874,5.0583,3.8261,0.4174,-0.4174
430,2.1843,-7.7024,5.2499,3.7565,0.487,-0.5565
435,2.031,-7.5874,5.4798,3.7565,0.487,-0.487
440,1.916,-7.6641,5.3265,3.687,0.487,-0.5565
445,2.2226,-7.7407,5.2882,3.687,0.5565,-0.5565
450,1.9543,-7.5491,5.1732,3.687,0.5565,-0.4174
455,2.0693,-7.5108,5.2499,3.7565,0.6261,-0.5565
460,2.031,-7.5874,5.3265,3.7565,0.6957,-0.487
465,2.0693,-7.6641,5.3648,3.7565,0.7652,-0.487
470,2.0693,-7.6257,5.2882,3.7565,0.7652,-0.5565
475,1.9927,-7.6257,5.2882,3.8261,0.6957,-0.487
480,1.916,-7.5108,5.2882,3.7565,0.5565,-0.5565
485,1.9927,-7.6257,5.4032,3.7565,0.6261,-0.487
490,1.9927,-7.6257,5.2116,3.7565,0.6261,-0.5565
495,2.0693,-7.7407,5.5181,3.7565,0.5565,-0.5565
500,1.8777,-7.4341,5.3265,3.7565,0.487,-0.487
505,2.031,-7.5874,5.2499,3.7565,0.487,-0.5565
510,1.9927,-7.5874,5.1732,3.8261,0.6261,-0.5565
515,2.0693,-7.5491,5.2882,3.8261,0.6957,-0.6261
520,2.031,-7.6641,5.4032,3.8957,0.6957,-0.6957
525,1.9543,-7.5491,5.3265,3.8261,0.7652,-0.6957
530,1.9543,-7.6641,5.3648,3.7565,0.6957,-0.8348
535,1.916,-7.5108,5.1732,3.7565,0.6957,-0.8348
540,1.916,-7.5874,5.1732,3.6174,0.8348,-0.9043
545,1.9543,-7.6257,5.2116,3.5478,0.8348,-1.113
550,1.916,-7.5108,5.2499,3.3391,0.9043,-0.9739
555,2.031,-7.5491,5.2499,3.3391,0.9739,-0.9739
560,2.031,-7.6641,5.3648,3.2,0.9739,-1.0435
565,1.916,-7.6257,5.2882,3.2696,1.1826,-0.9739
570,2.0693,-7.7407,5.1349,3.2,1.113,-1.113
575,1.916,-7.6641,5.1732,3.2,1.1826,-1.1826
580,2.0693,-7.5874,5.3265,3.2,1.0435,-1.0435
585,2.0693,-7.6257,5.02,3.2,1.113,-1.113
590,2.031,-7.7407,5.3265,3.2696,1.0435,-0.9739
595,2.031,-7.5874,5.3648,3.2696,0.9739,-1.113
600,2.1459,-7.5491,5.4032,3.4783,0.9739,-1.113
605,2.1076,-7.4341,5.2116,3.4087,0.9043,-0.9739
610,2.1459,-7.7024,5.2882,3.4783,0.9043,-1.113
615,2.1076,-7.5108,5.2882,3.5478,0.8348,-1.0435
620,2.1076,-7.5108,5.1349,3.5478,0.9043,-0.9739
625,2.0693,-7.5108,5.0583,3.6174,0.7652,-0.9043
630,2.1076,-7.6257,5.2499,3.687,0.7652,-0.9739
635,2.2226,-7.6641,5.2882,3.687,0.6957,-0.9043
640,2.0693,-7.5491,5.2499,3.687,0.5565,-0.9043
645,1.9927,-7.4725,5.3648,3.687,0.6957,-0.9043
650,1.9543,-7.5108,5.2882,3.6174,0.6957,-0.7652
655,1.9927,-7.5874,5.4415,3.6174,0.6261,-0.7652
660,2.2609,-7.6257,5.2116,3.6174,0.6957,-0.6957
665,2.1843,-7.5491,5.1349,3.6174,0.6957,-0.6957
670,2.031,-7.5491,5.2882,3.6174,0.7652,-0.6261
675,2.0693,-7.6641,5.2882,3.6174,0.7652,-0.6957
680,2.031,-7.5874,5.0966,3.5478,0.7652,-0.6261
685,2.1076,-7.6257,5.2499,3.5478,0.7652,-0.5565
690,2.1459,-7.5874,5.3265,3.5478,0.7652,-0.5565
695,2.1459,-7.5874,5.2116,3.5478,0.7652,-0.5565
700,1.9927,-7.5874,5.4798,3.6174,0.6261,-0.6957
705,2.2609,-7.5874,5.3648,3.5478,0.6261,-0.6957
710,2.1076,-7.5874,5.2499,3.4783,0.5565,-0.6957
715,2.0693,-7.6641,5.3265,3.5478,0.4174,-0.7652
720,2.031,-7.7024,5.5181,3.4783,0.4174,-0.7652
725,1.9927,-7.6641,5.3265,3.4087,0.487,-0.7652
730,2.031,-7.7407,5.4032,3.3391,0.5565,-0.7652
735,2.0693,-7.6257,5.2882,3.3391,0.5565,-0.7652
740,1.9543,-7.6641,5.1349,3.4087,0.7652,-0.7652
745,2.031,-7.5491,5.2116,3.2696,0.6957,-0.7652
750,2.031,-7.6641,5.2882,3.4087,0.6957,-0.8348
755,1.916,-7.6257,5.1732,3.4783,0.7652,-0.8348
760,1.916,-7.5874,5.2499,3.4783,0.7652,-0.9043
765,1.8777,-7.4725,5.3265,3.4087,0.9043,-0.7652
770,2.1843,-7.8557,5.1732,3.4783,0.9043,-0.6957
775,2.031,-7.5491,5.0966,3.5478,0.7652,-0.7652
780,1.9543,-7.4725,5.3265,3.5478,0.7652,-0.7652
785,2.1076,-7.6641,5.4415,3.687,0.7652,-0.7652
790,2.0693,-7.7024,5.3265,3.7565,0.7652,-0.6261
795,1.8777,-7.5874,5.1732,3.7565,0.7652,-0.6957
800,2.031,-7.5874,5.3265,3.7565,0.7652,-0.6957
805,1.916,-7.6257,5.3265,3.7565,0.6261,-0.6261
810,1.9927,-7.6641,5.3265,3.7565,0.8348,-0.6957
815,2.031,-7.5874,5.3265,3.8261,0.7652,-0.6261
820,2.1076,-7.6257,5.2499,3.8957,0.9043,-0.6957
825,1.8777,-7.3575,5.0966,3.8261,0.9043,-0.6957
830,1.9927,-7.5874,5.3648,3.8957,0.8348,-0.6261
835,2.0693,-7.6257,5.1732,3.7565,0.9043,-0.6261
840,1.9543,-7.5874,5.3648,3.7565,0.9043,-0.487
845,2.031,-7.5491,5.2882,3.687,0.8348,-0.6261
850,1.9927,-7.6641,5.2116,3.7565,0.7652,-0.5565
855,2.0693,-7.6641,5.2116,3.8261,0.6957,-0.5565
860,2.031,-7.5491,5.1349,3.7565,0.6957,-0.5565
865,1.9927,-7.5491,5.2499,3.7565,0.7652,-0.6957
870,2.1459,-7.6257,5.0966,3.7565,0.6957,-0.6957
875,2.1459,-7.6641,5.0583,3.8261,0.6261,-0.6957
880,2.1459,-7.7024,5.2116,3.8261,0.6261,-0.6957
885,2.0693,-7.5491,5.2499,3.8261,0.6957,-0.8348
890,1.9927,-7.5491,5.2499,3.8957,0.7652,-0.8348
895,2.0693,-7.6257,5.2882,4.0348,0.7652,-0.6957
900,2.0693,-7.5491,5.2116,3.9652,0.9043,-0.6957
905,2.0693,-7.6641,5.3648,4.1043,0.8348,-0.6957
910,2.031,-7.6257,5.2116,4.1739,0.8348,-0.8348
915,2.0693,-7.5108,5.0966,4.1739,0.8348,-0.7652
920,2.031,-7.5874,5.2882,4.1043,0.9043,-0.7652
925,2.0693,-7.5874,5.2116,4.0348,0.8348,-0.8348
930,2.0693,-7.5491,5.2116,4.0348,0.8348,-0.9043
935,2.1076,-7.779,5.1732,3.8957,0.8348,-0.8348
940,2.0693,-7.5874,5.2499,3.9652,0.9739,-0.7652
945,2.1076,-7.5874,5.2882,3.8261,0.9739,-0.6261
950,2.1076,-7.5108,5.2499,3.687,0.9739,-0.8348
955,2.1076,-7.6257,5.2499,3.5478,1.0435,-0.6957
960,2.031,-7.5874,5.2882,3.4087,0.9739,-0.7652
965,2.031,-7.779,5.2882,3.3391,0.9739,-0.6957
970,2.1076,-7.5874,5.1732,3.3391,0.9043,-0.8348
975,2.031,-7.6257,5.5181,3.2,0.9043,-0.9043
980,2.0693,-7.5108,5.2882,3.2,0.9739,-0.9043
985,1.916,-7.5491,5.0966,3.2696,0.8348,-0.8348
990,2.0693,-7.6641,5.2499,3.3391,0.9043,-0.7652
995,2.1459,-7.5491,5.1732,3.4783,0.9043,-0.9739
1000,2.0693,-7.5108,5.2116,3.5478,1.0435,-0.8348
1005,2.031,-7.6257,5.3265,3.6174,0.9043,-0.8348
1010,2.1459,-7.5491,5.2116,3.7565,0.7652,-0.8348
1015,2.1843,-7.5491,5.4415,3.687,0.8348,-0.7652
1020,2.031,-7.6641,5.3648,3.8261,0.7652,-0.9043
1025,2.1459,-7.6257,5.1349,3.7565,0.6261,-0.8348
1030,2.0693,-7.5108,5.3648,3.5478,0.6261,-0.7652
1035,1.9543,-7.4341,5.2882,3.4783,0.5565,-0.8348
1040,2.1076,-7.6257,5.3265,3.3391,0.6957,-0.6957
1045,1.9927,-7.7407,5.2499,3.1304,0.6957,-0.7652
1050,2.031,-7.5874,5.4032,3.0609,0.6261,-0.8348
1055,2.0693,-7.6257,5.3648,3.0609,0.7652,-0.9739
1060,2.031,-7.5108,5.3265,3.0609,0.6957,-0.8348
1065,1.9543,-7.6641,5.3265,3.0609,0.6261,-0.8348
1070,2.0693,-7.6641,5.2116,3.0609,0.6261,-0.9739
1075,1.9927,-7.7407,5.4798,3.1304,0.5565,-1.0435
1080,1.916,-7.5491,5.3265,3.1304,0.5565,-1.0435
1085,2.031,-7.6257,5.2499,3.2696,0.5565,-1.113
1090,1.9543,-7.6641,5.2882,3.3391,0.6261,-1.2522
1095,2.0693,-7.6641,5.4798,3.4087,0.6261,-1.1826
1100,2.1843,-7.7024,5.2882,3.5478,0.7652,-1.0435
1105,2.1076,-7.6641,5.3648,3.8261,0.7652,-1.113
1110,2.0693,-7.6641,5.2116,4.1739,0.6957,-1.113
1115,1.9543,-7.5108,5.1732,4.313,0.6261,-1.0435
1120,2.1076,-7.5108,5.0583,4.5913,0.5565,-0.9739
1125,2.031,-7.6257,5.1732,4.8696,0.487,-0.9043
1130,2.1076,-7.6257,5.2499,5.0783,0.487,-0.9043
1135,2.1076,-7.5491,5.4032,5.0087,0.4174,-0.8348
1140,2.031,-7.4341,5.0966,4.9391,0.4174,-0.7652
1145,1.9927,-7.5874,5.4798,4.9391,0.4174,-0.8348
1150,2.2609,-7.779,5.3265,4.8,0.6261,-0.7652
1155,2.0693,-7.5874,5.2882,4.8,0.6957,-0.7652
1160,1.9543,-7.4341,5.3265,4.7304,0.8348,-0.9043
1165,2.031,-7.5108,5.2116,4.6609,0.8348,-0.8348
1170,2.031,-7.5874,5.2499,4.5913,1.0435,-1.0435
1175,2.0693,-7.5491,5.2499,4.4522,1.113,-1.0435
1180,2.0693,-7.5108,5.2882,4.3826,1.1826,-0.9739
1185,2.0693,-7.5108,5.1732,4.2435,1.2522,-0.9043
1190,2.0693,-7.5491,5.4032,4.1043,1.3913,-0.8348
1195,2.0693,-7.5491,5.1732,3.9652,1.3913,-0.7652
1200,2.0693,-7.5491,5.0966,3.9652,1.3217,-0.7652
1205,2.3759,-7.8173,5.3648,3.8957,1.3217,-0.7652
1210,2.0693,-7.4725,5.1732,3.8957,1.3217,-0.6957
1215,2.1459,-7.5491,5.1349,3.8957,1.1826,-0.6261
1220,2.1076,-7.5874,5.2116,4.0348,1.113,-0.5565
1225,2.1843,-7.6257,5.2882,3.9652,1.1826,-0.5565
1230,2.0693,-7.5108,5.2116,3.8957,0.9739,-0.5565
1235,2.1076,-7.4725,5.0966,3.8957,0.9043,-0.487
1240,2.031,-7.5491,5.4032,3.8957,0.8348,-0.5565
1245,2.031,-7.5874,5.3265,3.7565,0.7652,-0.5565
1250,2.031,-7.5491,5.2499,3.687,0.6261,-0.4174
1255,1.9927,-7.5491,5.3265,3.5478,0.5565,-0.487
1260,2.1459,-7.6257,5.0966,3.4087,0.487,-0.487
1265,2.0693,-7.6257,5.1732,3.2696,0.487,-0.5565
1270,2.1076,-7.5491,5.3648,3.2,0.5565,-0.4174
1275,2.1843,-7.6257,5.4415,3.2,0.6261,-0.4174
1280,1.9927,-7.5874,5.2499,3.2,0.6261,-0.3478
1285,2.1076,-7.5874,5.3265,3.3391,0.7652,-0.3478
1290,2.1076,-7.5491,5.3265,3.3391,0.7652,-0.4174
1295,1.8777,-7.5108,5.2116,3.4783,0.8348,-0.4174
1300,1.9927,-7.5108,5.2882,3.4783,0.8348,-0.3478
1305,1.8777,-7.5874,5.3648,3.5478,0.9043,-0.3478
1310,2.0693,-7.6257,5.3265,3.5478,0.9043,-0.2087
1315,2.1459,-7.6257,5.2882,3.6174,1.0435,-0.3478
1320,1.8777,-7.5108,5.2116,3.6174,1.113,-0.4174
1325,1.9543,-7.4341,5.3265,3.5478,1.1826,-0.4174
1330,2.0693,-7.5491,5.4415,3.5478,1.113,-0.487
1335,1.9927,-7.6641,5.2499,3.4783,1.113,-0.5565
1340,1.9927,-7.5874,5.2116,3.3391,1.113,-0.6957
1345,2.0693,-7.5491,5.3648,3.1304,1.1826,-0.7652
1350,1.8777,-7.4725,5.2882,2.9217,1.1826,-0.6957
1355,2.031,-7.6257,5.4032,2.7826,1.113,-0.8348
1360,1.9927,-7.7024,5.4032,2.7826,1.113,-0.9043
1365,1.9927,-7.6257,5.2882,2.713,1.0435,-0.9739
1370,2.031,-7.779,5.4032,2.6435,0.9043,-0.8348
1375,2.1076,-7.5108,5.2116,2.713,0.8348,-0.8348
1380,2.1076,-7.7024,5.3648,2.7826,0.7652,-0.6957
1385,1.9927,-7.5491,5.1349,2.9217,0.6261,-0.7652
1390,2.2226,-7.6257,5.2882,2.9913,0.487,-0.6957
1395,2.031,-7.5874,5.2116,3.2696,0.487,-0.7652
1400,2.0693,-7.5874,5.2116,3.4087,0.5565,-0.7652
1405,2.031,-7.6257,5.4032,3.4783,0.5565,-0.7652
1410,2.1843,-7.7407,5.1732,3.4783,0.6261,-0.8348
1415,1.9543,-7.5491,5.2116,3.5478,0.6261,-0.7652
1420,1.9543,-7.4725,5.0583,3.6174,0.6261,-0.6957
1425,1.916,-7.5874,5.4415,3.6174,0.7652,-0.6957
1430,2.0693,-7.5874,5.2882,3.5478,0.7652,-0.7652
1435,1.9543,-7.5874,5.2116,3.6174,0.8348,-0.8348
1440,2.0693,-7.5874,5.2882,3.5478,0.8348,-0.8348
1445,1.9927,-7.5874,5.0583,3.4783,0.9043,-0.8348
1450,1.9927,-7.5108,5.3265,3.5478,0.9043,-0.9043
1455,1.916,-7.5874,5.3648,3.4783,1.0435,-0.9043
1460,1.9543,-7.5491,5.4798,3.4783,1.0435,-0.9043
1465,1.9543,-7.5874,5.3648,3.4783,1.0435,-0.9739
1470,2.031,-7.7407,5.3265,3.4783,1.0435,-0.9043
1475,1.8777,-7.7024,5.2499,3.4087,1.0435,-0.9043
1480,2.031,-7.5491,5.3265,3.4087,1.0435,-0.9043
1485,2.031,-7.5874,5.1732,3.4087,1.113,-0.8348
1490,2.0693,-7.5491,5.2499,3.4087,1.0435,-0.8348
1495,2.031,-7.5874,5.1349,3.4087,0.9739,-0.8348
1500,2.031,-7.6257,5.2499,3.4087,1.0435,-0.9043
1505,2.0693,-7.5874,5.3265,3.4087,0.9739,-0.8348
1510,2.1076,-7.5874,5.3265,3.4087,0.7652,-0.8348
1515,2.1076,-7.7407,5.2116,3.4783,0.7652,-0.7652
1520,2.031,-7.5874,5.1349,3.4087,0.6957,-0.8348
1525,2.031,-7.7407,5.5948,3.5478,0.6261,-0.7652
1530,2.2992,-7.7024,5.5564,3.5478,0.6957,-0.7652
1535,2.0693,-7.5874,5.3648,3.4087,0.6261,-0.7652
1540,2.0693,-7.7024,5.3265,3.4783,0.5565,-0.6957
1545,2.0693,-7.5874,5.02,3.5478,0.6957,-0.7652
1550,2.031,-7.6641,5.2882,3.4783,0.7652,-0.6261
1555,2.0693,-7.6641,5.2116,3.4087,0.6261,-0.6261
1560,2.031,-7.5491,5.3265,3.3391,0.6957,-0.6261
1565,2.0693,-7.7024,5.4032,3.4087,0.6261,-0.5565
1570,2.1076,-7.5491,5.2882,3.4087,0.5565,-0.6261
1575,2.031,-7.5874,5.2882,3.4783,0.487,-0.487
1580,2.1076,-7.6257,5.1732,3.5478,0.5565,-0.4174
1585,1.916,-7.6641,5.1349,3.5478,0.5565,-0.487
1590,1.9543,-7.5491,5.4032,3.687,0.6957,-0.487
1595,2.1459,-7.5491,5.2882,3.7565,0.6957,-0.487
1600,1.9927,-7.6641,5.2499,3.8261,0.7652,-0.5565
1605,2.0693,-7.6257,5.2499,3.8261,0.9043,-0.5565
1610,2.0693,-7.4725,5.2882,3.8957,1.0435,-0.487
1615,2.0693,-7.5108,5.1732,3.8957,1.113,-0.487
1620,1.9927,-7.6257,5.3265,3.8261,1.1826,-0.5565
1625,1.8777,-7.6641,5.1349,3.7565,1.1826,-0.5565
1630,2.0693,-7.5108,5.2499,3.6174,1.113,-0.6261
1635,1.916,-7.5874,5.2499,3.5478,1.113,-0.6261
1640,2.2609,-7.5108,5.2116,3.4087,1.113,-0.6261
1645,1.9927,-7.5874,5.2116,3.4087,1.0435,-0.6957
1650,2.1076,-7.6641,5.2499,3.3391,1.113,-0.9043
1655,2.031,-7.5874,5.2882,3.2696,1.0435,-0.6957
1660,2.0693,-7.5491,5.2499,3.3391,0.9739,-0.5565
1665,2.0693,-7.5491,5.3265,3.2696,1.0435,-0.6261
1670,1.9927,-7.6257,5.1732,3.2696,0.9043,-0.8348
1675,1.8777,-7.6257,5.3648,3.2696,0.9043,-0.7652
1680,2.1076,-7.6641,5.3265,3.2696,0.8348,-0.7652
1685,2.1459,-7.5874,5.2499,3.2,0.6261,-0.9043
1690,2.1843,-7.5491,5.5564,3.2696,0.6261,-0.8348
1695,2.1843,-7.8557,5.2882,3.2,0.5565,-0.8348
1700,2.0693,-7.7024,5.2499,3.0609,0.5565,-0.7652
1705,2.2609,-7.5491,5.3265,3.0609,0.6261,-0.8348
1710,2.031,-7.5108,5.3648,2.9217,0.5565,-0.9043
1715,2.1076,-7.5874,5.2882,2.9913,0.5565,-0.7652
1720,2.0693,-7.5108,5.2499,2.8522,0.5565,-0.7652
1725,2.0693,-7.4341,5.4032,2.8522,0.6261,-0.7652
1730,2.0693,-7.5108,5.3265,2.7826,0.5565,-0.8348
1735,2.0693,-7.6257,5.2116,2.713,0.5565,-0.8348
1740,2.1076,-7.7407,5.4415,2.5739,0.487,-0.8348
1745,2.1076,-7.7024,5.1732,2.5043,0.487,-0.8348
1750,2.031,-7.7024,5.5181,2.4348,0.3478,-0.9043
1755,2.1076,-7.6641,5.2882,2.4348,0.2783,-0.9043
1760,2.1076,-7.6641,5.2499,2.3652,0.4174,-0.9043
1765,1.9927,-7.5108,5.2499,2.2261,0.4174,-0.9043
1770,2.0693,-7.6257,5.2499,2.2957,0.487,-1.0435
1775,1.9927,-7.5491,5.2116,2.2957,0.6261,-0.9739
1780,2.1459,-7.7024,5.2499,2.2261,0.5565,-0.9043
1785,2.2609,-7.7407,5.2882,2.2957,0.6261,-0.9739
1790,2.1843,-7.6641,5.4415,2.3652,0.5565,-1.0435
1795,2.031,-7.5874,5.4032,2.5043,0.5565,-1.0435
1800,2.1076,-7.6257,5.2499,2.4348,0.4174,-1.0435
1805,1.8777,-7.4725,5.1349,2.3652,0.3478,-1.1826
1810,2.0693,-7.6641,5.2116,2.3652,0.3478,-0.9739
1815,2.1076,-7.6257,5.2882,2.3652,0.4174,-0.8348
1820,1.9927,-7.5874,5.2116,2.3652,0.487,-0.9043
1825,2.031,-7.5874,5.2116,2.4348,0.5565,-0.9739
1830,2.2226,-7.7407,5.3265,2.5043,0.6957,-1.0435
1835,2.031,-7.4725,5.2116,2.4348,0.7652,-0.9739
1840,1.9543,-7.6257,5.3648,2.4348,0.7652,-0.9739
1845,2.1076,-7.6257,5.2499,2.5043,0.6957,-0.9739
1850,2.1076,-7.5874,5.0583,2.4348,0.6957,-0.8348
1855,2.1076,-7.6641,5.3265,2.4348,0.6957,-0.9043
1860,2.1459,-7.6641,5.2882,2.5043,0.4174,-1.0435
1865,1.9927,-7.5874,5.2499,2.4348,0.3478,-0.9739
1870,2.1076,-7.5108,5.3648,2.5043,0.1391,-0.9739
1875,2.2226,-7.6641,5.2882,2.3652,0.2087,-1.0435
1880,1.916,-7.6257,5.2882,2.4348,0.2087,-1.0435
1885,2.0693,-7.5491,5.1732,2.4348,0.2087,-1.0435
1890,2.0693,-7.6257,5.2116,2.5043,0.3478,-1.113
1895,2.1076,-7.6257,5.1732,2.4348,0.2783,-1.113
1900,2.1459,-7.7407,5.2499,2.6435,0.2087,-1.0435
1905,2.031,-7.6641,5.2882,2.5739,0.0696,-1.0435
1910,2.0693,-7.5491,5.2499,2.5739,-0.1391,-1.2522
1915,2.0693,-7.4725,5.02,2.5739,-0.2783,-1.113
1920,2.1843,-7.5108,5.2882,2.5739,-0.2783,-1.3217
1925,2.031,-7.6257,5.1732,2.5043,-0.2783,-1.3217
1930,2.031,-7.5874,5.4415,2.5739,-0.2087,-1.2522
1935,2.0693,-7.5874,5.2882,2.5043,-0.1391,-1.3217
1940,2.1076,-7.6257,5.2882,2.5739,0.0696,-1.3217
1945,2.031,-7.5491,5.0966,2.4348,0.2783,-1.3217
1950,1.9927,-7.5874,5.2499,2.3652,0.4174,-1.3217
1955,2.031,-7.5108,5.2116,2.3652,0.6261,-1.4609
1960,1.9543,-7.6641,5.4415,2.2261,0.6261,-1.3913
1965,2.031,-7.8557,5.4798,2.1565,0.6957,-1.3217
1970,2.1076,-7.6257,5.2116,2.0174,0.6261,-1.3217
1975,2.0693,-7.6257,5.2116,2.0174,0.6957,-1.3217
1980,2.1459,-7.6641,5.0583,1.9478,0.6957,-1.2522
1985,2.031,-7.6257,5.3265,1.8783,0.6261,-1.1826
1990,2.0693,-7.6257,5.2882,1.8087,0.487,-1.1826
1995,2.1843,-7.7024,5.1732,1.8087,0.5565,-1.1826
2000,1.9927,-7.5874,5.2116,1.8783,0.6957,-1.1826
2005,2.0693,-7.5874,5.2499,1.8783,0.5565,-1.1826
2010,2.1076,-7.5108,5.1349,2.0174,0.6261,-1.0435
2015,2.1459,-7.6641,5.2116,2.087,0.3478,-1.1826
2020,2.2609,-7.5108,5.02,2.1565,0.2783,-1.0435
2025,2.1076,-7.7024,5.1349,2.087,0.0696,-1.2522
2030,2.1459,-7.5874,5.0966,2.0174,0.1391,-1.2522
2035,2.1076,-7.5108,5.1349,1.8783,0.0696,-1.3217
2040,2.1459,-7.6257,5.1732,1.7391,0.0696,-1.1826
2045,1.9927,-7.5491,5.2499,1.6,0.1391,-1.2522
2050,1.9927,-7.5874,5.1732,1.4609,0.2087,-1.3217
2055,2.1076,-7.5874,5.0966,1.3217,0.2087,-1.2522
2060,2.031,-7.6641,5.0966,1.3913,0.2783,-1.113
2065,1.916,-7.5491,5.2499,1.3913,0.2783,-1.113
2070,2.2226,-7.779,5.2116,1.4609,0.3478,-1.2522
2075,1.9927,-7.8173,5.2882,1.6,0.2783,-1.0435
2080,2.1076,-7.7024,5.2116,1.6,0.2087,-1.1826
2085,2.0693,-7.7024,5.3265,1.7391,0.0696,-1.113
2090,2.2226,-7.7024,5.3265,1.6696,0.2087,-1.1826
2095,1.9543,-7.7024,5.3265,1.8087,0.1391,-1.1826
2100,2.0693,-7.6257,5.2116,1.8783,0.2087,-1.3217
2105,2.1076,-7.7024,5.0966,1.9478,0.2783,-1.4609
2110,2.0693,-7.6641,5.1349,2.087,0.3478,-1.4609
2115,2.1076,-7.7024,5.1732,2.2957,0.2783,-1.3913
2120,2.0693,-7.779,5.1732,2.4348,0.2783,-1.5304
2125,2.1459,-7.779,5.2499,2.7826,0.2087,-1.5304
2130,2.0693,-7.779,5.1349,2.9217,0.2087,-1.5304
2135,2.031,-7.7407,5.1732,3.0609,0.0696,-1.6
2140,2.1843,-7.6641,5.1349,3.2,0.1391,-1.6
2145,2.031,-7.6257,5.1349,3.2696,0.2087,-1.5304
2150,2.1076,-7.5874,5.0966,3.3391,0.2783,-1.3217
2155,2.1843,-7.6257,5.0583,3.4087,0.487,-1.3217
2160,2.1459,-7.5108,4.9816,3.3391,0.5565,-1.3217
2165,2.1459,-7.6641,5.02,3.3391,0.6957,-1.3913
2170,2.1459,-7.7024,5.1732,3.2696,0.8348,-1.3217
2175,2.0693,-7.6641,5.0583,3.2696,0.9043,-1.3913
2180,2.1459,-7.5108,5.2882,3.0609,0.9739,-1.3217
2185,2.1076,-7.5491,4.9816,2.9913,0.9739,-1.2522
2190,2.1076,-7.5874,5.02,2.8522,0.9739,-1.3217
2195,2.031,-7.5108,5.1349,2.713,1.0435,-1.3913
2200,2.1843,-7.6257,5.2116,2.5739,1.0435,-1.3913
2205,2.1459,-7.5874,5.0583,2.5043,1.1826,-1.2522
2210,2.1459,-7.6257,5.2116,2.2957,1.2522,-1.2522
2215,2.2609,-7.4725,5.2116,2.2261,1.0435,-1.2522
2220,2.1843,-7.5491,5.02,2.087,0.9739,-1.113
2225,2.2226,-7.7407,5.1349,2.0174,0.8348,-1.113
2230,2.1076,-7.5874,5.2882,2.087,0.6957,-1.0435
2235,2.1076,-7.7024,5.02,2.087,0.5565,-0.9043
2240,2.1076,-7.6257,5.02,1.9478,0.4174,-0.9043
2245,2.1843,-7.7024,5.2116,1.8783,0.3478,-0.9739
2250,1.9927,-7.6641,4.9816,2.0174,0.3478,-0.8348
2255,2.2226,-7.7024,5.1732,1.9478,0.1391,-0.8348
2260,2.1076,-7.6641,5.1349,1.8087,0.0696,-0.8348
2265,2.1843,-7.6641,5.0966,1.7391,0.1391,-0.7652
2270,2.2226,-7.7407,5.1732,1.7391,0.1391,-0.7652
2275,2.1843,-7.7024,5.1349,1.8087,0.1391,-0.8348
2280,2.1843,-7.7024,5.2116,1.8087,0.0696,-0.7652
2285,2.2609,-7.8557,5.2882,1.8783,0.2087,-0.8348
2290,2.2226,-7.7407,5.2116,2.087,0.1391,-0.8348
2295,1.9927,-7.5491,5.1349,2.1565,0.2783,-0.8348
2300,2.1459,-7.7024,5.0966,2.4348,0.2783,-0.7652
2305,2.0693,-7.5874,5.0966,2.5739,0.4174,-0.6957
2310,2.1076,-7.6257,5.0966,2.713,0.487,-0.6261
2315,2.031,-7.6257,5.1732,2.9913,0.5565,-0.6957
2320,2.0693,-7.6641,5.2116,3.1304,0.5565,-0.6957
2325,2.0693,-7.7407,5.0966,3.2,0.5565,-0.7652
2330,1.916,-7.5491,5.2882,3.3391,0.6261,-0.6957
2335,2.1843,-7.6641,5.02,3.3391,0.6261,-0.8348
2340,2.1076,-7.6257,5.0966,3.4087,0.6957,-0.6957
2345,2.0693,-7.7407,5.0583,3.3391,0.6957,-0.8348
2350,2.031,-7.7024,5.2499,3.4087,0.7652,-0.8348
2355,2.0693,-7.7024,5.1349,3.2696,0.8348,-1.0435
2360,2.0693,-7.5874,5.3265,3.2,0.9739,-0.9739
2365,2.0693,-7.6257,5.1732,3.2,1.113,-0.9739
2370,2.2609,-7.6641,5.0583,3.1304,1.1826,-0.8348
2375,2.1076,-7.5491,5.1349,3.2,1.2522,-0.8348
2380,2.0693,-7.7407,5.0583,3.1304,1.2522,-0.9043
2385,2.1459,-7.6257,5.02,3.2696,1.3217,-0.9739
2390,2.031,-7.7024,5.2499,3.2696,1.1826,-0.8348
2395,2.1076,-7.6257,5.0583,3.3391,1.113,-0.6957
2400,2.2226,-7.779,5.0966,3.4087,1.0435,-0.8348
2405,2.1076,-7.7407,5.0583,3.4783,0.9043,-0.7652
2410,2.1459,-7.779,5.0583,3.6174,0.6261,-0.7652
2415,2.1076,-7.6641,5.2499,3.687,0.487,-0.6957
2420,2.1843,-7.6257,5.02,3.8261,0.487,-0.6957
2425,2.1459,-7.6641,5.0966,3.9652,0.4174,-0.6957
2430,2.1459,-7.5874,5.1349,4.0348,0.4174,-0.7652
2435,2.1459,-7.6257,5.2116,4.0348,0.4174,-0.6957
2440,2.0693,-7.5108,5.0583,4.1043,0.4174,-0.6261
2445,2.0693,-7.6257,5.02,4.1043,0.6261,-0.7652
2450,1.9927,-7.5491,4.9816,4.1739,0.6261,-0.6957
2455,2.0693,-7.7024,5.1349,4.1043,0.7652,-0.6261
2460,2.1076,-7.5108,5.0966,4.1739,0.8348,-0.6261
2465,2.0693,-7.7024,5.0966,4.313,0.9043,-0.487
2470,2.1459,-7.6641,5.0966,4.1739,1.0435,-0.487
2475,2.1076,-7.5108,5.1349,4.2435,1.0435,-0.5565
2480,2.1459,-7.7024,5.2499,4.313,0.9739,-0.487
2485,2.1459,-7.6641,4.9816,4.3826,1.0435,-0.4174
2490,2.1459,-7.5108,5.2116,4.4522,0.9739,-0.4174
2495,2.0693,-7.7024,5.0966,4.3826,0.9043,-0.5565
2500,2.0693,-7.6257,5.1349,4.5217,1.0435,-0.487
2505,2.2992,-7.8173,5.2116,4.4522,0.9739,-0.6261
2510,1.8394,-7.8557,5.1349,4.5913,0.9739,-0.5565
2515,2.1459,-7.6641,5.1349,4.6609,0.9739,-0.5565
2520,2.1843,-7.7024,5.0966,4.5913,0.9739,-0.487
2525,2.031,-7.6257,5.3648,4.5913,0.9739,-0.487
2530,2.1459,-7.7024,5.0583,4.5913,0.9739,-0.4174
2535,2.1843,-7.7024,5.1732,4.4522,0.9739,-0.4174
2540,2.1459,-7.5491,5.1732,4.4522,0.9739,-0.487
2545,2.1843,-7.7024,5.2116,4.3826,0.9043,-0.2783
2550,2.1459,-7.8173,5.3265,4.4522,1.0435,-0.2783
2555,2.1459,-7.6257,4.9816,4.3826,0.9739,-0.3478
2560,2.1459,-7.4725,5.0583,4.2435,1.0435,-0.2783
2565,2.2609,-7.779,5.2116,4.2435,0.9043,-0.1391
2570,2.1459,-7.5491,5.1732,4.313,0.9043,-0.2783
2575,2.1076,-7.6257,5.2116,4.2435,0.9043,-0.2783
2580,2.1076,-7.4725,5.2116,4.2435,0.7652,-0.3478
2585,2.1076,-7.7024,5.1732,4.3826,0.7652,-0.3478
2590,2.2609,-7.7024,4.9433,4.5217,0.6957,-0.3478
2595,2.1459,-7.6641,5.0583,4.5913,0.6957,-0.2087
2600,1.9927,-7.5874,5.2499,4.7304,0.7652,-0.2087
2605,2.1076,-7.7407,5.2116,4.8,0.8348,-0.2087
2610,2.0693,-7.6257,5.1732,4.8,0.9739,-0.2783
2615,2.1076,-7.5491,5.2499,4.8696,1.0435,-0.2087
2620,2.1076,-7.6257,5.1732,5.0087,1.2522,-0.2783
2625,2.1843,-7.5874,5.2116,4.9391,1.3217,-0.1391
2630,2.1843,-7.6257,5.2116,4.9391,1.4609,-0.0696
2635,2.1076,-7.6257,5.0966,4.9391,1.5304,-0.0696
2640,2.1076,-7.6257,5.2116,4.9391,1.7391,-0.0696
2645,2.1076,-7.7024,5.0966,4.9391,1.8087,-0.0696
2650,2.0693,-7.5874,5.2116,4.8,1.8783,-0.2087
2655,2.1459,-7.6257,5.0583,4.8,2.0174,-0.2783
2660,2.1076,-7.6641,5.0966,4.6609,2.087,-0.2783
2665,2.1843,-7.7407,5.2499,4.6609,2.1565,-0.487
2670,2.1843,-7.7024,5.4032,4.4522,2.1565,-0.487
2675,2.1076,-7.8557,5.1732,4.313,2.1565,-0.5565
2680,2.1076,-7.5108,5.0583,4.1043,1.9478,-0.487
2685,2.1076,-7.6257,5.1349,3.8261,1.6696,-0.487
2690,1.9543,-7.6257,5.0966,3.5478,1.3913,-0.5565
2695,2.0693,-7.6257,5.1349,3.2696,1.0435,-0.3478
2700,1.916,-7.6257,5.0583,3.2,0.7652,-0.4174
2705,1.916,-7.7024,5.1732,3.2,0.4174,-0.3478
2710,1.8394,-7.5491,5.02,3.3391,0.0696,-0.3478
2715,1.9543,-7.6641,5.2116,3.5478,-0.2087,-0.2783
2720,1.9543,-7.6641,5.2116,3.8957,-0.3478,-0.2087
2725,2.031,-7.5874,5.3648,4.1043,-0.3478,-0.2783
2730,2.2609,-7.5108,5.0583,4.313,-0.2783,-0.2783
2735,2.0693,-7.7024,5.1349,4.4522,-0.2087,-0.1391
2740,2.0693,-7.7407,5.1732,4.4522,-0.1391,-0.1391
2745,2.2609,-7.7024,5.1732,4.4522,-0.0696,-0.1391
2750,2.0693,-7.779,5.2116,4.3826,0.0696,-0.1391
2755,2.031,-7.7407,5.1732,4.4522,0.0696,-0.1391
2760,2.1459,-7.7407,5.0966,4.3826,0.1391,-0.1391
2765,2.1076,-7.6641,5.0583,4.5913,0.0696,-0.2783
2770,2.0693,-7.779,5.1732,4.8,0.0696,-0.4174
2775,2.1459,-7.7407,5.0966,4.9391,0.0,-0.3478
2780,1.9927,-7.5874,5.1732,5.1478,-0.0696,-0.4174
2785,1.9927,-7.7024,5.1349,5.287,0.0696,-0.5565
2790,2.0693,-7.5874,5.1349,5.4261,0.0,-0.487
2795,2.1843,-7.6257,5.0966,5.5652,-0.1391,-0.487
2800,1.9927,-7.5874,5.1732,5.6348,-0.1391,-0.6261
2805,1.9927,-7.5108,5.0583,5.7739,-0.1391,-0.6957
2810,2.1459,-7.5874,5.0966,5.7043,-0.0696,-0.6957
2815,2.1076,-7.5874,5.1732,5.4957,-0.2087,-0.7652
2820,2.0693,-7.5491,5.0966,5.287,-0.2087,-0.7652
2825,2.1459,-7.5874,5.2499,5.1478,-0.2783,-0.6957
2830,1.9927,-7.5108,5.2882,5.0087,-0.2783,-0.6957
2835,2.0693,-7.7024,5.1349,4.8,-0.1391,-0.6957
2840,2.1076,-7.6257,5.1732,4.7304,-0.0696,-0.6957
2845,2.1076,-7.7024,5.4032,4.6609,0.0,-0.5565
2850,2.1076,-7.6257,5.3265,4.5217,0.1391,-0.6957
2855,2.031,-7.5874,5.0966,4.313,0.2783,-0.6261
2860,2.1459,-7.6257,5.2116,4.1043,0.2087,-0.6261
2865,2.0693,-7.6641,5.0583,4.0348,0.2783,-0.5565
2870,2.0693,-7.5491,5.1732,3.6174,0.1391,-0.5565
2875,2.1459,-7.6257,5.0966,3.3391,0.1391,-0.6261
2880,2.0693,-7.5108,5.0966,3.1304,0.0696,-0.6261
2885,2.1843,-7.5874,5.02,2.9913,0.0696,-0.8348
2890,2.1459,-7.4341,5.2882,2.713,0.1391,-0.9043
2895,1.9927,-7.3575,5.1732,2.2957,0.487,-0.6957
2900,1.9927,-7.3958,4.9433,1.8783,0.9739,-0.0696
2905,2.1459,-7.3575,4.79,0.9739,1.9478,0.8348
2910,2.0693,-7.3958,4.7134,-0.9043,3.2,1.8783
2915,1.8394,-7.3958,5.02,-2.5739,4.1043,2.5043
2920,1.8394,-7.4341,5.2499,-3.4783,3.9652,2.5043
2925,1.8011,-7.5874,5.6331,-2.5739,2.087,2.5043
2930,1.9543,-7.6257,5.6331,0.0696,-0.8348,3.2696
2935,2.1076,-7.4725,5.2499,2.3652,-2.2957,5.3565
2940,1.916,-7.4725,4.9433,2.7826,-0.6957,7.6522
2945,2.1843,-7.5874,4.9816,1.113,2.2261,8.6261
2950,1.8011,-7.894,5.3265,-0.8348,3.2696,8.1391
2955,1.8011,-7.779,5.4798,-1.6696,2.0174,7.5826
2960,1.916,-7.779,5.4415,-1.4609,0.2783,7.5826
2965,1.916,-7.7024,5.2882,-0.9043,-0.9043,8.0
2970,1.9543,-7.7024,5.3265,-0.487,-1.6,7.7913
2975,1.8394,-7.8173,5.1732,-0.7652,-1.8783,7.513
2980,1.8394,-7.6641,5.0583,-1.8783,-1.3913,7.8609
2985,1.8011,-7.7024,5.02,-3.2696,-0.6261,7.8609
2990,1.916,-7.779,5.02,-4.5217,-0.0696,7.3739
2995,1.9543,-7.8173,5.3265,-5.287,-0.0696,7.1652
