timestamp,accX,accY,accZ,gyroX,gyroY,gyroZ
0,0.958,-9.4268,0.7664,5.7043,-0.0696,0.4174
5,0.8814,-9.4651,0.8814,5.7739,-0.0696,0.487
10,0.8814,-9.3885,0.7664,5.913,0.0,0.4174
15,0.843,-9.4651,0.7281,6.0522,0.0,0.487
20,0.958,-9.4651,0.8047,6.2609,0.0696,0.4174
25,0.9963,-9.5034,0.7664,6.4,0.2087,0.5565
30,0.843,-9.3885,0.7664,6.4696,0.2783,0.6261
35,0.843,-9.4268,0.7664,6.5391,0.487,0.6957
40,0.9197,-9.5801,0.7664,6.4,0.487,0.6957
45,0.958,-9.5034,0.7281,6.3304,0.6261,0.7652
50,0.8814,-9.5418,0.7281,6.3304,0.6261,0.9043
55,0.9197,-9.5034,0.9197,6.3304,0.6261,0.8348
60,0.958,-9.5034,0.7664,6.4696,0.5565,0.9043
65,0.9963,-9.5801,0.6898,6.6087,0.5565,0.9739
70,0.9963,-9.6184,0.7664,7.0957,0.4174,0.9739
75,0.958,-9.5418,0.9197,7.6522,0.1391,0.8348
80,0.843,-9.5801,0.8047,8.0696,0.2783,0.8348
85,0.9963,-9.5418,0.6898,8.487,0.3478,0.7652
90,0.958,-9.4651,0.9197,8.9739,0.487,0.6957
95,0.958,-9.5418,0.7281,9.3913,0.6261,0.9043
100,0.9197,-9.4651,0.6514,9.7391,0.8348,0.8348
105,0.9963,-9.5034,0.9197,10.1565,0.9739,1.0435
110,1.0346,-9.5418,0.9197,10.3652,1.0435,0.9739
115,0.8814,-9.5034,0.843,10.7826,1.1826,0.7652
120,0.8047,-9.4268,0.7664,11.1304,1.1826,0.6957
125,0.958,-9.5418,0.843,11.4783,1.2522,0.6957
130,0.9197,-9.4651,0.843,11.6174,1.2522,0.5565
135,0.9963,-9.3885,0.7664,11.687,1.2522,0.487
140,0.9197,-9.4268,0.843,11.5478,1.113,0.487
145,0.8047,-9.3885,0.958,11.0609,0.9043,0.4174
150,0.8814,-9.3502,0.8814,10.4348,0.8348,0.4174
155,0.9197,-9.3118,0.958,9.8087,0.7652,0.1391
160,0.9197,-9.3502,0.9963,9.0435,0.7652,-0.0696
165,0.843,-9.3885,0.843,8.3478,0.9043,-0.1391
170,0.9197,-9.4268,1.0346,7.7217,1.0435,-0.2783
175,0.8047,-9.3502,0.9963,7.0261,1.113,-0.3478
180,0.9197,-9.0436,1.073,6.4696,1.1826,-0.4174
185,0.8814,-9.4651,0.9197,5.9826,1.2522,-0.5565
190,0.7664,-9.4651,0.8814,5.7043,1.1826,-0.487
195,0.8814,-9.3885,0.958,5.4957,1.1826,-0.487
200,0.7281,-9.4651,0.8814,5.7043,1.113,-0.6957
205,0.7664,-9.5801,0.7664,5.913,1.0435,-0.5565
210,0.843,-9.695,0.9963,6.4,0.9043,-0.5565
215,0.8047,-9.4268,0.9197,6.887,0.9043,-0.5565
220,0.8047,-9.5034,1.0346,7.3739,0.7652,-0.5565
225,0.6898,-9.4268,0.958,7.7913,0.6261,-0.6957
230,0.8047,-9.3885,0.958,8.1391,0.4174,-0.6957
235,0.7281,-9.4268,0.958,8.3478,0.1391,-0.7652
240,0.8814,-9.4651,0.8814,8.3478,0.0696,-0.6957
245,0.8047,-9.3502,0.958,8.2087,0.0,-0.7652
250,0.8047,-9.4268,0.9963,7.9304,0.0696,-0.8348
255,0.8814,-9.4268,0.9197,7.5826,0.0696,-0.8348
260,0.843,-9.4268,0.9197,7.1652,0.2087,-0.7652
265,0.7664,-9.3502,0.8814,6.6087,0.2783,-0.8348
270,0.7281,-9.3885,1.073,5.913,0.487,-0.9043
275,0.843,-9.3502,0.9963,5.2174,0.5565,-0.9043
280,0.7664,-9.925,0.6898,4.5913,0.6957,-0.9739
285,0.6131,-9.1969,0.3832,4.1043,0.8348,-0.9043
290,0.8047,-9.3885,0.9963,3.687,0.9043,-0.9043
295,0.8814,-9.5034,0.843,3.5478,0.9043,-0.9043
300,0.8814,-9.5418,0.9963,3.6174,0.9739,-0.8348
305,0.8814,-9.4651,0.7664,3.7565,0.9043,-0.7652
310,0.958,-9.3885,0.8814,4.0348,0.6957,-0.9043
315,0.8814,-9.4651,0.8047,4.313,0.6261,-0.9739
320,0.8814,-9.5418,0.843,4.5913,0.487,-0.8348
325,0.9197,-9.4651,0.958,4.7304,0.4174,-0.8348
330,0.843,-9.4268,0.9963,4.6609,0.2087,-0.9043
335,0.9963,-9.5034,0.9197,4.5913,0.1391,-1.0435
340,0.8814,-9.5034,0.958,4.4522,0.1391,-1.113
345,0.9197,-9.4268,0.9963,4.4522,0.0696,-1.0435
350,0.843,-9.3502,0.8814,4.2435,0.0696,-1.113
355,0.958,-9.5418,0.8814,4.1043,0.1391,-1.113
360,0.8814,-9.4268,1.0346,3.9652,0.2783,-1.0435
365,0.843,-9.4651,0.9197,3.9652,0.4174,-1.0435
370,0.7664,-9.5034,0.9963,3.8957,0.5565,-0.9043
375,0.958,-9.5034,0.8814,3.8957,0.6957,-0.8348
380,0.843,-9.5034,0.958,3.9652,0.6957,-0.9043
385,0.9963,-9.5034,0.843,3.8957,0.7652,-0.9739
390,0.8047,-9.2352,0.843,3.8261,0.8348,-0.9739
395,0.8814,-9.4268,0.8814,3.7565,0.9043,-0.9043
400,0.958,-9.4268,0.843,3.8957,0.9043,-0.6957
405,0.8047,-9.4268,0.9197,4.1043,0.9043,-0.6957
410,0.958,-9.4268,0.9197,4.2435,0.9043,-0.5565
415,0.9197,-9.5034,0.8814,4.313,0.9043,-0.6261
420,0.7664,-9.3502,0.9963,4.5217,0.9739,-0.5565
425,0.7664,-9.3502,0.843,4.7304,0.9739,-0.5565
430,0.8814,-9.4651,0.958,4.9391,0.9739,-0.5565
435,0.843,-9.4651,0.958,5.0783,1.0435,-0.5565
440,0.9197,-9.5034,0.7664,5.0783,1.0435,-0.5565
445,0.9197,-9.4651,0.843,5.0783,0.9739,-0.6261
450,0.8814,-9.5418,0.9197,5.1478,0.9739,-0.6261
455,0.958,-9.5034,1.0346,5.2174,0.9043,-0.6261
460,0.843,-9.5801,0.958,5.3565,0.9043,-0.5565
465,0.8814,-9.3885,0.9963,5.4261,1.113,-0.6261
470,0.8814,-9.4268,1.0346,5.4261,1.1826,-0.5565
475,0.8047,-9.4268,0.9963,5.4261,1.3913,-0.487
480,0.958,-9.5034,0.9963,5.4261,1.5304,-0.6957
485,0.8814,-9.4651,0.9963,5.3565,1.7391,-0.5565
490,0.9197,-9.4651,1.073,5.1478,1.8087,-0.6261
495,0.7281,-9.4268,0.958,5.0087,1.8087,-0.6261
500,0.8047,-9.2735,0.958,4.9391,1.6696,-0.6957
505,0.8814,-9.3118,0.843,4.9391,1.5304,-0.6261
510,0.843,-9.3502,0.8814,4.9391,1.3913,-0.487
515,0.9197,-9.4268,1.0346,5.0783,1.3217,-0.7652
520,0.958,-9.5034,1.073,5.2174,1.1826,-0.8348
525,0.8814,-9.5034,0.958,5.4957,0.9043,-0.9043
530,0.8047,-9.3885,1.1113,5.6348,0.7652,-0.8348
535,0.8047,-9.4268,1.073,5.7043,0.5565,-0.9043
540,0.8814,-9.3885,1.1879,5.5652,0.5565,-0.7652
545,0.7664,-9.4268,0.9963,5.3565,0.4174,-0.6957
550,0.843,-9.3502,0.9963,5.0783,0.4174,-0.8348
555,0.8814,-9.3118,1.073,4.7304,0.487,-0.8348
560,0.8047,-9.3885,0.9963,4.313,0.6261,-0.9043
565,0.8047,-9.3885,1.073,4.0348,0.7652,-1.0435
570,0.8814,-9.3502,1.0346,3.8261,0.7652,-0.9739
575,0.7664,-9.5034,1.1879,3.5478,0.8348,-1.0435
580,0.843,-9.4651,1.2263,3.3391,0.8348,-1.3217
585,0.8814,-9.5034,1.1879,3.2,0.9739,-1.3217
590,0.843,-9.4268,1.1496,3.2,1.0435,-1.3913
595,0.8814,-9.5418,1.0346,3.2696,1.0435,-1.3217
600,0.843,-9.4268,1.1496,3.3391,1.113,-1.4609
605,0.8047,-9.4268,1.073,3.5478,1.1826,-1.6
610,0.843,-9.5034,1.1113,3.6174,1.2522,-1.6696
615,0.9197,-9.3502,1.0346,3.687,1.3217,-1.7391
620,0.8814,-9.4268,0.9197,3.4783,1.2522,-1.8087
625,0.843,-9.3885,1.0346,3.3391,1.2522,-1.8783
630,0.958,-9.3885,0.958,3.1304,1.1826,-1.7391
635,0.958,-9.3885,1.073,2.8522,1.2522,-1.8087
640,0.9197,-9.4651,1.073,2.4348,1.113,-1.6
645,0.9197,-9.4268,1.1496,2.0174,1.113,-1.7391
650,0.8814,-9.3885,1.0346,1.8087,0.9739,-1.7391
655,0.8047,-9.5034,0.958,1.3913,0.8348,-1.6696
660,0.7664,-9.4268,1.0346,1.2522,0.6261,-1.5304
665,0.8814,-9.5418,0.8814,1.4609,0.5565,-1.4609
670,0.7664,-9.5034,0.9197,1.7391,0.2783,-1.6
675,0.8814,-9.5801,0.8814,2.2957,0.0696,-1.6696
680,0.9197,-9.5418,1.1113,2.9913,-0.1391,-1.8087
685,0.843,-9.6184,0.8814,3.687,-0.2783,-1.7391
690,0.843,-9.4268,0.843,4.313,-0.3478,-1.8783
695,0.843,-9.5418,0.9197,4.9391,-0.2783,-2.0174
700,0.8047,-9.4268,0.8814,5.4957,-0.2087,-2.087
705,0.8814,-9.5034,0.7664,5.9826,-0.2087,-2.2261
710,0.843,-9.3502,0.9963,6.3304,-0.1391,-2.1565
715,0.9197,-9.4268,0.9963,6.6087,0.0,-2.087
720,0.843,-9.4651,0.8814,6.7478,0.0696,-2.1565
725,0.843,-9.3885,0.9197,6.6783,0.0696,-2.1565
730,0.9963,-9.5034,0.958,6.4696,0.2783,-2.2261
735,0.958,-9.2735,1.0346,6.1913,0.2087,-2.087
740,0.8814,-9.3502,1.0346,5.7043,0.2783,-1.9478
745,0.8047,-9.3118,1.0346,5.2174,0.1391,-1.8783
750,0.8814,-9.3502,1.1113,4.8696,0.1391,-1.8087
755,0.8814,-9.2735,0.8047,4.5217,0.1391,-1.6
760,0.9197,-9.3885,1.1879,4.3826,0.0,-1.3913
765,0.8814,-9.3885,1.1113,4.1739,-0.0696,-1.2522
770,0.9197,-9.4268,0.9197,4.1043,-0.0696,-1.113
775,0.843,-9.3885,0.958,3.9652,-0.1391,-1.113
780,0.8047,-9.3502,0.9963,4.0348,-0.2087,-1.0435
785,0.843,-9.4268,1.0346,4.1043,-0.2087,-1.1826
790,0.8814,-9.4651,1.1113,4.0348,-0.3478,-1.2522
795,0.958,-9.4268,0.9963,4.1043,-0.487,-1.3217
800,0.9197,-9.3118,0.9963,4.1043,-0.4174,-1.3217
805,0.958,-9.4268,1.0346,4.2435,-0.5565,-1.3217
810,0.9963,-9.3502,1.1113,4.2435,-0.487,-1.4609
815,0.8814,-9.3885,1.1496,4.2435,-0.5565,-1.5304
820,1.073,-9.5418,0.958,4.2435,-0.487,-1.6696
825,1.073,-9.2735,1.073,4.0348,-0.3478,-1.5304
830,0.9963,-9.3885,1.0346,3.9652,-0.4174,-1.4609
835,0.8814,-9.3502,1.1496,3.8957,-0.2087,-1.5304
840,0.9963,-9.4268,1.073,3.8261,-0.2087,-1.5304
845,0.9963,-9.4268,0.958,3.7565,-0.1391,-1.4609
850,0.958,-9.3502,1.1113,3.8261,-0.1391,-1.5304
855,0.9963,-9.4268,1.1113,3.7565,-0.0696,-1.5304
860,0.9963,-9.3502,1.0346,3.8261,-0.1391,-1.5304
865,1.0346,-9.3885,1.1113,3.8957,-0.1391,-1.5304
870,1.0346,-9.5418,1.2263,3.9652,-0.1391,-1.5304
875,1.0346,-9.4651,1.0346,3.9652,-0.1391,-1.4609
880,1.0346,-9.5034,1.073,4.0348,0.0696,-1.4609
885,0.958,-9.5034,0.9963,3.8957,0.2783,-1.5304
890,0.843,-9.3885,1.0346,3.9652,0.3478,-1.4609
895,0.9963,-9.4651,0.958,3.8261,0.4174,-1.2522
900,0.958,-9.4268,1.0346,3.8261,0.3478,-1.3217
905,0.958,-9.4651,1.073,3.8261,0.3478,-1.1826
910,0.8814,-9.3885,1.073,3.7565,0.2783,-1.1826
915,0.9197,-9.4268,1.0346,3.7565,0.2783,-0.9739
920,0.958,-9.3502,1.0346,3.7565,0.2783,-1.0435
925,1.1879,-9.3885,0.958,3.6174,0.2087,-0.9739
930,0.9197,-9.4268,1.0346,3.5478,0.2783,-0.9739
935,0.9197,-9.5801,0.958,3.5478,0.2087,-0.8348
940,0.958,-9.3118,0.9197,3.5478,0.1391,-0.8348
945,0.8814,-9.4268,0.9963,3.6174,0.1391,-0.6957
950,0.958,-9.5034,0.9197,3.687,0.2087,-0.7652
955,0.9197,-9.3502,1.1496,3.687,0.3478,-0.9739
960,0.9197,-9.3502,0.958,3.5478,0.487,-0.9739
965,0.8814,-9.3502,0.9197,3.4087,0.6957,-1.0435
970,0.9197,-9.3885,0.9963,3.2,0.7652,-1.113
975,0.843,-9.3885,0.958,3.0609,0.9043,-1.0435
980,0.8814,-9.4268,1.073,2.9217,0.9739,-1.0435
985,0.843,-9.3118,0.9963,2.7826,0.9739,-1.113
990,0.9197,-9.3118,0.9197,2.6435,1.0435,-1.1826
995,1.073,-9.5418,1.0346,2.5043,0.9739,-1.1826
1000,0.958,-9.4268,1.1113,2.2957,0.9043,-0.9739
1005,0.958,-9.3502,0.958,2.1565,0.7652,-1.0435
1010,1.0346,-9.5801,1.0346,1.9478,0.6957,-0.9739
1015,0.9963,-9.4268,0.958,1.7391,0.5565,-0.8348
1020,0.958,-9.3118,1.0346,1.4609,0.3478,-0.8348
1025,1.0346,-9.4651,0.9963,1.3913,0.2783,-0.7652
1030,0.9197,-9.5801,1.1113,1.3913,0.2783,-0.7652
1035,1.073,-9.4651,0.9197,1.2522,0.2783,-0.7652
1040,0.958,-9.4268,0.8814,1.1826,0.2087,-0.8348
1045,0.8814,-9.3502,0.9197,0.9739,0.2783,-0.8348
1050,0.9963,-9.3885,0.9197,1.0435,0.2783,-0.7652
1055,0.843,-9.5034,0.9963,1.1826,0.2783,-0.8348
1060,1.0346,-9.5801,1.073,1.3217,0.2087,-0.7652
1065,0.843,-9.3885,1.073,1.5304,0.1391,-0.8348
1070,0.8814,-9.4268,0.9197,1.7391,0.0696,-0.8348
1075,0.9197,-9.5418,0.9963,1.8783,0.0696,-0.9739
1080,0.8814,-9.3885,0.9197,1.8783,0.0,-0.9043
1085,0.843,-9.4268,0.9197,1.8087,0.0696,-0.7652
1090,0.8047,-9.4651,0.843,1.7391,0.0,-0.9043
1095,0.843,-9.3885,0.9197,1.5304,-0.0696,-0.8348
1100,0.9197,-9.4651,0.9963,1.1826,-0.0696,-0.9043
1105,0.843,-9.2735,0.9963,0.9043,0.0,-0.8348
1110,0.8047,-9.3885,0.958,0.487,0.0,-0.8348
1115,0.9197,-9.3885,0.958,0.1391,0.0,-0.8348
1120,0.8047,-9.3502,0.8047,-0.0696,0.2087,-0.8348
1125,0.9197,-9.4268,0.843,-0.1391,0.2783,-0.9043
1130,0.8814,-9.5418,1.073,0.0,0.487,-0.9043
1135,0.8814,-9.5034,0.9963,0.487,0.487,-0.8348
1140,0.843,-9.4651,1.0346,0.9739,0.5565,-0.8348
1145,0.958,-9.5418,0.958,1.6696,0.6957,-0.9043
1150,0.843,-9.6567,0.9197,2.4348,0.6957,-0.9043
1155,1.0346,-9.5418,0.958,3.2,0.6261,-0.8348
1160,0.9963,-9.4651,0.8814,4.0348,0.6261,-0.9739
1165,0.9197,-9.5034,1.0346,4.8,0.487,-0.9739
1170,0.9963,-9.4651,0.9963,5.6348,0.4174,-0.9739
1175,1.0346,-9.4651,0.8814,6.1913,0.4174,-0.9043
1180,0.9963,-9.5418,0.9963,6.6783,0.3478,-0.9043
1185,0.9963,-9.4268,0.8814,7.0957,0.2087,-0.7652
1190,1.1879,-9.5418,0.8047,7.3043,0.2087,-0.8348
1195,0.9963,-9.3502,0.843,7.3043,0.1391,-0.9043
1200,0.9197,-9.4651,0.8047,6.6087,0.2783,-0.6957
1205,1.1496,-9.4651,1.1496,5.7739,0.3478,-0.487
1210,0.9197,-9.3118,0.9963,6.4,0.4174,-0.6957
1215,0.9197,-9.3885,1.0346,6.6783,0.487,-0.7652
1220,1.1496,-9.4268,0.958,6.5391,0.5565,-0.7652
1225,0.958,-9.4268,0.958,6.2609,0.6261,-0.8348
1230,0.9963,-9.4651,0.9963,6.2609,0.5565,-0.9043
1235,0.8814,-9.4651,0.8814,6.1217,0.5565,-0.9739
1240,0.9197,-9.1202,0.843,5.9826,0.6957,-0.9043
1245,0.7664,-9.5801,1.1113,5.9826,0.7652,-1.0435
1250,0.958,-9.4651,0.958,6.1217,0.8348,-1.0435
1255,0.843,-9.3885,0.9963,6.1217,0.8348,-0.9739
1260,0.9197,-9.4651,0.958,5.9826,0.8348,-1.113
1265,0.9963,-9.5418,0.9197,6.1913,0.8348,-1.0435
1270,0.8047,-9.5034,0.9197,6.1913,0.8348,-1.0435
1275,0.9197,-9.3885,0.9197,6.2609,0.9043,-1.0435
1280,0.9197,-9.5801,0.958,6.2609,1.113,-0.9739
1285,1.0346,-9.3885,0.958,6.2609,1.0435,-0.8348
1290,0.9197,-9.4651,1.0346,6.2609,1.1826,-0.9043
1295,0.9197,-9.4268,1.0346,6.1913,1.1826,-0.8348
1300,0.8814,-9.3118,0.9197,6.3304,1.2522,-0.6957
1305,0.958,-9.5418,0.9963,6.4,1.2522,-0.6261
1310,0.9197,-9.3885,1.0346,6.4,1.2522,-0.6261
1315,1.0346,-9.3885,0.8814,6.4696,1.113,-0.6261
1320,0.9963,-9.4651,0.9963,6.4696,1.113,-0.6261
1325,0.8814,-9.3502,1.073,6.6087,1.113,-0.7652
1330,0.843,-9.4651,0.958,6.1217,1.0435,-0.7652
1335,0.9963,-9.3502,0.958,5.4957,0.9739,-0.6957
1340,0.9963,-9.4268,0.9963,5.8435,0.9739,-0.8348
1345,0.9963,-9.3502,1.2263,6.3304,1.0435,-0.9043
1350,1.1113,-9.5801,1.073,6.2609,1.113,-1.0435
1355,0.843,-9.3502,0.958,6.1913,1.113,-1.113
1360,0.8814,-9.4268,0.9197,5.9826,1.0435,-1.0435
1365,0.9963,-9.3885,0.843,5.6348,1.0435,-0.9739
1370,0.9197,-9.4651,0.958,5.5652,1.0435,-0.9043
1375,0.9197,-9.4651,0.958,5.4957,0.9739,-0.9739
1380,1.0346,-9.3502,0.8814,5.4261,1.113,-0.9043
1385,0.958,-9.4268,0.9197,5.4957,1.1826,-0.8348
1390,0.958,-9.3502,0.9197,5.4957,1.2522,-0.8348
1395,0.958,-9.5034,0.958,5.287,1.3217,-0.9043
1400,0.843,-9.3885,0.9963,4.8696,1.5304,-0.9043
1405,0.9963,-9.4651,0.8047,4.4522,1.8783,-0.6957
1410,0.9197,-9.4268,0.8814,3.8957,2.3652,-0.7652
1415,0.9963,-9.6184,1.0346,3.0609,2.9217,-0.6261
1420,0.843,-9.5034,0.958,2.2261,3.5478,-0.6261
1425,0.958,-9.5418,0.958,1.113,4.2435,-0.2087
1430,0.8814,-9.4651,0.9963,-0.0696,4.9391,-0.0696
1435,1.0346,-9.4651,0.9197,-1.3913,5.3565,0.0696
1440,0.7664,-9.5418,0.958,-2.4348,5.6348,0.1391
1445,0.843,-9.4268,1.2263,-3.0609,5.7043,0.0696
1450,0.9963,-9.5034,1.2263,-3.4783,5.4261,0.0
1455,0.9963,-9.3885,1.2263,-3.5478,5.0783,0.1391
1460,0.8047,-9.4651,1.1113,-3.4087,4.1739,0.2783
1465,1.2263,-9.3885,1.5711,-3.687,2.9913,0.487
1470,0.958,-9.2735,1.9927,-5.5652,1.113,-0.3478
1475,0.7664,-9.2735,2.031,-4.8696,0.6957,0.0696
1480,0.7664,-9.4268,2.2992,-3.5478,0.487,0.9043
1485,0.9963,-9.4651,2.4142,-3.1304,0.1391,1.2522
1490,0.9963,-9.5034,2.2609,-3.687,0.2783,0.9739
1495,0.958,-9.7334,1.9927,-5.1478,0.487,0.2783
1500,1.0346,-9.81,1.8011,-7.4435,0.9043,-0.6957
1505,0.9963,-9.695,1.3029,-9.1826,1.7391,-1.8783
1510,0.7664,-9.6567,0.9197,-10.9217,2.2261,-3.2
1515,0.6898,-9.5418,0.5365,-12.0348,2.8522,-4.0348
1520,0.5365,-9.2735,0.1916,-12.7304,3.2696,-4.4522
1525,0.3832,-9.1969,-0.0766,-12.5913,3.687,-4.5913
1530,0.4215,-9.0053,-0.3832,-11.9652,3.4783,-4.4522
1535,0.2682,-8.6221,-0.2682,-11.4783,2.6435,-4.2435
1540,0.3066,-8.5838,-0.2299,-10.9913,1.5304,-3.8261
1545,0.4215,-8.3921,-0.1916,-10.9217,0.5565,-3.4783
1550,0.4982,-8.4305,-0.2682,-11.4783,-0.0696,-2.9913
1555,0.6131,-8.3921,-0.2682,-12.7304,-0.9043,-2.7826
1560,0.9963,-8.6221,-0.1533,-14.887,-1.8087,-2.713
1565,0.843,-8.5838,0.1533,-17.8087,-2.5739,-2.7826
1570,0.958,-8.737,0.3832,-20.5217,-2.8522,-2.713
1575,1.073,-8.852,0.5365,-22.6087,-3.3391,-2.5043
1580,1.1879,-9.1202,0.843,-23.7913,-3.8957,-1.9478
1585,1.1879,-9.2352,0.958,-24.0,-4.5913,-1.3913
1590,1.1113,-9.1969,1.1496,-23.7217,-5.7739,-0.6957
1595,1.1113,-9.2735,0.958,-23.3739,-6.6783,-0.0696
1600,1.1496,-9.3885,0.843,-23.3043,-7.2348,0.4174
1605,1.1113,-9.2735,0.9197,-23.7217,-7.0261,0.9043
1610,1.073,-9.1586,0.8047,-25.1826,-6.4696,1.3217
1615,0.958,-9.0819,0.7281,-27.4087,-6.2609,1.4609
1620,0.8047,-8.9286,0.7664,-30.3304,-6.3304,1.8087
1625,0.843,-8.737,0.6514,-33.3217,-6.6087,1.9478
1630,0.7281,-8.737,0.4982,-36.5217,-7.0261,1.9478
1635,0.8047,-8.737,0.5365,-39.4435,-7.513,2.1565
1640,0.7664,-8.5071,0.5748,-42.0174,-8.0,2.1565
1645,0.843,-8.7754,0.6898,-43.9652,-8.2783,2.087
1650,0.7281,-8.6221,0.7664,-45.913,-8.8348,2.2957
1655,0.9197,-8.6221,0.5748,-47.4435,-9.0435,2.2957
1660,0.8814,-8.6604,0.4215,-48.9739,-9.0435,2.5043
1665,0.9197,-8.737,0.7664,-50.713,-9.113,2.4348
1670,1.1496,-8.7754,1.1113,-51.687,-8.6261,2.4348
1675,1.1113,-8.4688,0.5365,-52.8696,-8.4174,2.5043
1680,1.1496,-8.6987,0.6898,-53.7043,-8.0,2.4348
1685,1.0346,-8.7754,0.843,-54.8174,-7.513,2.4348
1690,1.2263,-8.8137,0.6131,-56.2783,-6.9565,2.4348
1695,1.1496,-8.6604,0.5748,-58.2261,-6.6087,2.5043
1700,1.2646,-8.737,0.6131,-60.313,-6.3304,2.5043
1705,1.3029,-8.737,0.6131,-62.6087,-5.913,2.713
1710,1.1496,-8.6221,0.3066,-65.1826,-5.3565,3.0609
1715,1.1496,-8.6987,0.3066,-67.687,-4.7304,3.5478
1720,1.1879,-8.852,0.3832,-70.4,-4.1739,4.1739
1725,1.1879,-8.6987,0.4215,-73.2522,-3.7565,4.7304
1730,1.073,-8.6987,0.3832,-76.313,-3.4783,5.2174
1735,1.073,-8.7754,0.2299,-78.8174,-3.3391,5.6348
1740,0.958,-8.5838,0.3832,-81.3217,-3.2,6.3304
1745,0.958,-8.6987,0.3066,-83.8957,-3.2,6.6783
1750,0.958,-8.8137,0.3832,-86.3304,-3.3391,6.9565
1755,0.8047,-8.6604,0.3449,-89.113,-3.6174,7.2348
1760,0.843,-8.8903,0.4215,-91.8957,-3.4783,7.2348
1765,0.843,-8.6604,0.1916,-94.9565,-3.2,6.9565
1770,0.9197,-8.6987,0.1533,-98.2261,-2.7826,7.0261
1775,0.843,-8.6604,0.3066,-101.7739,-2.1565,7.0957
1780,0.8814,-8.8137,0.3066,-105.4609,-1.8087,7.1652
1785,0.9197,-8.8137,0.2682,-109.1478,-1.3913,7.0957
1790,0.9963,-8.7754,0.2682,-112.6261,-0.8348,6.9565
1795,0.958,-8.8137,0.2682,-115.6174,-0.4174,6.6783
1800,1.1113,-8.967,0.4598,-118.2609,-0.1391,6.6783
1805,1.1113,-9.1202,0.3066,-120.487,0.0,6.6087
1810,1.2263,-9.1202,0.3449,-122.7826,0.2087,6.4696
1815,1.3795,-9.2735,0.4215,-125.2174,0.4174,6.5391
1820,1.3412,-9.2352,0.4215,-127.7217,0.6261,6.3304
1825,1.2646,-9.5418,0.3832,-129.8783,0.6957,6.3304
1830,1.3412,-9.5034,0.1533,-131.687,0.9739,6.1217
1835,1.2646,-9.6567,0.0383,-132.8696,1.2522,5.6348
1840,1.3795,-9.7717,0.0,-133.5652,1.5304,4.9391
1845,1.1879,-9.7717,-0.3449,-133.913,1.8087,4.1739
1850,1.2646,-9.8483,-0.4598,-133.8435,1.9478,3.0609
1855,1.1496,-9.8483,-0.5365,-133.0783,2.2957,2.0174
1860,1.2263,-10.0016,-1.0346,-131.8261,2.713,0.8348
1865,1.1113,-10.0016,-1.2263,-130.0174,3.0609,-0.2087
1870,1.0346,-9.9633,-1.8777,-128.0696,3.4087,-1.2522
1875,0.958,-10.1549,-2.3759,-126.887,3.2,-2.5739
1880,0.8047,-10.0782,-2.6824,-126.887,2.4348,-3.8957
1885,0.6514,-10.3465,-3.2955,-127.9304,1.3913,-5.3565
1890,0.4215,-10.7297,-4.0236,-130.2957,-0.3478,-7.0957
1895,0.4598,-11.0746,-4.905,-133.4957,-2.2957,-8.9043
1900,0.3832,-11.3428,-5.748,-137.7391,-4.5913,-10.5739
1905,0.2682,-11.5727,-6.1696,-142.8174,-6.9565,-12.1043
1910,0.4982,-11.8027,-7.0893,-147.4783,-8.8348,-13.6348
1915,0.4982,-11.9176,-7.2425,-151.2348,-10.1565,-15.3043
1920,0.8814,-12.4158,-7.3575,-153.1826,-10.5739,-16.6261
1925,1.073,-12.7223,-6.9743,-152.487,-10.0174,-18.0174
1930,1.2263,-12.9523,-7.0509,-149.287,-8.9043,-18.713
1935,1.2263,-13.1055,-6.5145,-143.6522,-7.513,-18.9913
1940,1.1879,-13.1055,-6.3229,-136.1391,-6.0522,-18.7826
1945,1.1113,-13.0672,-6.1313,-126.887,-4.9391,-17.6
1950,0.9197,-12.8756,-5.9396,-116.1043,-4.4522,-15.6522
1955,0.6514,-12.7223,-5.9013,-104.8348,-4.6609,-13.7739
1960,0.4215,-12.3775,-6.2462,-93.2174,-5.4957,-12.0348
1965,0.3066,-12.1475,-6.4378,-81.7391,-6.7478,-10.7826
1970,0.2299,-11.726,-6.6677,-70.7478,-8.0696,-9.7391
1975,0.1916,-11.1895,-6.8977,-60.8696,-9.3913,-8.7652
1980,0.2682,-10.9596,-7.2425,-52.2435,-10.5739,-7.6522
1985,0.0766,-10.6914,-7.1659,-45.1478,-11.4087,-6.4696
1990,0.115,-10.4231,-7.2809,-39.7913,-12.4522,-5.4261
1995,0.1533,-10.2315,-7.5491,-35.8261,-13.1478,-4.5217
2000,0.0766,-10.1166,-7.2425,-32.9043,-13.8435,-4.1043
2005,0.0,-10.1932,-7.1659,-30.4,-14.1913,-3.6174
2010,0.2299,-10.1166,-7.1276,-27.4783,-13.913,-2.9217
2015,0.4598,-10.3082,-7.0893,-24.2087,-13.2174,-2.713
2020,0.5365,-10.4231,-7.0893,-20.3826,-12.1739,-2.9217
2025,0.7281,-10.5381,-6.8977,-16.3478,-10.8522,-3.4783
2030,0.8814,-10.6147,-7.0509,-11.8957,-9.1826,-3.9652
2035,1.2263,-10.6914,-6.821,-7.4435,-7.6522,-4.4522
2040,1.2646,-10.768,-6.7061,-2.8522,-6.1913,-4.4522
2045,1.3795,-10.768,-6.3995,1.8783,-4.9391,-4.1739
2050,1.5328,-10.6914,-6.5911,6.5391,-3.9652,-3.8261
2055,1.6095,-10.6914,-6.3995,10.9217,-3.1304,-3.687
2060,1.4945,-10.5381,-6.4761,14.887,-2.2957,-3.8261
2065,1.6095,-10.4998,-6.5911,18.4348,-1.5304,-3.5478
2070,1.3795,-10.4614,-6.3995,21.7043,-0.8348,-3.0609
2075,1.5328,-10.3465,-6.3612,24.9739,0.0,-2.3652
2080,1.4562,-10.5764,-6.4378,28.313,0.2783,-1.9478
2085,1.4562,-10.5381,-6.2079,31.9304,0.5565,-1.8087
2090,1.3795,-10.5764,-6.0546,36.1739,0.7652,-1.7391
2095,1.2646,-10.7297,-5.978,40.8348,0.7652,-1.7391
2100,1.1113,-10.9596,-5.7864,46.0522,0.6957,-1.7391
2105,1.1113,-11.0746,-5.748,52.1043,0.7652,-1.6696
2110,1.0346,-11.3045,-5.4415,59.1304,0.5565,-1.6
2115,1.073,-11.4961,-5.2499,66.6435,0.3478,-1.5304
2120,0.9963,-11.5727,-5.1732,74.5043,0.2783,-1.3913
2125,1.0346,-11.7643,-5.1732,82.3652,0.3478,-1.1826
2130,0.9963,-11.8793,-4.9816,90.2957,0.8348,-1.0435
2135,0.9963,-11.8793,-4.9816,98.1565,1.4609,-1.0435
2140,1.073,-11.6494,-4.8667,105.7391,2.5043,-0.9043
2145,1.1113,-11.7643,-4.5218,112.9043,3.6174,-0.7652
2150,1.1879,-11.6494,-4.4835,119.7913,4.8,-0.8348
2155,1.2263,-11.5344,-4.2152,126.6783,6.3304,-1.113
2160,1.1496,-11.3045,-4.1386,133.1478,8.1391,-1.6696
2165,1.1879,-10.9979,-4.062,138.2957,10.087,-2.0174
2170,1.3029,-10.6914,-4.2536,140.9391,11.7565,-2.2261
2175,1.2263,-10.3848,-3.947,140.1739,12.7304,-2.5739
2180,1.3412,-10.1166,-3.4871,139.1304,13.6348,-3.2696
2185,1.073,-9.8483,-3.7554,138.5043,14.5391,-3.8261
2190,1.2263,-9.695,-3.3722,135.0261,14.9565,-3.687
2195,1.1879,-9.5034,-3.9853,131.6174,15.1652,-3.9652
2200,1.1879,-9.1586,-3.3339,125.2174,14.6087,-3.8261
2205,1.1113,-9.0819,-4.2919,120.0696,14.6087,-3.8261
2210,0.9963,-8.737,-3.1039,114.0174,14.6087,-3.4783
2215,0.843,-8.5454,-3.6404,110.7478,15.0957,-2.9217
2220,0.8814,-8.3538,-2.7591,106.713,15.3043,-1.6
2225,0.9197,-8.5071,-2.7591,105.9478,15.7913,-0.6957
2230,0.7664,-8.4305,-2.7207,105.6696,16.2087,0.4174
2235,0.9963,-8.5071,-2.6058,104.7652,16.5565,1.8783
2240,0.6898,-8.3921,-2.5675,104.487,16.8348,2.6435
2245,0.6514,-8.5454,-2.6441,104.2783,17.4609,3.687
2250,0.9963,-8.4305,-2.5675,103.3043,18.0174,4.6609
2255,0.9963,-8.5838,-2.5675,102.9565,18.4348,5.1478
2260,1.0346,-8.6221,-2.4908,102.4696,18.6435,5.4261
2265,0.7664,-8.5838,-2.5291,102.6783,19.0609,5.287
2270,0.843,-8.6604,-2.5291,102.6087,19.6174,5.6348
2275,0.958,-8.5454,-2.2992,102.4,19.8957,5.7739
2280,0.9197,-8.5454,-2.2992,102.7478,20.0348,5.3565
2285,0.958,-8.6221,-2.1076,103.5826,20.313,4.8696
2290,0.958,-8.6987,-2.1076,104.3478,20.3826,4.4522
2295,0.958,-8.5454,-1.9927,104.3478,20.5913,4.3826
2300,0.9963,-8.737,-2.1076,105.3217,21.0087,4.1043
2305,0.7664,-8.5838,-2.0693,105.113,21.2174,4.1043
2310,1.0346,-8.6987,-2.0693,104.1391,21.3565,3.8957
2315,0.8814,-8.2772,-1.9543,103.0261,21.6348,3.5478
2320,0.9197,-8.3921,-2.1459,101.7043,21.8435,3.3391
2325,0.958,-8.3921,-1.9927,99.4087,21.8435,3.2696
2330,0.8814,-8.2389,-1.8394,97.3913,22.1217,2.7826
2335,0.958,-8.1622,-1.8394,95.4435,22.3304,2.4348
2340,0.9963,-7.9706,-1.7244,93.7043,22.9565,2.0174
2345,0.8047,-7.6641,-1.8394,92.1043,23.513,1.8087
2350,0.9197,-7.8173,-1.6095,89.3217,23.7217,1.9478
2355,0.958,-7.5491,-1.7627,86.8174,23.7217,1.7391
2360,0.9197,-7.3575,-1.8011,84.2435,23.7913,1.3217
2365,0.958,-7.2425,-1.8011,81.8783,23.6522,0.8348
2370,0.9197,-7.0126,-1.8777,78.9565,23.0957,0.1391
2375,0.9197,-6.7061,-1.8011,75.4087,22.2609,-0.487
2380,0.8047,-6.5528,-1.4562,72.6261,21.8435,-0.9739
2385,0.7664,-6.3612,-1.3029,71.7913,22.1913,-1.3217
2390,0.7281,-6.3229,-1.2263,72.6261,22.9565,-1.3913
2395,0.6898,-6.1313,-1.1496,74.3652,23.7913,-1.8087
2400,0.6131,-5.9013,-1.073,76.6609,24.4174,-2.2261
2405,0.6131,-5.748,-1.073,79.0261,24.2087,-2.1565
2410,0.6131,-5.748,-1.2646,81.1826,23.7217,-2.1565
2415,0.6514,-5.4032,-1.1113,82.5739,22.5391,-1.8783
2420,0.3832,-5.2882,-1.2646,84.0348,21.5652,-1.5304
2425,0.6131,-5.2116,-1.2263,84.8,20.5217,-0.9043
2430,0.4215,-5.2499,-1.3412,84.6609,19.1304,0.0
2435,0.3832,-5.1349,-1.1496,84.1739,17.9478,0.5565
2440,0.1916,-5.1732,-1.3412,83.0609,16.3478,0.7652
2445,0.2299,-5.2116,-1.6478,81.3913,14.6087,1.1826
2450,0.2299,-5.0966,-1.5328,79.0957,12.5913,1.5304
2455,0.1533,-5.0966,-1.5328,76.4522,10.713,1.7391
2460,0.1533,-5.0583,-1.4945,74.087,9.0435,1.9478
2465,0.0383,-5.1732,-1.4179,71.2348,7.3739,1.8087
2470,0.1533,-5.1349,-1.5711,68.5217,5.7043,1.8087
2475,0.0766,-5.0583,-1.3795,65.7391,3.9652,2.1565
2480,0.0383,-5.3265,-1.3029,62.887,2.4348,2.5739
2485,0.0,-5.3265,-1.2646,59.9652,1.2522,2.9217
2490,0.0,-5.6331,-1.1879,57.113,0.0,3.1304
2495,0.0,-5.6331,-1.1496,54.4,-1.113,3.2
2500,-0.0766,-5.9396,-1.1496,51.6174,-2.2261,3.4087
2505,0.1916,-6.1696,-1.1496,48.8348,-3.4087,3.5478
2510,0.0383,-6.2845,-1.1113,46.4696,-4.5913,3.3391
2515,0.115,-6.5528,-1.0346,44.5913,-5.5652,2.8522
2520,0.3832,-6.7444,-0.9197,42.7826,-6.1217,2.6435
2525,0.2682,-7.0126,-0.8814,41.6696,-6.4,2.6435
2530,0.4215,-7.3958,-0.958,41.3913,-6.5391,2.5043
2535,0.4982,-7.4341,-1.0346,41.1826,-6.8174,2.5043
2540,0.6131,-7.6641,-0.958,41.1826,-7.3043,2.4348
2545,0.6514,-7.779,-1.073,41.2522,-7.8609,2.2957
2550,0.9197,-7.8557,-0.9197,41.3217,-8.2087,1.8783
2555,0.958,-8.1239,-0.9963,41.6,-8.2783,1.5304
2560,1.1113,-8.4305,-0.9197,41.7391,-8.2087,1.113
2565,1.073,-8.5838,-0.9197,41.9478,-8.2087,0.7652
2570,1.3029,-8.737,-0.9197,41.6,-8.2783,0.6957
2575,1.3795,-9.1202,-0.843,40.7652,-8.5565,0.6957
2580,1.4562,-9.2352,-0.843,39.6522,-8.9739,0.6957
2585,1.4179,-9.4268,-0.7281,38.8174,-9.1826,0.7652
2590,1.5711,-9.5801,-0.6514,38.1913,-9.3217,0.9043
2595,1.3795,-9.4651,-0.5365,37.7043,-9.3913,0.8348
2600,1.4562,-9.3885,-0.6514,37.6348,-9.2522,0.487
2605,1.1879,-9.4651,-0.4982,37.6348,-8.8348,0.5565
2610,1.1496,-9.3885,-0.4598,37.6348,-8.1391,0.487
2615,1.0346,-9.3118,-0.4598,37.6348,-7.4435,0.5565
2620,1.073,-9.3885,-0.3449,37.6348,-6.7478,0.3478
2625,0.958,-9.1969,-0.1916,37.913,-6.1217,-0.1391
2630,0.6131,-9.0053,-0.2682,38.6087,-5.6348,-0.6261
2635,0.5748,-8.7754,-0.0766,39.4435,-5.2174,-1.2522
2640,0.843,-8.852,-0.1533,40.2087,-5.0783,-1.9478
2645,0.2682,-8.6987,-0.0383,40.8348,-5.1478,-2.3652
2650,0.2682,-8.6987,0.0383,40.6957,-5.1478,-2.4348
2655,0.2299,-8.4688,0.0383,40.1391,-5.4261,-2.5739
2660,0.1533,-8.5454,0.1533,39.3043,-6.0522,-3.1304
2665,0.0383,-8.4688,0.115,38.4,-6.887,-3.8957
2670,0.1533,-8.3155,0.3066,37.2174,-8.0,-4.3826
2675,0.115,-8.5838,0.3066,35.4087,-9.3913,-4.6609
2680,0.3066,-8.6987,0.4982,33.0435,-10.9913,-4.8696
2685,0.4598,-8.8137,0.6131,30.2609,-12.5217,-4.6609
2690,0.4598,-8.852,0.6514,27.3391,-13.9826,-4.5913
2695,0.7664,-9.1969,0.6898,24.487,-15.0957,-4.5217
2700,0.9197,-9.3502,0.6898,21.4957,-16.0,-4.2435
2705,1.0346,-9.4651,0.6898,18.5739,-16.5565,-3.9652
2710,1.1113,-9.6184,0.6514,15.8609,-16.6261,-3.4783
2715,1.2646,-9.6184,0.7281,13.3565,-16.487,-2.7826
2720,1.5328,-9.7717,0.6514,11.1304,-16.0,-2.087
2725,1.5711,-9.7334,0.6131,9.3217,-15.2348,-1.6
2730,1.6478,-9.7717,0.6131,8.0696,-13.9826,-1.113
2735,1.8011,-9.81,0.5748,7.1652,-12.313,-0.4174
2740,1.916,-9.8483,0.6898,6.4696,-10.5739,-0.1391
2745,1.8777,-9.8483,0.5748,5.913,-9.2522,0.1391
2750,1.6861,-9.695,0.4215,5.4261,-8.4174,0.6261
2755,1.916,-10.0016,0.5365,4.7304,-8.4174,1.113
2760,1.9543,-9.9633,0.6898,3.8957,-8.6957,1.8783
2765,1.9543,-10.0782,0.4982,2.713,-9.1826,2.9913
2770,1.9927,-10.0782,0.4215,1.5304,-9.8087,4.1739
2775,1.9543,-9.9633,0.4982,0.5565,-10.4348,5.287
2780,2.031,-10.1166,0.6514,0.0696,-11.1304,6.2609
2785,1.9543,-10.0782,0.6514,0.1391,-11.8261,6.887
2790,1.6478,-10.0399,0.6898,0.8348,-12.3826,7.0957
2795,1.7627,-9.9633,0.7664,1.8783,-12.5217,6.7478
2800,1.6478,-9.7334,0.8047,3.1304,-12.0348,6.1913
2805,1.5711,-9.6567,0.6898,4.5217,-10.9217,5.4261
2810,1.3412,-9.4268,0.958,5.6348,-9.0435,4.2435
2815,1.2263,-9.4651,0.843,6.4696,-6.7478,2.9217
2820,1.2263,-9.3885,0.8814,6.9565,-4.313,1.3913
2825,1.1113,-9.0819,1.0346,7.0261,-1.7391,-0.2783
2830,0.958,-9.0436,1.2263,6.9565,0.7652,-2.1565
2835,0.9963,-8.9286,1.2646,6.6783,3.0609,-4.1043
2840,0.8814,-8.8903,1.1496,6.3304,4.9391,-5.8435
2845,0.843,-8.852,1.1879,5.913,6.2609,-7.0957
2850,0.9963,-8.852,1.3795,5.7043,7.0957,-8.0
2855,0.958,-8.852,1.3029,5.5652,7.4435,-8.487
2860,0.9197,-9.0053,1.4562,5.6348,7.3739,-8.4174
2865,0.9197,-8.967,1.3029,5.8435,7.0261,-8.0
2870,0.8814,-9.0436,1.3029,6.1217,6.4,-7.3739
2875,0.8814,-9.1969,1.1496,6.2609,5.7739,-6.5391
2880,1.0346,-9.1586,1.3029,6.5391,4.8,-5.7739
2885,0.9963,-9.1586,1.1113,6.7478,3.8957,-5.0087
2890,0.9963,-9.3118,1.1113,6.8174,2.9913,-4.1739
2895,0.8047,-9.2735,1.1496,6.6783,2.2261,-3.687
2900,0.8047,-9.3502,1.2263,6.3304,1.3913,-3.2
2905,0.958,-9.4268,1.3795,6.0522,1.0435,-2.8522
2910,0.958,-9.5034,1.4179,5.7739,0.8348,-2.5739
2915,0.9197,-9.5418,1.6095,5.7043,0.6261,-2.3652
2920,0.843,-9.5034,1.6861,5.7043,0.6261,-2.1565
2925,0.8047,-9.4268,1.6095,5.7739,0.4174,-2.1565
2930,0.8047,-9.5034,1.7627,5.7739,0.2783,-2.2261
2935,0.7281,-9.4651,1.6478,5.7043,0.1391,-2.1565
2940,0.8047,-9.5034,1.5711,5.4957,0.0,-2.0174
2945,0.7281,-9.4651,1.6095,5.0783,-0.1391,-1.7391
2950,0.5748,-9.4651,1.5711,4.5217,-0.487,-1.4609
2955,0.6514,-9.5034,1.4945,3.8957,-0.6261,-1.3217
2960,0.6514,-9.3885,1.3412,3.2,-0.9739,-0.9043
2965,0.6131,-9.2352,1.3795,2.3652,-1.1826,-0.3478
2970,0.8814,-9.1202,0.8814,1.4609,-1.3913,-0.0696
2975,0.5748,-9.4651,1.4179,0.7652,-1.6696,0.1391
2980,0.7664,-9.5034,0.7281,0.0,-1.8087,0.3478
2985,0.7664,-9.4268,1.4179,-0.6261,-2.087,0.3478
2990,0.7664,-9.5801,1.4179,-1.2522,-2.3652,0.3478
2995,0.9963,-9.3885,1.4179,-1.7391,-2.5739,0.3478
