timestamp,accX,accY,accZ,gyroX,gyroY,gyroZ
0,7.5874,-5.8247,-2.3375,-8.6957,61.3565,-38.4696
5,7.5874,-5.748,-2.2992,-8.1391,61.5652,-38.4696
10,7.8557,-5.6714,-1.9927,-7.6522,62.4696,-38.4696
15,7.9323,-5.7097,-1.9543,-7.0261,63.2348,-38.6087
20,7.9323,-5.5181,-2.1076,-6.0522,62.6087,-38.8174
25,7.894,-5.5564,-2.0693,-5.1478,62.1217,-38.887
30,7.9323,-5.5181,-2.1076,-3.8261,61.3565,-39.3739
35,8.0856,-5.5948,-2.0693,-2.1565,60.5217,-40.2087
40,7.9323,-5.3648,-2.2226,-0.487,60.4522,-40.6957
45,8.1239,-5.2499,-2.1076,0.9043,60.8,-41.0435
50,7.8557,-5.2882,-1.8777,2.6435,61.287,-40.7652
55,8.0473,-5.1732,-1.8777,4.3826,61.2174,-40.6261
60,8.0473,-5.02,-1.916,6.1217,60.7304,-40.5565
65,7.9706,-5.0583,-1.916,7.513,60.313,-40.3478
70,7.9706,-4.9816,-2.031,8.6957,60.0348,-40.2087
75,8.2005,-5.02,-2.031,9.3217,60.1739,-39.8609
80,8.1622,-4.9816,-2.2226,9.7391,60.4522,-39.5826
85,8.2772,-4.9816,-1.9543,9.8087,60.9391,-39.4435
90,8.3155,-4.8667,-1.8394,10.5739,61.1478,-39.3043
95,8.4305,-4.7517,-1.8011,11.8957,61.1478,-39.2348
100,8.3921,-4.7517,-1.8011,13.287,60.8696,-39.0261
105,8.5071,-4.79,-1.4945,14.5391,60.8,-38.7478
110,8.6221,-4.7134,-1.6095,15.7913,60.6609,-38.6087
115,8.5071,-4.5218,-1.3795,16.9043,60.7304,-38.3304
120,8.6604,-4.7517,-1.3795,17.8087,60.9391,-38.1913
125,8.6221,-4.5218,-1.073,18.7826,61.0087,-38.2609
130,8.737,-4.6368,-1.073,19.7565,60.8696,-38.1913
135,8.737,-4.4068,-1.1879,20.5913,60.8,-38.1913
140,8.6987,-4.4068,-1.1113,21.4261,60.6609,-37.8435
145,8.7754,-4.2919,-1.2646,22.4696,60.5913,-37.7043
150,8.8903,-4.1769,-1.3029,23.4435,60.2435,-37.6348
155,9.0053,-4.2536,-1.1879,24.4174,60.2435,-37.2174
160,8.967,-3.9853,-1.3412,25.1826,59.687,-37.4261
165,9.0436,-4.062,-1.2646,25.6696,59.0609,-37.6348
170,9.2735,-3.9087,-1.3412,25.8783,58.9913,-37.7043
175,9.1586,-3.8704,-1.2646,25.8783,59.6174,-37.287
180,9.1586,-3.8704,-1.2263,26.0174,59.0609,-37.6348
185,9.1202,-3.9087,-1.1879,26.2261,58.6435,-37.8435
190,9.0819,-3.947,-1.073,26.1565,58.2261,-38.3304
195,9.2735,-3.9087,-1.1113,26.1565,57.6696,-39.0261
200,9.1969,-3.7554,-1.2263,26.0174,57.5304,-39.4435
205,9.1202,-3.7554,-0.9963,25.7391,58.1565,-39.3043
210,9.0436,-3.832,-0.843,25.5304,58.7826,-39.2348
215,9.1202,-3.9853,-0.6898,24.9739,58.5739,-40.0696
220,9.1586,-3.832,-0.5748,24.4174,57.9478,-40.5565
225,9.3118,-3.9853,-0.6898,23.7913,57.9478,-40.6957
230,9.0819,-4.0236,-0.4598,23.3739,58.3652,-40.5565
235,9.1202,-4.1769,-0.2682,22.9565,58.3652,-41.3913
240,9.2735,-4.1769,-0.3832,22.887,57.8783,-42.4348
245,9.1586,-4.1769,-0.3066,23.0261,57.0435,-43.7565
250,9.2352,-4.2152,-0.2682,23.0261,56.0,-45.2174
255,9.0053,-4.1386,-0.1916,22.887,54.887,-46.3304
260,9.1202,-4.1769,-0.1533,22.6087,53.8435,-47.4435
265,9.0436,-3.9853,-0.0766,22.3304,52.7304,-48.6957
270,9.0819,-3.947,-0.1916,21.7043,51.8957,-49.8783
275,9.0436,-4.0236,-0.115,21.1478,51.4087,-50.5739
280,8.967,-4.1003,-0.0766,20.5217,50.713,-51.2
285,9.0436,-3.947,0.0,20.1043,49.9478,-52.0348
290,9.1202,-4.0236,0.0383,19.8261,49.2522,-52.6609
295,9.0436,-4.0236,0.0,19.5478,48.8348,-53.4261
300,9.2352,-3.947,0.1533,19.1304,48.4174,-54.1217
305,9.1202,-3.947,0.3066,18.3652,48.0696,-54.7478
310,9.2352,-4.0236,0.3449,17.5304,47.9304,-55.1652
315,9.2352,-3.7937,0.7281,16.9739,47.9304,-56.1391
320,9.2735,-3.832,0.8047,16.5565,48.0,-57.4609
325,9.4268,-3.7171,0.8814,16.6261,48.1391,-58.7826
330,9.3118,-3.6021,0.8047,17.113,48.6957,-59.687
335,9.3118,-3.6404,0.7664,17.8087,49.0435,-60.313
340,9.3885,-3.6787,0.958,18.6435,49.1826,-60.8
345,9.2352,-3.6021,0.843,19.2696,49.3913,-61.287
350,9.4268,-3.6404,1.073,19.3391,49.3217,-61.7043
355,9.3885,-3.5638,1.073,19.2696,49.4609,-62.0522
360,9.4268,-3.6404,1.0346,18.713,49.8087,-62.3304
365,9.3885,-3.4871,1.1496,18.0174,50.2957,-62.4
370,9.2735,-3.4488,1.2263,17.5304,50.5739,-62.6783
375,9.3502,-3.1806,1.1496,17.0435,50.9217,-62.9565
380,9.3502,-3.2189,1.073,16.6261,51.1304,-63.0261
385,9.3885,-2.989,1.1496,16.3478,51.0609,-62.9565
390,9.3885,-2.7974,1.1879,15.9304,51.0609,-62.6783
395,9.2735,-2.5675,1.3029,15.3043,50.8522,-61.913
400,9.4268,-2.6058,1.2263,14.0522,50.7826,-60.8
405,9.3502,-2.6058,1.4179,12.2435,50.3652,-59.9652
410,9.4651,-2.6441,1.3795,10.4348,49.2522,-59.2
415,9.4651,-2.6058,1.3412,8.9043,48.0,-58.3652
420,9.5801,-2.5291,1.4179,7.9304,47.0957,-57.5304
425,9.5034,-2.6441,1.5328,7.3043,46.4696,-56.6957
430,9.5034,-2.7207,1.6095,6.9565,45.913,-55.8609
435,9.6184,-2.5291,1.3795,7.0261,45.0087,-55.3043
440,9.7717,-2.5291,1.4562,7.513,43.9652,-55.2348
445,9.6567,-2.4525,1.6095,8.1391,42.713,-55.2348
450,9.695,-2.4908,1.4562,8.4174,41.6,-55.0957
455,9.5801,-2.3759,1.4179,8.0,40.2783,-55.1652
460,9.6184,-2.1459,1.4179,7.3739,39.0261,-54.9565
465,9.5801,-1.9927,1.4945,6.5391,37.5652,-54.887
470,9.6567,-1.8011,1.4945,5.4957,36.4522,-54.6087
475,9.6184,-1.6861,1.5711,4.1043,35.5478,-54.1913
480,9.6184,-1.5711,1.6478,2.4348,34.9217,-53.6348
485,9.5801,-1.5328,1.6095,0.7652,34.5043,-52.5913
490,9.3885,-1.4562,1.8011,-0.4174,34.1565,-51.6174
495,9.4651,-1.3412,1.9543,-1.2522,33.6,-50.713
500,9.5418,-1.2646,1.9543,-1.7391,33.0435,-49.7391
505,9.5034,-1.3029,2.2609,-2.2957,32.2783,-48.6261
510,9.4268,-1.2263,2.2992,-2.9217,31.2348,-47.7217
515,9.2735,-1.2263,2.4525,-3.4087,30.1913,-46.6783
520,9.3118,-1.1496,2.5675,-4.313,29.0087,-45.5652
525,9.4651,-1.0346,3.2189,-5.287,27.6174,-44.313
530,9.3885,-1.1113,2.6058,-6.0522,26.2261,-43.1304
535,9.2352,-1.6095,2.4525,-6.4,24.6957,-42.0174
540,8.9286,-0.8814,2.4908,-6.3304,23.3739,-41.3217
545,9.2735,-0.7664,2.1843,-6.0522,21.8435,-40.6957
550,9.0436,-0.843,2.4525,-5.7043,20.3826,-40.0696
555,9.1202,-0.8047,2.3759,-5.4261,19.0609,-39.3043
560,9.5034,-0.5748,2.1076,-5.4261,17.7391,-38.3304
565,9.3118,-0.1916,2.4525,-5.5652,16.6261,-37.1478
570,9.3118,-0.1533,2.4142,-6.1217,15.513,-35.9652
575,9.5034,-0.115,2.4525,-6.8174,14.6087,-34.5739
580,9.3885,-0.0766,2.6058,-7.4435,14.0522,-33.0435
585,9.4651,-0.0383,2.4908,-8.1391,13.8435,-31.5826
590,9.4268,-0.1916,2.5291,-8.8348,14.2609,-29.9826
595,9.3502,-0.1533,2.7591,-8.9739,15.0957,-28.2435
600,9.4268,-0.1916,2.874,-8.7652,16.1391,-26.2957
605,9.3502,-0.3449,2.989,-8.2783,16.6261,-24.6957
610,9.3118,-0.4215,3.0273,-7.3739,16.7652,-23.2348
615,9.1202,-0.3066,3.1039,-6.3304,16.487,-22.1913
620,9.0819,-0.3066,3.4488,-5.287,15.7913,-21.3565
625,9.0819,-0.3832,3.3339,-4.5913,14.8174,-20.7304
630,8.852,-0.3449,3.4105,-4.0348,13.4957,-19.8261
635,8.8903,-0.4598,3.3339,-3.2696,12.1739,-18.713
640,8.6987,-0.5748,3.4488,-2.2957,10.9913,-17.3913
645,8.6987,-0.4598,3.2955,-1.1826,10.087,-15.8609
650,8.7754,-0.4982,3.1806,0.1391,9.5304,-14.1217
655,8.8903,-0.6514,3.1423,1.3217,8.5565,-11.8261
660,8.852,-0.6514,3.1039,2.4348,7.2348,-9.3217
665,8.967,-0.8047,2.8357,3.4087,5.4261,-6.5391
670,9.2352,-0.8047,2.4908,3.8957,3.2696,-3.4783
675,9.3502,-1.073,2.4142,3.687,0.9739,-0.487
680,9.5034,-1.1496,2.2226,2.9217,-1.3913,2.2261
685,9.5801,-1.1496,2.0693,1.5304,-3.0609,4.4522
690,9.695,-1.2263,2.1843,-0.487,-4.4522,5.9826
695,9.7717,-1.4179,2.1076,-2.3652,-5.7043,7.2348
700,9.7334,-1.4562,2.2992,-3.7565,-6.9565,8.1391
705,9.5418,-1.6861,2.3759,-4.4522,-8.2783,8.9043
710,9.4651,-1.6478,2.4142,-4.5913,-9.7391,9.5304
715,9.4268,-1.6478,2.5675,-4.2435,-11.0609,10.1565
720,9.3118,-1.7244,2.6058,-4.0348,-12.1043,10.2261
725,9.1969,-1.6861,2.7207,-3.6174,-12.6609,10.0174
730,9.1202,-1.6478,2.6058,-2.2261,-12.5913,9.9478
735,8.967,-1.5328,2.7974,-0.5565,-12.1739,9.9478
740,8.967,-1.4562,2.6824,1.6696,-11.8957,10.2957
745,9.0819,-1.3412,2.7591,4.2435,-11.6174,10.713
750,9.1202,-1.3029,2.6441,7.0261,-11.2696,11.2
755,9.0819,-1.2646,2.5675,9.3913,-10.9217,11.8261
760,9.0819,-1.1496,2.3759,11.7565,-10.5043,12.2435
765,9.1202,-1.2646,2.3375,13.7739,-10.087,12.7304
770,9.3118,-1.1879,2.1076,15.8609,-9.8783,13.0783
775,9.6184,-1.1496,1.9927,17.3217,-9.8783,13.0783
780,9.7717,-0.843,1.916,18.713,-10.5043,13.287
785,9.81,-0.6514,1.7244,19.0609,-11.6174,13.4957
790,10.0016,-0.7664,1.916,18.5739,-12.6609,13.8435
795,10.1166,-0.5365,1.6095,17.0435,-13.913,13.913
800,10.1166,-0.6514,1.6095,15.1652,-14.887,13.7739
805,10.1166,-0.6514,1.3795,13.3565,-15.513,13.3565
810,10.1166,-0.4598,1.5328,12.2435,-15.8609,12.9391
815,10.1932,-0.4598,1.4945,11.6174,-16.0,12.313
820,10.1932,-0.6514,1.3412,11.4783,-16.1391,11.687
825,10.4614,-0.6131,1.2263,11.0609,-16.6261,11.0609
830,10.9596,-0.7664,1.2263,11.0609,-16.9739,9.9478
835,11.1895,-0.8814,1.3029,11.4087,-16.3478,8.2783
840,11.2662,-1.1113,1.3795,12.3826,-14.6783,5.7739
845,10.9596,-1.1113,1.5328,13.6348,-12.5913,2.5043
850,10.4614,-1.2646,1.5328,14.6087,-10.713,-1.3217
855,10.0016,-1.1496,1.4945,14.3304,-9.8783,-4.9391
860,9.81,-1.1113,1.4179,12.8696,-9.8783,-8.0
865,9.5418,-0.8047,1.5711,10.713,-10.1565,-10.2261
870,9.4268,-0.8047,1.6478,8.2087,-10.5739,-11.4087
875,9.1586,-0.4982,1.5711,5.6348,-10.7826,-11.7565
880,9.0819,-0.4598,1.4945,3.2,-10.8522,-11.6174
885,9.2352,-0.4982,1.6095,0.8348,-11.0609,-10.7826
890,9.4268,-0.6131,1.4945,-1.1826,-11.3391,-9.8087
895,9.3885,-0.6514,1.3412,-2.713,-11.6174,-8.9739
900,9.4268,-0.7664,1.4562,-3.7565,-11.6174,-8.2087
905,9.5801,-1.0346,1.5328,-4.313,-11.3391,-7.3739
910,9.695,-0.9963,1.4179,-3.8261,-10.9217,-6.6087
915,10.0782,-1.1496,1.5328,-2.3652,-10.2261,-6.0522
920,10.2315,-1.1879,1.6478,0.2087,-9.113,-5.913
925,10.653,-1.3029,1.4562,3.6174,-8.0,-6.0522
930,10.8063,-1.3795,1.6861,7.513,-6.9565,-6.7478
935,10.768,-1.2646,1.5711,11.4087,-6.1217,-7.7217
940,10.883,-1.3029,1.4945,14.8174,-5.6348,-9.113
945,10.7297,-1.2263,1.3029,17.5304,-5.287,-10.8522
950,10.5764,-1.0346,1.4179,19.4087,-4.9391,-12.8696
955,10.3082,-0.7281,1.4562,19.7565,-4.6609,-14.9565
960,9.925,-0.4982,1.5328,18.5739,-5.0783,-16.6261
965,9.925,-0.3066,1.6478,16.2087,-5.9826,-17.7391
970,9.8866,-0.2299,1.5328,13.5652,-6.2609,-18.5043
975,9.8866,-0.3449,1.6478,11.6174,-6.3304,-19.1304
980,9.8866,-0.5365,1.8011,10.1565,-6.2609,-19.8957
985,9.81,-0.6514,1.7244,9.0435,-6.5391,-20.8
990,9.7717,-0.8814,1.6861,7.7913,-7.4435,-21.4957
995,9.6567,-0.958,1.6478,6.5391,-8.8348,-22.2609
1000,9.6567,-1.1496,1.7627,5.4261,-10.5739,-22.887
1005,9.4651,-1.5328,1.7627,4.8696,-12.0348,-23.5826
1010,9.5034,-1.6095,1.7244,4.8,-13.913,-24.7652
1015,9.3885,-1.7244,1.6861,5.4261,-15.7913,-26.0174
1020,9.6184,-1.6861,1.6861,6.9565,-17.3913,-27.4783
1025,9.6184,-1.8394,1.6861,8.9043,-18.6435,-29.0087
1030,9.5418,-1.6478,1.5711,10.713,-19.9652,-30.4696
1035,9.695,-1.6095,1.3795,12.2435,-21.2174,-31.9304
1040,9.5418,-1.6095,1.1879,13.2174,-22.6783,-33.3913
1045,9.3885,-1.3412,0.9197,13.5652,-24.1391,-35.2
1050,9.5034,-1.073,0.7664,12.8,-25.6696,-37.0087
1055,9.3502,-0.843,0.5748,11.2696,-27.3391,-38.9565
1060,9.0819,-0.6898,0.2682,8.7652,-29.2174,-41.113
1065,8.9286,-0.5748,0.2682,5.4957,-31.2348,-42.9217
1070,8.6604,-0.4215,0.2682,1.8783,-33.2522,-43.9652
1075,8.737,-0.2682,0.2682,-1.8087,-35.0609,-44.2435
1080,8.737,-0.2299,0.3832,-5.7739,-36.5217,-44.1739
1085,8.737,-0.0383,0.5365,-8.9739,-37.1478,-43.8957
1090,8.852,0.0,0.6514,-11.2696,-37.2174,-43.0609
1095,9.1202,0.0766,0.6514,-12.8,-36.9391,-42.0174
1100,9.2735,0.0766,0.958,-13.913,-35.8261,-40.487
1105,9.4268,0.115,1.073,-13.8435,-34.713,-39.0957
1110,9.5801,0.115,0.843,-13.0783,-33.8783,-37.913
1115,9.7717,0.0383,0.8047,-12.1739,-32.8348,-36.7304
1120,9.7717,-0.0766,0.9963,-11.2696,-32.1391,-35.5478
1125,9.7717,-0.0766,0.9197,-11.0609,-32.2783,-34.3652
1130,9.8483,-0.0766,0.7664,-11.5478,-33.3217,-33.4609
1135,9.6184,-0.0383,0.8047,-12.7304,-35.3391,-32.9739
1140,9.5801,0.0,0.6898,-14.4,-37.6348,-33.1826
1145,9.5801,0.0,0.4982,-16.487,-40.3478,-33.4609
1150,9.695,0.0,0.6898,-18.713,-42.8522,-33.7391
1155,9.81,-0.0766,0.4215,-20.5913,-44.7304,-34.1565
1160,9.7717,0.0,0.3832,-21.8435,-45.6348,-34.8522
1165,9.81,-0.0383,0.2682,-22.6087,-45.7043,-35.3391
1170,9.81,0.0,0.1916,-22.6087,-44.6609,-35.2696
1175,9.7717,-0.1533,0.3066,-22.3304,-42.9217,-34.9913
1180,9.8483,-0.0766,0.3449,-21.4957,-40.487,-34.1565
1185,9.8866,-0.0383,0.3449,-19.8957,-37.7739,-33.113
1190,9.9633,0.0,0.1916,-18.2957,-35.6174,-31.8609
1195,9.9633,0.0,0.2299,-16.487,-33.2522,-30.3304
1200,9.9633,0.0,0.115,-15.0957,-31.0957,-28.6609
1205,10.0782,0.2299,0.0,-13.7739,-29.287,-26.9913
1210,10.1932,0.2682,-0.0383,-12.5913,-27.4783,-25.6696
1215,10.1932,0.3449,-0.1533,-11.7565,-25.9478,-23.6522
1220,10.3082,0.3832,-0.1916,-10.9913,-24.2783,-21.4957
1225,10.3082,0.5748,-0.3066,-10.8522,-22.887,-19.4087
1230,10.2698,0.6131,-0.3066,-11.2696,-21.2174,-16.9043
1235,10.2315,0.4982,-0.3066,-11.9652,-19.6174,-13.913
1240,10.2698,0.6514,-0.3832,-13.287,-18.6435,-10.9217
1245,10.1932,0.6898,-0.1916,-14.7478,-18.2957,-7.8609
1250,10.0782,0.8047,0.0766,-16.3478,-18.1565,-4.6609
1255,10.0399,0.8047,0.0,-18.0174,-18.1565,-1.4609
1260,10.0016,0.5748,-0.1533,-19.6174,-18.1565,1.5304
1265,9.925,0.3066,-0.0383,-21.2174,-18.2957,4.4522
1270,10.0016,0.2299,-0.5365,-22.6783,-18.5739,6.6087
1275,9.925,0.0383,-0.3449,-23.6522,-18.713,8.1391
1280,10.0016,0.0383,-0.6131,-24.0696,-18.9913,9.2522
1285,9.8483,-0.115,-0.7664,-23.8609,-18.9217,9.9478
1290,9.925,-0.1916,-0.8047,-23.0957,-18.5043,10.0174
1295,10.0016,-0.1533,-0.8047,-22.1217,-18.0174,9.8783
1300,10.1166,-0.2682,-0.9197,-21.3565,-17.113,9.3217
1305,10.0399,-0.1533,-0.8047,-20.8,-16.0,8.1391
1310,10.0782,-0.3066,-0.9963,-20.4522,-14.887,7.0957
1315,10.1932,-0.2299,-0.843,-20.5217,-13.7043,5.7043
1320,9.8483,-0.0766,-0.8047,-20.5913,-12.4522,4.3826
1325,9.9633,0.0,-0.9197,-20.5913,-11.7565,3.6174
1330,10.0399,-0.1533,-0.8047,-20.8,-11.1304,2.9913
1335,10.0399,-0.0383,-0.958,-21.3565,-10.6435,2.5043
1340,9.925,0.0383,-0.9197,-22.1217,-10.1565,2.087
1345,9.8483,0.1533,-0.843,-22.8174,-9.6,1.8087
1350,9.925,0.115,-0.8814,-23.3043,-9.113,1.8783
1355,9.8483,0.1533,-0.958,-23.5826,-8.2783,2.1565
1360,9.7334,0.1916,-0.843,-23.7913,-7.3043,2.5739
1365,9.7717,0.1916,-0.9197,-23.5826,-6.1913,2.9913
1370,9.7717,0.1916,-0.7281,-23.0957,-5.0783,3.687
1375,9.8866,0.0,-0.6131,-21.913,-4.0348,4.5217
1380,9.81,0.0383,-0.7281,-20.5217,-2.9913,5.0087
1385,9.8483,-0.0766,-0.6131,-18.713,-2.1565,5.4261
1390,9.81,-0.0766,-0.6898,-16.9043,-1.6,5.7739
1395,9.7334,0.0,-0.5365,-15.3739,-0.9739,5.7739
1400,9.8483,0.0,-0.5365,-14.2609,-0.7652,5.6348
1405,9.7334,0.0,-0.6514,-13.6348,-0.4174,5.4261
1410,9.81,0.115,-0.4215,-13.6348,-0.2783,5.287
1415,9.81,0.0766,-0.4598,-13.913,-0.1391,5.1478
1420,9.7334,0.1533,-0.4982,-14.2609,0.0696,5.0087
1425,9.7717,0.115,-0.3066,-14.7478,0.0696,5.0087
1430,9.7334,0.1916,-0.4215,-15.3043,-0.0696,4.9391
1435,9.81,0.1533,-0.4598,-15.7217,-0.2783,5.0087
1440,9.7717,0.115,-0.3449,-16.0,-0.6261,5.0783
1445,9.7717,0.1533,-0.4982,-16.0696,-0.9043,5.287
1450,9.81,0.115,-0.3066,-16.0696,-1.2522,5.0783
1455,9.7717,0.0,-0.4215,-15.7913,-1.2522,4.9391
1460,9.81,-0.0383,-0.4598,-15.3043,-1.3913,4.9391
1465,9.7334,0.0,-0.3066,-14.9565,-1.5304,4.4522
1470,9.8483,-0.115,-0.3066,-14.4,-1.6696,3.9652
1475,9.7334,-0.0766,-0.3449,-13.9826,-1.8087,3.4087
1480,9.7334,-0.0383,-0.3832,-13.287,-1.8087,2.8522
1485,9.81,0.0,-0.3832,-12.8696,-1.8783,2.2261
1490,9.81,0.0383,-0.3066,-12.6609,-1.8087,1.6
1495,9.7717,0.0,-0.4598,-12.4522,-1.6696,0.9739
1500,9.7717,0.0,-0.3832,-12.5217,-1.6,0.6261
1505,9.695,0.0383,-0.5748,-12.6609,-1.3217,0.3478
1510,9.7334,0.0,-0.4215,-12.7304,-1.2522,0.0
1515,9.81,0.0383,-0.4598,-12.8,-1.2522,-0.1391
1520,9.7717,0.1916,-0.3832,-12.7304,-1.2522,-0.3478
1525,9.7717,0.115,-0.4598,-12.313,-1.113,-0.1391
1530,9.7717,0.115,-0.3832,-12.1043,-1.113,-0.4174
1535,9.7717,0.115,-0.3832,-11.8261,-1.5304,-0.9043
1540,9.7334,0.1533,-0.6131,-11.2,-1.8783,-1.6
1545,9.6567,0.1916,-0.5365,-10.5043,-2.1565,-2.2261
1550,9.7334,0.2299,-0.6131,-9.6696,-2.2957,-2.9217
1555,9.7717,0.3066,-0.5365,-8.9043,-2.3652,-3.4783
1560,9.81,0.3066,-0.5365,-8.2783,-2.5043,-3.9652
1565,9.8483,0.2682,-0.3449,-7.7913,-2.4348,-4.5913
1570,9.7334,0.4215,-0.4598,-7.6522,-2.5739,-5.0783
1575,9.81,0.3832,-0.4982,-7.3043,-2.5739,-5.6348
1580,9.81,0.3449,-0.4982,-7.1652,-2.6435,-5.8435
1585,9.7717,0.3832,-0.4982,-6.887,-2.6435,-6.1217
1590,9.695,0.4215,-0.4598,-6.887,-2.713,-6.3304
1595,9.7717,0.4598,-0.4982,-6.8174,-2.9217,-6.6087
1600,9.7717,0.5365,-0.5365,-7.0261,-3.1304,-6.7478
1605,9.8866,0.4982,-0.6131,-7.3739,-3.3391,-6.7478
1610,9.7334,0.5365,-0.5748,-7.7913,-3.4783,-6.6087
1615,9.81,0.5365,-0.7281,-8.5565,-3.7565,-7.0261
1620,9.6567,0.6131,-0.6131,-9.3913,-4.3826,-7.4435
1625,9.695,0.6898,-0.5748,-10.5043,-5.287,-7.9304
1630,9.695,0.6898,-0.5365,-11.5478,-6.2609,-8.3478
1635,9.6184,0.843,-0.6898,-12.5217,-7.3043,-8.3478
1640,9.7334,0.843,-0.6514,-13.2174,-8.2087,-8.4174
1645,9.7717,0.6898,-0.4598,-13.9826,-9.0435,-8.487
1650,9.7334,0.843,-0.6131,-14.6783,-9.8087,-8.5565
1655,9.695,0.843,-0.6131,-15.3739,-10.6435,-8.5565
1660,9.7334,0.7281,-0.7281,-15.9304,-11.3391,-8.5565
1665,9.6567,0.843,-0.7281,-16.3478,-11.8957,-8.2087
1670,9.81,0.8047,-0.6514,-16.6261,-12.3826,-8.0
1675,9.5801,0.8814,-0.843,-16.6957,-12.8,-7.8609
1680,9.7717,0.7281,-0.7664,-16.5565,-13.2174,-7.5826
1685,9.7717,0.843,-0.843,-16.3478,-13.5652,-7.3739
1690,9.7334,0.6898,-0.8047,-16.0,-13.913,-7.0957
1695,9.7717,0.6131,-0.9197,-15.3739,-14.4,-6.5391
1700,9.7717,0.6514,-0.7664,-14.887,-14.4696,-6.1217
1705,9.695,0.4982,-0.8047,-14.1217,-14.7478,-5.5652
1710,9.7717,0.5748,-0.9197,-13.2174,-14.8174,-5.0087
1715,9.695,0.5365,-0.9963,-12.313,-14.5391,-4.3826
1720,9.7334,0.3832,-1.073,-11.4783,-14.1913,-3.8261
1725,9.81,0.4215,-1.073,-10.5739,-13.7043,-3.4087
1730,9.81,0.4982,-1.1496,-9.8783,-13.1478,-3.0609
1735,9.7334,0.4982,-0.958,-9.5304,-12.6609,-2.9913
1740,9.6184,0.4598,-1.073,-9.3217,-11.9652,-2.9217
1745,9.7334,0.3449,-1.1113,-9.1826,-11.4087,-2.9217
1750,9.695,0.2682,-0.958,-9.1826,-10.713,-3.0609
1755,9.695,0.3832,-1.1113,-9.0435,-10.1565,-3.3391
1760,9.7334,0.3832,-1.073,-9.0435,-9.5304,-3.4087
1765,9.6567,0.3449,-1.073,-9.0435,-9.0435,-3.4783
1770,9.695,0.3449,-1.2646,-8.9739,-8.8348,-3.7565
1775,9.695,0.3066,-0.958,-8.9043,-8.6261,-3.8957
1780,9.695,0.3449,-1.1113,-8.8348,-8.487,-4.0348
1785,9.7717,0.4598,-0.9963,-8.6957,-8.487,-4.1739
1790,9.7717,0.3832,-1.073,-8.5565,-8.6261,-4.313
1795,9.7717,0.3449,-1.073,-8.487,-8.6261,-4.313
1800,9.7717,0.3449,-1.1879,-8.4174,-8.7652,-4.5217
1805,9.6567,0.4598,-1.3412,-8.487,-8.8348,-4.6609
1810,9.695,0.5748,-1.3412,-8.6261,-8.7652,-4.8696
1815,9.7334,0.5748,-1.2646,-8.9043,-8.7652,-5.0087
1820,9.695,0.6898,-1.3412,-9.2522,-8.6957,-5.1478
1825,9.695,0.6898,-1.3795,-9.4609,-8.5565,-5.0783
1830,9.695,0.6131,-1.5328,-9.7391,-8.2783,-4.9391
1835,9.6567,0.6514,-1.5328,-9.8783,-7.9304,-4.7304
1840,9.6567,0.5365,-1.5328,-10.0174,-7.5826,-4.4522
1845,9.7717,0.5748,-1.5711,-9.8783,-7.1652,-4.2435
1850,9.695,0.5365,-1.5328,-9.8783,-6.6783,-3.8261
1855,9.7334,0.5365,-1.4562,-9.8087,-6.1217,-3.4783
1860,9.7334,0.6131,-1.4945,-9.6,-5.4957,-3.1304
1865,9.5418,0.6898,-1.3029,-9.3913,-4.7304,-2.7826
1870,9.7717,0.4982,-1.3795,-9.1826,-3.9652,-2.5043
1875,9.6567,0.5748,-1.5711,-8.9739,-3.2696,-2.0174
1880,9.6567,0.5748,-1.5711,-8.7652,-2.5043,-1.6696
1885,9.6184,0.8047,-1.4179,-8.487,-1.8087,-1.3913
1890,9.6567,0.5748,-1.3795,-8.0696,-1.1826,-1.113
1895,9.6567,0.8047,-1.4945,-7.7217,-0.5565,-0.7652
1900,9.695,0.6898,-1.3795,-7.2348,0.2783,-0.4174
1905,9.6567,0.6898,-1.4562,-6.6783,0.9739,0.0696
1910,9.695,0.6898,-1.4945,-6.1913,1.6696,0.6957
1915,9.695,0.6514,-1.3795,-5.7739,2.087,0.9043
1920,9.6184,0.7664,-1.4562,-5.5652,2.5739,1.2522
1925,9.6567,0.5365,-1.3795,-5.3565,2.9217,1.5304
1930,9.6567,0.5748,-1.4179,-5.1478,3.0609,1.6
1935,9.5418,0.5365,-1.3029,-4.8,3.2,1.6696
1940,9.6567,0.6898,-1.3412,-4.4522,3.4087,1.6696
1945,9.6184,0.5365,-1.3412,-4.2435,3.687,1.8087
1950,9.5801,0.5748,-1.3412,-3.9652,4.1043,2.0174
1955,9.695,0.6898,-1.3029,-3.8957,4.2435,2.087
1960,9.5801,0.6514,-1.2263,-4.0348,4.3826,1.8783
1965,9.5801,0.6131,-1.4179,-3.9652,4.313,1.8087
1970,9.695,0.5748,-1.2646,-4.1043,4.3826,1.8087
1975,9.5418,0.7664,-1.3412,-4.1043,4.6609,1.8783
1980,9.6567,0.6898,-1.3029,-4.1043,4.7304,1.9478
1985,9.6184,0.7664,-1.2263,-4.1739,4.7304,1.8783
1990,9.6567,0.6898,-1.3412,-4.313,4.7304,1.8087
1995,9.5801,0.7281,-1.2263,-4.3826,4.5913,1.7391
2000,9.5801,0.7281,-1.3029,-4.5217,4.5217,1.9478
2005,9.5418,0.6131,-1.3795,-4.5913,4.313,2.0174
2010,9.6567,0.6131,-1.2646,-4.5913,4.1739,2.087
2015,9.7717,0.6131,-1.3412,-4.5913,4.0348,2.1565
2020,9.6567,0.6514,-1.3412,-4.6609,3.9652,2.2261
2025,9.6184,0.6898,-1.2646,-4.6609,3.687,2.2957
2030,9.6567,0.7281,-1.3029,-4.6609,3.6174,2.3652
2035,9.5801,0.6131,-1.4945,-4.7304,3.4783,2.4348
2040,9.6184,0.5365,-1.4945,-4.8,3.3391,2.4348
2045,9.6567,0.6898,-1.3795,-4.8,3.2696,2.5043
2050,9.6567,0.5365,-1.3412,-4.7304,3.2696,2.5043
2055,9.6184,0.5748,-1.2646,-4.6609,3.2696,2.6435
2060,9.695,0.5748,-1.1879,-4.3826,3.4087,2.713
2065,9.7717,0.4598,-1.4562,-4.1043,3.5478,2.713
2070,9.7334,0.4598,-1.4179,-3.7565,3.5478,2.713
2075,9.695,0.5748,-1.5711,-3.5478,3.7565,2.713
2080,9.695,0.4215,-1.3412,-3.2696,4.0348,2.6435
2085,9.6184,0.4982,-1.5328,-2.9217,4.4522,2.6435
2090,9.6567,0.5748,-1.4945,-2.5043,4.8696,2.6435
2095,9.7334,0.5365,-1.4945,-2.2261,5.5652,2.6435
2100,9.5418,0.4982,-1.4179,-1.8087,6.1913,2.5739
2105,9.695,0.4215,-1.4179,-1.3913,6.887,2.5043
2110,9.5801,0.5748,-1.5711,-0.9043,7.5826,2.713
2115,9.6567,0.4982,-1.3795,-0.4174,8.2783,2.7826
2120,9.695,0.4982,-1.4562,-0.1391,8.7652,2.8522
2125,9.6567,0.4982,-1.4179,0.2783,8.9739,2.9217
2130,9.5801,0.4598,-1.3412,0.3478,9.113,2.5739
2135,9.6567,0.5365,-1.3795,0.3478,8.9739,2.4348
2140,9.6184,0.5365,-1.3795,0.3478,8.8348,2.2261
2145,9.6567,0.6131,-1.4179,0.2783,8.8348,2.2261
2150,9.6567,0.6131,-1.3029,0.2783,8.7652,2.1565
2155,9.695,0.4982,-1.3029,0.2087,8.6261,2.1565
2160,9.7334,0.5365,-1.4562,0.0,8.6957,2.1565
2165,9.6184,0.5748,-1.2263,-0.1391,8.5565,2.087
2170,9.6567,0.6131,-1.3795,-0.3478,8.487,2.0174
2175,9.6567,0.5365,-1.3029,-0.2783,8.3478,1.9478
2180,9.6184,0.4982,-1.4945,-0.2783,8.3478,2.2261
2185,9.7334,0.6131,-1.4562,-0.3478,8.487,2.2957
2190,9.6184,0.6514,-1.2263,-0.3478,8.487,2.3652
2195,9.6567,0.5365,-1.4562,-0.2087,8.487,2.3652
2200,9.6184,0.5748,-1.3029,-0.2783,8.4174,2.2261
2205,9.6567,0.5748,-1.3795,-0.3478,8.487,2.0174
2210,9.7334,0.4598,-1.2263,-0.2783,8.487,2.0174
2215,9.6567,0.4598,-1.1496,-0.2783,8.487,1.9478
2220,9.6567,0.5365,-1.2263,-0.2783,8.487,1.9478
2225,9.6567,0.5748,-1.2646,-0.2087,8.487,1.8087
2230,9.7717,0.4598,-1.1496,-0.1391,8.4174,1.9478
2235,9.6567,0.6898,-1.2646,-0.1391,8.2087,2.0174
2240,9.695,0.6131,-1.2646,-0.0696,8.1391,2.1565
2245,9.7334,0.6131,-1.3029,0.1391,8.1391,2.5739
2250,9.695,0.5748,-1.2263,0.2783,8.0,2.8522
2255,9.6567,0.5748,-1.1113,0.4174,7.7217,2.8522
2260,9.6567,0.4982,-1.2646,0.4174,7.4435,2.7826
2265,9.5418,0.5748,-1.1496,0.4174,7.2348,2.9217
2270,9.5801,0.6131,-1.1113,0.3478,6.887,2.9913
2275,9.695,0.4982,-1.2263,0.3478,6.7478,2.9217
2280,9.5801,0.6131,-1.1113,0.2783,6.6087,2.9913
2285,9.5801,0.6131,-1.2646,0.2783,6.5391,3.0609
2290,9.6567,0.4215,-1.1496,0.2783,6.5391,3.1304
2295,9.5418,0.4982,-1.2263,0.2783,6.5391,3.2696
2300,9.695,0.4215,-1.2646,0.2087,6.4696,3.3391
2305,9.4651,0.4982,-1.2263,0.2087,6.4,3.2696
2310,9.7717,0.4215,-1.2263,0.1391,6.4,3.1304
2315,9.6567,0.5365,-1.1879,0.2087,6.5391,3.3391
2320,9.6184,0.4598,-1.1113,0.2087,6.6783,3.3391
2325,9.6567,0.5365,-1.3412,0.0,6.6087,3.2
2330,9.6567,0.4215,-1.073,-0.0696,6.4,3.1304
2335,9.6567,0.4982,-1.2263,0.0,6.5391,3.1304
2340,9.695,0.3449,-1.0346,0.0,6.6087,3.0609
2345,9.695,0.3832,-1.1113,0.0,6.6087,2.8522
2350,9.6184,0.5365,-1.1496,0.0696,6.6087,2.8522
2355,9.6567,0.3066,-1.1879,0.0696,6.4696,2.5739
2360,9.695,0.3066,-1.2263,0.1391,6.4,2.5043
2365,9.6184,0.4598,-1.2263,0.0696,6.2609,2.4348
2370,9.5418,0.4598,-1.073,0.0696,6.1913,2.1565
2375,9.695,0.3449,-1.073,0.0696,6.2609,2.1565
2380,9.6567,0.2682,-1.1879,0.0,6.2609,2.087
2385,9.6184,0.3449,-1.1496,0.0696,6.1217,1.9478
2390,9.695,0.2682,-1.1496,-0.1391,6.1913,1.9478
2395,9.5801,0.3066,-1.2646,-0.2783,6.1913,1.7391
2400,9.695,0.3449,-1.1113,-0.3478,6.1913,1.5304
2405,9.7334,0.2682,-1.1879,-0.5565,6.1217,1.4609
2410,9.695,0.3066,-1.1496,-0.6957,5.9826,1.3217
2415,9.6184,0.2682,-1.1113,-0.8348,5.8435,1.1826
2420,9.5801,0.3832,-1.1496,-0.7652,5.6348,0.9043
2425,9.7334,0.3066,-1.1879,-0.9043,5.4261,0.9043
2430,9.7334,0.3066,-1.1113,-0.9043,5.287,0.8348
2435,9.695,0.1916,-1.1496,-0.9043,5.0783,0.7652
2440,9.7334,0.2299,-1.1496,-0.9739,4.8696,0.5565
2445,9.695,0.2682,-1.2263,-1.0435,4.7304,0.4174
2450,9.6567,0.3066,-1.1496,-1.1826,4.6609,0.2087
2455,9.695,0.3449,-1.1496,-1.2522,4.5217,0.0
2460,9.695,0.2299,-1.0346,-1.2522,4.5217,-0.1391
2465,9.6567,0.3066,-1.1879,-1.4609,4.313,-0.2783
2470,9.5418,0.2299,-1.1113,-1.6,4.1043,-0.4174
2475,9.7717,0.2299,-1.2646,-1.8087,4.1739,-0.5565
2480,9.5418,0.4598,-1.1879,-2.0174,4.1043,-0.6261
2485,9.6184,0.4215,-1.073,-2.0174,3.8957,-0.6957
2490,9.6184,0.3832,-1.1496,-2.1565,3.8261,-0.7652
2495,9.695,0.1533,-1.1113,-2.087,3.7565,-0.9043
2500,9.6184,0.4215,-1.2646,-2.1565,3.6174,-0.8348
2505,9.6184,0.3449,-1.1496,-2.0174,3.6174,-0.8348
2510,9.6567,0.3832,-1.2646,-1.9478,3.5478,-0.9739
2515,9.5801,0.4215,-1.1879,-1.8783,3.5478,-1.0435
2520,9.7334,0.3449,-1.2646,-1.8087,3.4783,-1.0435
2525,9.6567,0.4598,-1.2646,-1.8783,3.4087,-0.9739
2530,9.7334,0.4598,-1.2646,-1.8087,3.3391,-1.0435
2535,9.6567,0.4598,-1.2646,-1.8087,3.4087,-0.9739
2540,9.7334,0.4215,-1.2263,-1.8783,3.3391,-0.9739
2545,9.6567,0.5365,-1.3029,-2.087,3.4783,-0.9043
2550,9.695,0.5748,-1.2646,-2.087,3.4087,-0.9043
2555,9.7717,0.4215,-1.2646,-2.2261,3.4783,-0.9739
2560,9.6184,0.4215,-1.2263,-2.2261,3.5478,-0.9739
2565,9.6184,0.5365,-1.2263,-2.1565,3.687,-0.9739
2570,9.7334,0.4982,-1.1879,-2.2261,3.687,-0.9043
2575,9.6567,0.5365,-1.3029,-2.1565,3.8261,-0.9739
2580,9.7334,0.4598,-1.1496,-2.1565,3.7565,-0.8348
2585,9.6184,0.6131,-1.3412,-2.087,3.8957,-0.7652
2590,9.7334,0.4598,-1.3029,-2.087,4.0348,-0.7652
2595,9.6567,0.4215,-1.2263,-2.1565,3.9652,-0.6261
2600,9.6184,0.4982,-1.1496,-2.1565,3.9652,-0.6261
2605,9.695,0.3832,-1.3029,-2.087,4.0348,-0.5565
2610,9.5801,0.6514,-1.1496,-2.087,4.0348,-0.5565
2615,9.6567,0.3449,-1.1879,-2.0174,4.0348,-0.487
2620,9.695,0.4215,-1.2263,-1.9478,4.1739,-0.3478
2625,9.81,0.4598,-1.1879,-1.8087,4.1043,-0.2783
2630,9.6567,0.4215,-1.3029,-1.6,4.3826,-0.1391
2635,9.6184,0.4598,-1.2646,-1.4609,4.4522,-0.0696
2640,9.5418,0.4215,-1.2646,-1.3913,4.4522,-0.1391
2645,9.6567,0.4982,-1.4562,-1.3217,4.4522,0.0
2650,9.6567,0.3066,-1.3412,-1.3913,4.6609,0.0696
2655,9.7334,0.3449,-1.3029,-1.3217,4.8,0.2087
2660,9.6184,0.3449,-1.2646,-1.1826,4.8696,0.4174
2665,9.5034,0.4215,-1.3412,-1.3217,5.0783,0.4174
2670,9.5418,0.4215,-1.2646,-1.3217,5.0087,0.3478
2675,9.5801,0.4598,-1.2263,-1.5304,5.0783,0.2087
2680,9.695,0.3449,-1.3412,-1.6,4.9391,0.2087
2685,9.695,0.5365,-1.1879,-1.5304,5.0087,0.2087
2690,9.7334,0.4215,-1.1879,-1.5304,4.9391,0.2087
2695,9.6567,0.4598,-1.1879,-1.4609,5.1478,0.2783
2700,9.6567,0.4215,-1.3029,-1.3913,5.2174,0.4174
2705,9.6567,0.3449,-1.3029,-1.1826,5.2174,0.5565
2710,9.6567,0.3449,-1.3412,-1.2522,5.287,0.5565
2715,9.7334,0.4982,-1.1879,-1.113,5.4261,0.487
2720,9.6567,0.3066,-1.3029,-1.0435,5.3565,0.4174
2725,9.7717,0.4215,-1.3029,-0.9043,5.4261,0.4174
2730,9.7334,0.3449,-1.1496,-0.8348,5.4957,0.4174
2735,9.7334,0.3832,-1.2646,-0.7652,5.4957,0.4174
2740,9.695,0.3832,-1.1496,-0.7652,5.4261,0.4174
2745,9.6184,0.4598,-1.1879,-0.8348,5.4261,0.4174
2750,9.6567,0.3449,-1.1496,-0.7652,5.4957,0.5565
2755,9.6184,0.3832,-1.2263,-0.8348,5.4957,0.3478
2760,9.5801,0.4982,-1.3029,-0.9043,5.5652,0.4174
2765,9.6184,0.3449,-1.2263,-0.9739,5.6348,0.3478
2770,9.5801,0.3832,-1.2263,-0.9043,5.7043,0.3478
2775,9.6184,0.3832,-1.2646,-0.9043,5.6348,0.487
2780,9.6567,0.3449,-1.3029,-0.9043,5.6348,0.4174
2785,9.7334,0.2682,-1.2263,-0.9739,5.7043,0.487
2790,9.6567,0.3832,-1.3412,-0.9043,5.7043,0.487
2795,9.5801,0.4215,-1.1496,-0.9043,5.4957,0.4174
2800,9.5801,0.4598,-1.0346,-0.9739,5.4957,0.3478
2805,9.695,0.3449,-1.2646,-0.9043,5.4261,0.4174
2810,9.7717,0.4598,-1.1879,-0.9043,5.287,0.2783
2815,9.6184,0.4598,-1.3795,-0.9043,5.287,0.3478
2820,9.6567,0.3066,-1.2263,-0.9739,5.1478,0.4174
2825,9.6184,0.3449,-1.1496,-1.0435,5.1478,0.4174
2830,9.6567,0.3449,-1.3795,-0.9739,5.0783,0.3478
2835,9.6567,0.4215,-1.3029,-0.9739,5.1478,0.3478
2840,9.7334,0.3832,-1.1879,-0.9043,5.2174,0.3478
2845,9.6184,0.4598,-1.2646,-1.0435,5.287,0.3478
2850,9.6567,0.3449,-1.2646,-0.9739,5.3565,0.3478
2855,9.6567,0.3832,-1.1496,-1.0435,5.3565,0.2783
2860,9.695,0.3832,-1.0346,-1.113,5.3565,0.2087
2865,9.695,0.3832,-1.2263,-1.113,5.287,0.0696
2870,9.6184,0.3449,-1.2263,-1.0435,5.287,0.0696
2875,9.5801,0.4598,-1.1113,-1.113,5.3565,0.0
2880,9.695,0.4215,-1.3029,-1.0435,5.287,-0.0696
2885,9.6184,0.3832,-1.2263,-0.9739,5.2174,-0.0696
2890,9.7334,0.3066,-1.1879,-0.9739,5.0783,-0.1391
2895,9.7334,0.4215,-1.1113,-0.9739,5.0783,-0.0696
2900,9.7334,0.3832,-1.3412,-1.0435,5.1478,-0.0696
2905,9.6567,0.4598,-1.2263,-1.0435,5.287,0.0
2910,9.6567,0.3832,-1.2646,-0.9739,5.3565,0.0
2915,9.5801,0.4215,-1.2646,-1.0435,5.4957,0.0
2920,9.7334,0.3832,-1.3029,-1.113,5.6348,-0.0696
2925,9.6567,0.3832,-1.1496,-1.113,5.8435,0.1391
2930,9.695,0.4598,-1.2646,-1.0435,5.9826,0.1391
2935,9.695,0.4215,-1.3029,-1.113,5.9826,0.2087
2940,9.6567,0.4215,-1.1879,-1.113,6.1217,0.1391
2945,9.6567,0.5365,-1.1113,-1.113,6.1913,0.0696
2950,9.6184,0.4598,-1.1113,-1.3217,6.2609,0.0696
2955,9.6184,0.4598,-1.1496,-1.3217,6.2609,-0.0696
2960,9.695,0.3832,-1.0346,-1.2522,6.1913,-0.0696
2965,9.695,0.3449,-1.1496,-1.2522,6.1217,-0.1391
2970,9.6567,0.4598,-1.073,-1.3217,6.1217,-0.1391
2975,9.5801,0.6131,-0.958,-1.3913,5.913,-0.1391
2980,9.8483,0.3832,-1.4562,-1.4609,5.7739,-0.2783
2985,9.6184,0.4598,-0.9963,-1.6,5.7043,-0.2783
2990,9.6567,0.6131,-1.6478,-1.6,5.5652,-0.3478
2995,9.6567,0.4215,-1.6095,-1.6696,5.287,-0.4174
