timestamp,accX,accY,accZ,gyroX,gyroY,gyroZ
0,0.7281,-3.6021,7.5108,18.3652,2.087,1.0435
5,0.843,-3.5638,7.2042,17.8087,1.9478,1.4609
10,0.8814,-3.3722,7.2809,16.3478,1.8087,2.0174
15,0.8047,-3.3722,7.1659,14.5391,1.6696,2.2261
20,0.9197,-3.1806,7.1659,11.8261,2.0174,2.3652
25,0.8814,-3.1806,7.1276,9.0435,2.2957,2.5043
30,1.0346,-3.6787,7.7024,5.7739,2.6435,2.5739
35,1.0346,-3.2572,7.2042,2.9217,2.9217,2.5739
40,1.0346,-3.2955,7.2042,0.1391,3.0609,2.1565
45,0.958,-3.2955,7.0126,-1.9478,3.1304,2.087
50,1.1113,-3.2572,7.3575,-3.687,3.3391,2.1565
55,0.9963,-3.2955,7.4725,-4.4522,3.2,1.7391
60,0.8047,-3.3339,7.5108,-4.7304,3.3391,1.4609
65,0.8047,-3.3339,7.5874,-4.313,3.4087,1.1826
70,0.6898,-3.2955,7.5491,-2.9913,3.2696,0.6261
75,0.5748,-3.3722,7.6257,-1.3217,3.1304,0.2087
80,0.6131,-3.2572,7.5491,0.8348,3.0609,0.0
85,0.4598,-2.9123,7.5108,2.9217,3.1304,-0.4174
90,0.3832,-3.2189,7.5491,5.0087,3.1304,-0.9043
95,0.3832,-3.2955,7.7024,7.0957,3.1304,-0.9739
100,0.3832,-3.2189,7.6257,8.7652,3.3391,-1.113
105,0.1916,-3.2572,7.5874,9.9478,3.6174,-1.1826
110,0.2299,-3.1806,7.4725,10.5043,3.7565,-1.3217
115,0.1916,-2.989,7.5874,10.2957,3.9652,-1.1826
120,0.1533,-3.1039,7.4341,9.4609,3.8957,-1.113
125,0.2299,-3.1039,7.4341,8.2783,3.8261,-1.113
130,0.1916,-2.9507,7.3958,6.4696,3.7565,-0.8348
135,0.2299,-3.0273,7.4341,4.313,3.4087,-0.5565
140,0.3066,-3.1039,7.5491,2.087,3.1304,-0.2087
145,0.2299,-3.1423,7.4725,-0.2783,2.6435,-0.0696
150,0.4215,-3.1423,7.5491,-2.3652,2.2957,0.2783
155,0.4598,-3.0656,7.5108,-4.3826,1.8783,0.4174
160,0.3449,-3.1423,7.779,-5.9826,1.4609,0.487
165,0.4982,-3.2572,7.6641,-7.513,1.2522,0.487
170,0.6131,-3.2189,7.5874,-8.487,0.9043,0.5565
175,0.6514,-3.2572,7.6257,-9.1826,0.6957,0.6261
180,0.7664,-3.3339,7.779,-9.6696,0.6261,0.5565
185,0.7281,-3.3722,7.8173,-9.6696,0.487,0.4174
190,0.7281,-3.2955,7.7024,-9.2522,0.487,0.4174
195,0.6898,-3.3339,7.8557,-8.5565,0.4174,0.3478
200,0.6514,-3.3339,7.779,-7.3043,0.2087,0.487
205,0.6898,-3.4105,7.8173,-5.7739,0.1391,0.487
210,0.7281,-3.3722,7.7024,-4.3826,0.0696,0.7652
215,0.6898,-3.4488,7.8557,-2.8522,-0.0696,0.9739
220,0.4982,-3.3722,7.4341,-1.5304,-0.4174,1.0435
225,0.7664,-3.3722,7.6257,-0.9043,-0.3478,1.5304
230,0.7281,-3.1806,7.5491,-0.4174,-0.487,1.6
235,0.6131,-3.2189,7.5108,-0.487,-0.487,1.6696
240,0.7281,-3.1039,7.3958,-1.4609,-0.1391,2.2261
245,0.6131,-3.0656,7.2809,-2.5739,-0.1391,2.4348
250,0.6131,-2.989,7.2809,-4.2435,0.0696,2.7826
255,0.6131,-2.8357,7.3575,-6.0522,0.2087,2.9217
260,0.8047,-3.0656,7.2425,-7.7913,0.2087,2.6435
265,0.5748,-2.9123,7.3192,-9.6,0.3478,2.6435
270,0.6131,-2.989,7.4341,-11.3391,0.7652,2.6435
275,0.7281,-3.0656,7.3575,-13.0087,1.0435,2.2261
280,0.5748,-3.1039,7.3958,-14.5391,1.2522,1.8783
285,0.6514,-3.2189,7.4341,-15.3739,1.5304,1.4609
290,0.5365,-3.3339,7.5108,-15.4435,1.6,0.9043
295,0.4982,-3.3722,7.4341,-15.1652,1.7391,0.2783
300,0.5748,-3.4105,7.4341,-14.8174,2.0174,-0.2087
305,0.6514,-3.5255,7.4725,-13.913,2.2261,-0.487
310,0.5748,-3.4488,7.6641,-12.6609,2.2957,-0.7652
315,0.6514,-3.5638,7.6641,-10.8522,2.2261,-1.113
320,0.5748,-3.5255,7.7024,-8.9043,2.2957,-1.5304
325,0.6514,-3.5638,7.4725,-7.3739,2.3652,-1.6
330,0.5365,-3.5255,7.6257,-5.9826,2.2957,-1.6
335,0.5365,-3.4488,7.5108,-5.0087,2.2261,-1.2522
340,0.6131,-3.4871,7.6641,-4.7304,2.2261,-0.8348
345,0.6131,-3.3339,7.6257,-4.1739,2.0174,-0.5565
350,0.5365,-3.4105,7.3958,-3.9652,1.7391,-0.6261
355,0.4982,-3.4488,7.4341,-4.6609,1.6696,-0.3478
360,0.3449,-3.4871,7.2809,-5.7043,1.6696,-0.2087
365,0.6514,-3.0656,7.5874,-7.1652,1.5304,0.1391
370,0.6898,-3.0656,7.4725,-8.2783,1.4609,0.2087
375,0.6131,-3.1423,7.3575,-9.6696,1.5304,0.2783
380,0.6514,-3.1039,7.6641,-11.687,1.7391,0.5565
385,0.6898,-3.1806,7.5874,-12.9391,1.4609,0.6957
390,0.6131,-3.1039,7.5108,-14.1217,1.3913,0.9043
395,0.5748,-3.1806,7.5108,-15.3043,1.3913,1.113
400,0.6898,-3.2955,7.5108,-16.0696,1.1826,1.0435
405,0.5748,-3.2955,7.3958,-16.9043,0.9043,0.9043
410,0.7664,-3.2572,7.4341,-17.8783,0.9739,1.113
415,0.6514,-3.3339,7.3958,-18.4348,0.8348,1.113
420,0.6514,-3.2955,7.5108,-19.2696,0.8348,0.7652
425,0.6514,-3.6021,7.4725,-19.8261,0.6261,0.7652
430,0.6514,-3.4871,7.3575,-20.313,0.7652,0.7652
435,0.6514,-3.4871,7.3575,-20.2435,0.8348,0.7652
440,0.5748,-3.6787,7.3958,-20.1739,1.113,0.6957
445,0.6514,-3.6404,7.3192,-20.0348,1.1826,0.3478
450,0.6131,-3.7554,7.6257,-19.5478,1.3217,0.1391
455,0.6131,-3.6021,7.5491,-19.2,1.6,-0.0696
460,0.6514,-3.7171,7.4725,-18.3652,1.6696,-0.1391
465,0.6514,-3.7554,7.5108,-17.3217,1.8087,-0.2783
470,0.6131,-3.6404,7.6641,-16.2087,1.8783,-0.6261
475,0.5748,-3.9853,7.6641,-15.3739,2.087,-0.6957
480,0.6131,-3.7937,7.3575,-14.8174,2.2261,-0.9043
485,0.6514,-3.7937,7.3958,-14.1217,2.3652,-0.8348
490,0.4982,-3.7554,7.5874,-13.6348,2.2957,-0.8348
495,0.6514,-3.8704,7.3192,-13.2174,2.087,-0.6261
500,0.4598,-3.6404,7.3575,-13.0783,2.0174,-0.6261
505,0.5748,-3.6021,7.3958,-13.1478,1.8783,-0.5565
510,0.5365,-3.7171,7.2042,-13.0087,1.7391,-0.487
515,0.5365,-3.7171,7.2809,-13.5652,1.5304,-0.4174
520,0.4982,-3.7171,7.0893,-14.2609,1.4609,-0.2087
525,0.4598,-3.4488,7.3958,-15.1652,1.2522,-0.0696
530,0.5748,-3.7171,7.2425,-15.6522,1.1826,0.1391
535,0.5748,-3.6021,7.1659,-15.7913,1.1826,0.1391
540,0.5748,-3.7554,7.3192,-16.2087,1.3217,0.0696
545,0.5748,-3.832,7.2042,-16.6957,1.3913,-0.0696
550,0.6131,-3.5638,7.4725,-17.2522,1.6,0.0
555,0.7281,-3.7171,7.3958,-16.9043,1.6,0.0
560,0.5748,-3.6404,7.5491,-17.3217,1.6696,-0.1391
565,0.6514,-3.6404,7.4725,-16.9043,1.8783,-0.2087
570,0.5748,-3.7554,7.4725,-15.8609,2.0174,-0.2783
575,0.7664,-3.5255,7.0893,-15.3043,2.2261,-0.3478
580,0.3449,-3.6021,7.4725,-15.3043,2.5739,-0.4174
585,0.4982,-3.8704,7.4341,-15.0261,2.5739,-0.487
590,0.4215,-3.8704,7.3575,-15.3043,2.7826,-0.5565
595,0.4982,-3.832,7.2809,-15.6522,2.9217,-0.4174
600,0.4982,-3.6787,7.3575,-15.2348,2.8522,-0.2087
605,0.4215,-3.8704,7.3958,-15.0957,2.8522,-0.0696
610,0.6898,-3.7937,7.2042,-15.4435,2.7826,-0.0696
615,0.4982,-3.8704,7.2042,-15.513,2.9217,0.1391
620,0.6131,-3.8704,7.1276,-16.0696,2.9217,0.2087
625,0.6131,-3.9087,7.3192,-16.2087,2.7826,0.2087
630,0.6898,-3.2955,6.7827,-15.6522,2.713,0.2783
635,0.6514,-3.9853,7.3958,-14.887,2.5739,0.3478
640,0.5365,-3.947,7.3575,-14.6087,2.5739,0.487
645,0.6131,-4.1769,7.2042,-14.7478,2.713,0.3478
650,0.6131,-4.0236,7.2425,-14.9565,2.713,0.1391
655,0.6131,-4.1003,7.1659,-13.8435,2.5043,0.2087
660,0.5748,-4.1386,7.2042,-13.3565,2.4348,0.2087
665,0.6131,-3.9853,7.4341,-13.6348,2.5739,-0.0696
670,0.5365,-3.9853,7.3958,-13.6348,2.6435,-0.2783
675,0.6131,-4.1386,7.1276,-13.3565,2.713,-0.4174
680,0.5365,-3.9087,7.2425,-13.4957,2.7826,-0.5565
685,0.6898,-4.0236,7.3192,-13.4957,2.7826,-0.8348
690,0.5748,-3.947,7.2042,-13.7043,2.713,-0.8348
695,0.6514,-3.9853,7.2042,-13.8435,2.7826,-0.8348
700,0.5365,-4.0236,7.2042,-13.8435,2.8522,-1.0435
705,0.4982,-4.1003,7.2809,-13.6348,2.9217,-1.0435
710,0.6131,-4.1386,7.3575,-13.7043,2.9217,-0.9043
715,0.3449,-4.062,7.3192,-13.7739,2.9217,-0.8348
720,0.4982,-4.0236,7.3958,-12.9391,2.713,-0.3478
725,0.4982,-4.1386,7.4341,-12.2435,2.5739,-0.2783
730,0.3832,-4.2536,7.3575,-11.4087,2.4348,-0.0696
735,0.4982,-4.3685,7.1276,-11.1304,2.3652,0.3478
740,0.4215,-4.1003,7.3575,-11.2,2.3652,0.4174
745,0.4215,-4.1003,7.3192,-10.4348,2.087,0.8348
750,0.4598,-4.1003,7.3192,-10.2957,1.8087,1.113
755,0.6131,-4.2152,7.0126,-10.3652,1.6696,1.2522
760,0.4982,-4.1769,6.8977,-10.1565,1.6696,1.2522
765,0.4982,-4.0236,7.1276,-9.8087,1.6696,1.3217
770,0.6514,-4.062,7.3192,-10.7826,1.6696,1.113
775,0.5748,-4.2152,7.0893,-11.1304,1.7391,0.9739
780,0.6131,-4.1386,6.936,-12.0348,2.0174,0.8348
785,0.3832,-4.0236,7.2042,-13.0087,2.2261,0.5565
790,0.5748,-4.1386,7.1659,-13.5652,2.2261,0.7652
795,0.4982,-4.062,7.2809,-13.9826,2.5043,0.5565
800,0.6131,-4.3685,7.3575,-14.1913,2.7826,0.2087
805,0.4215,-4.1386,7.2809,-14.887,3.1304,-0.2087
810,0.4598,-4.2919,7.1276,-15.1652,3.0609,-0.3478
815,0.5365,-4.1769,7.2809,-15.4435,3.0609,-0.3478
820,0.4215,-4.1386,7.6257,-15.3043,3.3391,-0.487
825,0.5365,-4.4835,7.0126,-14.8174,3.2,-0.6261
830,0.6131,-4.2919,7.2425,-15.1652,3.4087,-0.6261
835,0.4982,-4.1003,7.3958,-15.0261,3.4087,-0.487
840,0.3832,-4.062,7.2809,-14.887,3.2696,-0.4174
845,0.4598,-4.2152,7.2425,-14.7478,3.1304,-0.4174
850,0.3066,-4.062,7.2042,-15.0957,2.7826,-0.1391
855,0.3449,-4.0236,7.3192,-15.3043,2.2957,0.1391
860,0.3832,-4.1003,7.0893,-15.8609,1.3913,0.4174
865,0.4598,-4.0236,7.2425,-16.2087,0.4174,0.8348
870,0.3832,-3.9853,7.1659,-16.2783,-0.7652,1.7391
875,0.4598,-4.1003,7.0126,-15.6522,-2.087,2.5043
880,0.4598,-4.1386,6.7061,-15.1652,-3.4087,3.2
885,0.5365,-4.1003,6.5145,-14.4696,-4.5217,3.8957
890,0.4982,-3.7937,6.2462,-14.5391,-5.4957,4.5217
895,0.6898,-3.947,6.2845,-15.3043,-6.1217,4.7304
900,0.6514,-3.9853,6.0163,-17.7391,-6.1217,4.5217
905,0.6898,-4.0236,5.978,-21.287,-5.2174,3.8957
910,0.5365,-4.1769,6.0546,-26.6435,-3.687,3.0609
915,0.4598,-4.2536,6.2079,-32.5565,-2.2957,2.1565
920,0.4982,-4.79,6.3229,-38.4696,-0.8348,1.0435
925,0.3832,-4.79,6.5911,-43.1304,0.2087,0.0
930,0.3832,-5.02,6.936,-45.8435,0.9739,-1.0435
935,0.3832,-5.2116,7.2042,-46.6783,1.7391,-2.0174
940,0.5365,-5.2882,7.3958,-45.4261,2.2957,-2.9217
945,0.4215,-5.02,7.9323,-42.1565,2.5739,-3.687
950,0.4982,-5.1349,7.9706,-37.1478,2.8522,-4.1739
955,0.5748,-4.8667,7.9323,-31.0957,3.0609,-4.4522
960,0.6131,-4.7517,7.9323,-24.9739,3.2,-4.5913
965,0.7281,-4.5601,7.8557,-20.1739,3.2,-4.6609
970,0.8047,-4.2919,7.3958,-16.7652,3.0609,-4.5913
975,0.843,-4.1003,7.1659,-14.887,2.9913,-4.8
980,0.8814,-3.947,6.8593,-15.3739,2.713,-5.2174
985,0.9197,-4.1003,6.5145,-18.087,2.2261,-5.0783
990,1.1496,-4.3685,6.3612,-21.7739,1.6696,-5.2174
995,0.9963,-4.3302,6.5911,-25.5304,1.4609,-5.1478
1000,0.8047,-4.4452,6.821,-28.313,1.8087,-5.2174
1005,0.8047,-4.5984,6.8593,-29.3565,2.1565,-5.287
1010,0.6898,-4.7134,7.0126,-28.9391,2.6435,-5.287
1015,0.8047,-4.905,7.0126,-27.4087,3.6174,-5.1478
1020,0.5365,-4.6751,7.3575,-24.9739,4.5217,-5.287
1025,0.4982,-4.7134,7.3575,-21.9826,5.4261,-5.3565
1030,0.4598,-4.5601,7.2425,-19.1304,6.1217,-5.2174
1035,0.3832,-4.4068,7.2425,-16.7652,6.8174,-5.0087
1040,0.4982,-4.5218,7.3575,-14.8174,7.4435,-4.7304
1045,0.3832,-4.4452,7.2809,-13.4261,7.513,-4.313
1050,0.4215,-4.6751,7.2809,-11.8261,7.513,-3.8261
1055,0.3449,-4.7517,7.4341,-10.087,7.2348,-3.3391
1060,0.2682,-4.905,7.3958,-8.0696,7.0957,-3.2
1065,0.4982,-5.0966,7.4725,-5.2174,6.6783,-2.9217
1070,0.4982,-5.2116,7.5491,-1.6,6.4696,-2.5739
1075,0.5748,-5.1349,7.7407,2.2957,6.2609,-2.4348
1080,0.5365,-5.1732,7.6257,6.4696,6.0522,-2.3652
1085,0.5748,-5.02,7.5874,10.2261,6.1217,-2.087
1090,0.6131,-4.8667,7.1276,13.1478,6.1217,-1.9478
1095,0.7664,-4.7134,6.8977,14.6087,6.2609,-2.0174
1100,0.5748,-4.4835,6.5528,14.3304,6.2609,-1.8783
1105,0.6514,-4.2919,6.2845,12.2435,6.3304,-2.0174
1110,0.6898,-4.1003,6.0163,8.3478,6.4696,-2.087
1115,0.7281,-4.1386,5.978,3.4783,6.6087,-2.5043
1120,0.7281,-4.2536,6.0163,-2.0174,6.887,-2.9217
1125,0.6131,-4.2536,6.0546,-7.0261,7.2348,-3.4783
1130,0.4215,-4.4835,6.3612,-11.1304,7.513,-3.8957
1135,0.6131,-4.79,6.6294,-13.7739,7.5826,-3.8957
1140,0.3449,-5.02,6.7444,-15.2348,7.6522,-4.1043
1145,0.3832,-5.0966,6.936,-15.0957,7.4435,-3.9652
1150,0.2682,-5.3265,6.9743,-13.5652,7.4435,-4.1043
1155,0.3066,-5.4798,7.0893,-11.0609,7.3739,-3.9652
1160,0.1916,-5.6714,7.3192,-8.1391,7.1652,-3.8957
1165,0.1916,-5.748,7.2809,-4.9391,6.8174,-3.8261
1170,0.2299,-5.863,7.2042,-1.4609,6.6087,-3.6174
1175,0.0383,-5.748,7.1659,2.0174,6.3304,-3.5478
1180,0.1533,-5.863,7.0893,5.4957,6.1913,-3.0609
1185,0.2299,-5.748,7.0126,8.2783,5.8435,-2.713
1190,0.3066,-5.6331,6.5528,10.4348,5.4957,-2.2957
1195,0.3066,-5.5564,6.7061,11.9652,5.2174,-1.7391
1200,0.3066,-5.4032,6.4378,12.6609,4.9391,-1.5304
1205,0.2299,-5.2499,6.4761,12.6609,4.5913,-1.0435
1210,0.4215,-5.0966,6.2845,11.8261,4.313,-0.6957
1215,0.4598,-4.9433,6.1313,10.4348,4.0348,-0.6261
1220,0.4598,-4.9433,6.1313,8.6261,3.687,-0.487
1225,0.4215,-4.905,6.1313,6.6783,3.2,-0.2087
1230,0.4215,-4.8667,6.2079,4.8,2.7826,0.0
1235,0.3066,-4.79,6.3995,2.9913,2.4348,0.4174
1240,0.4598,-4.8667,6.5911,1.3913,2.087,0.9739
1245,0.4215,-4.8284,6.6677,-0.0696,1.8783,0.9739
1250,0.4215,-4.905,6.7061,-1.2522,1.6696,1.0435
1255,0.4982,-4.905,6.8593,-2.0174,1.3913,1.1826
1260,0.3832,-5.0583,6.821,-2.3652,1.1826,1.1826
1265,0.3066,-5.0583,7.0509,-2.2957,1.4609,0.8348
1270,0.4598,-5.1732,7.1659,-1.5304,1.8087,0.5565
1275,0.3832,-5.3648,7.0126,-0.0696,2.5043,0.0696
1280,0.4215,-5.3265,7.0893,1.6,3.0609,-0.2783
1285,0.3832,-5.4415,7.1659,3.6174,3.7565,-0.4174
1290,0.2682,-5.4798,7.0893,5.7043,4.1739,-0.3478
1295,0.2682,-5.4032,7.0893,7.4435,4.3826,-0.6957
1300,0.3449,-5.4415,7.0509,9.3217,4.6609,-0.487
1305,0.4215,-5.5181,7.0893,10.5043,4.5913,-0.3478
1310,0.4215,-5.4032,7.0893,11.2,4.313,-0.0696
1315,0.3449,-5.2882,6.936,11.687,3.8957,0.3478
1320,0.3066,-4.9816,6.7827,11.7565,3.687,0.487
1325,0.2299,-4.905,6.8977,11.6174,3.4087,0.8348
1330,0.2299,-4.905,6.821,11.0609,3.0609,1.1826
1335,0.1916,-4.8284,7.0126,10.0174,2.8522,1.6
1340,0.3066,-4.79,7.0509,8.9043,2.5043,2.2261
1345,0.2299,-4.8284,7.0126,7.7913,2.1565,2.087
1350,0.2299,-4.6751,6.9743,6.887,1.7391,2.1565
1355,0.2682,-4.8284,7.0509,6.1217,1.4609,2.3652
1360,0.3066,-4.7134,6.9743,5.287,1.1826,2.6435
1365,0.3066,-4.6368,7.0126,4.7304,0.9739,2.9217
1370,0.3449,-4.6368,6.9743,4.1043,0.8348,3.0609
1375,0.3066,-4.6368,6.8593,3.687,0.6957,2.9913
1380,0.3449,-4.6368,6.936,3.3391,0.487,3.0609
1385,0.4215,-4.7517,7.0509,3.2,0.4174,3.1304
1390,0.4215,-4.6751,6.936,3.1304,0.3478,2.9913
1395,0.3832,-4.7134,7.0126,3.3391,0.2783,2.7826
1400,0.3449,-4.5601,7.0126,3.687,0.2783,2.4348
1405,0.3066,-4.6751,6.8977,3.8957,0.0696,2.087
1410,0.3832,-4.8284,7.1276,4.2435,0.0696,1.8087
1415,0.4598,-4.6751,7.0509,4.5217,0.0696,1.3217
1420,0.3066,-4.6751,7.0893,4.7304,0.2783,0.8348
1425,0.3832,-4.6751,7.0509,5.0087,0.487,0.3478
1430,0.3449,-4.79,7.3575,5.2174,0.8348,-0.2087
1435,0.2299,-4.7134,7.2809,5.3565,1.1826,-0.5565
1440,0.4215,-4.8284,7.2425,5.4957,1.5304,-0.8348
1445,0.4215,-4.6751,7.2042,5.5652,1.7391,-0.9739
1450,0.1916,-4.3302,7.1276,5.5652,1.8087,-0.9043
1455,0.3066,-4.4452,7.1659,5.5652,1.7391,-0.6957
1460,0.2299,-4.5218,7.0893,5.4957,1.6,-0.487
1465,0.3066,-4.4068,7.1659,5.287,1.2522,-0.1391
1470,0.2299,-4.2152,7.0126,4.9391,0.8348,0.3478
1475,0.2682,-4.2919,6.9743,4.6609,0.487,0.6957
1480,0.3066,-4.3685,7.0893,4.313,0.1391,0.9043
1485,0.3449,-4.4452,7.1276,4.0348,-0.1391,1.1826
1490,0.3449,-4.4068,7.0893,3.687,-0.2087,1.3217
1495,0.3832,-4.3302,6.9743,3.3391,-0.3478,1.4609
1500,0.3449,-4.3302,7.1276,3.0609,-0.3478,1.4609
1505,0.3066,-4.4068,7.0893,2.7826,-0.2783,1.3913
1510,0.4215,-4.5218,7.0126,2.5043,-0.2087,1.3217
1515,0.3066,-4.5601,7.0126,2.5043,-0.0696,1.113
1520,0.3832,-4.4835,7.0509,2.3652,0.0696,0.8348
1525,0.4215,-4.5218,7.0126,2.0174,0.2087,0.6261
1530,0.3449,-4.4452,6.9743,1.8087,0.4174,0.2087
1535,0.4215,-4.4068,6.936,1.6,0.6957,-0.1391
1540,0.3066,-4.3302,7.0126,1.4609,0.9739,-0.487
1545,0.3449,-4.4452,7.1276,1.1826,1.3913,-0.7652
1550,0.3449,-4.3685,7.2425,1.0435,1.6,-1.1826
1555,0.2682,-4.5218,7.2042,1.1826,1.7391,-1.5304
1560,0.5748,-4.5601,7.0509,1.1826,2.0174,-1.6696
1565,0.3449,-4.4068,7.2425,1.5304,2.0174,-2.087
1570,0.3449,-4.4452,7.2809,1.8087,2.087,-1.9478
1575,0.3066,-4.3302,7.2809,2.1565,2.0174,-1.8783
1580,0.3449,-4.4068,7.1659,2.3652,1.7391,-1.6696
1585,0.3066,-4.3302,7.2809,2.5043,1.3913,-1.3217
1590,0.3066,-4.4068,7.2809,2.3652,1.0435,-0.9739
1595,0.3449,-4.2536,7.1276,2.2957,0.7652,-0.6261
1600,0.3449,-4.2536,7.2425,2.0174,0.4174,-0.3478
1605,0.3832,-4.4068,7.0126,1.7391,0.0696,-0.2087
1610,0.3449,-4.3302,7.1276,1.5304,-0.2087,0.1391
1615,0.3066,-4.4068,6.9743,1.4609,-0.5565,0.4174
1620,0.3066,-4.4068,6.936,1.2522,-0.6957,0.4174
1625,0.3066,-4.4452,7.0126,1.113,-0.6957,0.3478
1630,0.3832,-4.4068,6.9743,0.6957,-0.6261,0.3478
1635,0.3832,-4.4068,7.0509,0.487,-0.487,0.2783
1640,0.3066,-4.4068,7.0126,0.3478,-0.487,0.2087
1645,0.3449,-4.4068,7.0509,0.2087,-0.4174,0.2087
1650,0.3066,-4.4452,7.1659,0.0,-0.3478,0.1391
1655,0.4598,-4.4835,7.1276,0.1391,-0.3478,0.0696
1660,0.3449,-4.3302,7.2042,0.2087,-0.2783,0.0
1665,0.3449,-4.3685,7.1276,0.6261,-0.2783,-0.1391
1670,0.3449,-4.2152,7.2809,1.0435,-0.2783,-0.1391
1675,0.3832,-4.4068,7.1659,1.6696,-0.2087,-0.3478
1680,0.4598,-4.3302,7.2042,2.2957,-0.2087,-0.487
1685,0.4215,-4.2536,7.1276,2.9913,-0.3478,-0.487
1690,0.3832,-4.2919,6.9743,3.5478,-0.5565,-0.2783
1695,0.4215,-4.2536,6.8593,3.9652,-0.9043,-0.2087
1700,0.3449,-4.2536,7.0509,3.9652,-1.1826,0.0696
1705,0.3066,-4.2536,6.8593,4.1739,-1.5304,0.2087
1710,0.3449,-4.2536,6.9743,4.0348,-1.7391,0.4174
1715,0.4215,-4.3302,7.1276,3.8261,-1.8087,0.5565
1720,0.3832,-4.4068,6.7827,3.4783,-1.6,0.6261
1725,0.3449,-4.1769,6.9743,2.9217,-1.6,0.6261
1730,0.3066,-4.1769,7.2042,2.5739,-1.3913,0.6261
1735,0.4215,-4.2919,7.2425,2.2957,-1.0435,0.5565
1740,0.1533,-4.2919,7.3192,2.2261,-0.9043,0.5565
1745,0.3832,-4.3685,7.3192,2.3652,-0.6957,0.487
1750,0.3066,-4.2919,7.2809,2.5739,-0.5565,0.5565
1755,0.2682,-4.2536,7.2809,2.9913,-0.4174,0.487
1760,0.4598,-4.3302,7.3575,3.4783,-0.487,0.6261
1765,0.4215,-4.2152,7.2042,4.0348,-0.6957,0.6957
1770,0.3832,-4.2919,7.2042,4.7304,-0.8348,0.6261
1775,0.8814,-3.7554,6.8593,5.2174,-0.9739,0.7652
1780,0.5365,-4.2919,7.3958,5.7739,-1.113,0.6261
1785,0.4982,-4.2536,7.2809,5.913,-1.3217,0.6957
1790,0.4982,-4.2152,7.2809,5.9826,-1.3913,0.5565
1795,0.4982,-4.2152,7.2425,5.9826,-1.3217,0.487
1800,0.5365,-4.1386,7.1659,5.7043,-1.3217,0.2783
1805,0.4215,-4.1769,7.2425,5.287,-1.0435,0.0
1810,0.4982,-4.0236,7.3192,5.0087,-0.9043,-0.2087
1815,0.5365,-4.0236,7.3192,4.6609,-0.6957,-0.487
1820,0.6131,-4.1769,7.2425,4.4522,-0.487,-0.5565
1825,0.4982,-3.947,7.2042,4.1043,-0.4174,-0.6261
1830,0.4982,-4.062,7.1659,3.7565,-0.1391,-0.9043
1835,0.3832,-3.9087,7.2809,3.4783,0.0696,-0.9739
1840,0.3832,-3.8704,7.4341,3.0609,0.1391,-0.9739
1845,0.5365,-3.947,7.2425,2.5739,0.2783,-1.0435
1850,0.4215,-3.832,7.2809,2.4348,0.2783,-1.0435
1855,0.3832,-3.947,7.4341,2.2957,0.3478,-0.9739
1860,0.4598,-3.9087,7.3575,2.3652,0.2783,-0.9739
1865,0.5365,-4.0236,7.4341,2.5043,0.4174,-0.8348
1870,0.4598,-4.0236,7.3575,2.7826,0.5565,-0.7652
1875,0.3449,-4.0236,7.3575,3.1304,0.6957,-0.6957
1880,0.4982,-3.947,7.2425,3.5478,0.9043,-0.7652
1885,0.3449,-3.9087,7.1659,3.8957,1.0435,-0.7652
1890,0.5365,-4.1003,7.2042,3.9652,1.113,-0.6957
1895,0.3832,-3.947,7.1659,3.7565,1.113,-0.6261
1900,0.4598,-3.947,7.1659,3.4087,1.113,-0.6261
1905,0.3449,-3.947,7.2042,2.9913,0.9739,-0.4174
1910,0.3449,-3.8704,7.0893,2.5739,0.6261,-0.2087
1915,0.4598,-3.947,7.1659,1.9478,0.3478,0.1391
1920,0.4215,-3.9087,7.2425,0.9739,-0.0696,0.2783
1925,0.4215,-3.8704,7.1659,0.3478,-0.4174,0.2783
1930,0.2682,-3.6021,7.3575,0.2087,-0.5565,0.3478
1935,0.4598,-4.062,7.2809,0.5565,-0.5565,0.8348
1940,0.6131,-4.1003,7.2042,0.0,-0.4174,0.6261
1945,0.3832,-3.9853,7.2042,-0.4174,-0.1391,0.1391
1950,0.5365,-3.9853,7.3575,-0.487,0.0696,-0.1391
1955,0.3832,-3.832,7.3575,-0.1391,0.2783,-0.2783
1960,0.4598,-4.2536,7.2042,0.8348,0.4174,0.0
1965,0.4598,-4.1003,7.3958,0.8348,0.6261,-0.0696
1970,0.2682,-3.947,7.2042,0.487,0.8348,-0.5565
1975,0.4598,-4.062,7.2425,0.2783,0.9739,-0.6957
1980,0.4215,-4.0236,7.3958,0.487,0.9043,-0.6261
1985,0.3066,-3.9853,7.3575,0.8348,0.9043,-0.6261
1990,0.4598,-4.1003,6.9743,1.8087,0.8348,0.0
1995,0.5365,-4.1769,7.1276,1.8087,0.7652,-0.3478
2000,0.5365,-4.2919,7.1276,0.8348,0.8348,-0.2783
2005,0.4982,-4.1386,7.3958,0.487,0.9043,-0.487
2010,0.4215,-4.2152,7.4341,0.6957,1.0435,-0.6957
2015,0.2299,-4.1003,7.3575,1.113,1.1826,-0.7652
2020,0.5365,-4.3302,7.2042,2.5043,1.113,-0.0696
2025,0.4215,-4.2919,7.1659,2.713,1.113,-0.2087
2030,0.3832,-4.3302,7.3192,2.1565,1.1826,-0.2087
2035,0.4598,-4.2536,7.3192,2.0174,1.113,0.0
2040,0.4982,-4.1769,7.3575,2.4348,0.9043,0.1391
2045,0.5365,-4.2152,7.3192,2.8522,0.6957,0.3478
2050,0.2299,-3.947,7.2809,3.3391,0.5565,0.487
2055,0.5748,-4.1386,7.0509,4.313,0.4174,1.2522
2060,0.4215,-4.1386,7.2425,3.4783,0.2783,0.9739
2065,0.4982,-4.1386,7.2425,1.9478,0.5565,0.7652
2070,0.4598,-3.9853,7.2042,1.0435,0.7652,0.5565
2075,0.5748,-4.062,7.2809,0.7652,0.9739,0.3478
2080,0.4598,-4.0236,7.1659,1.0435,1.1826,-0.0696
2085,0.4598,-3.8704,7.0893,1.6696,1.2522,0.1391
2090,0.4215,-4.0236,7.1659,2.1565,1.1826,0.2087
2095,0.4982,-4.1003,7.2809,1.113,1.3217,-0.0696
2100,0.4215,-3.9853,7.2042,0.2087,1.3217,-0.2783
2105,0.3066,-3.832,6.936,-0.1391,1.1826,-0.3478
2110,0.4215,-4.0236,7.3958,-0.1391,1.1826,-0.5565
2115,0.4982,-3.947,7.3575,0.2783,1.1826,-0.6261
2120,0.3449,-3.9853,7.3192,1.113,1.113,-0.5565
2125,0.5365,-4.2152,7.1276,1.7391,0.9739,-0.0696
2130,0.3832,-4.0236,7.3192,1.1826,0.9043,-0.2087
2135,0.4215,-4.062,7.3575,1.2522,0.8348,-0.3478
2140,0.4215,-4.1003,7.3192,1.9478,0.8348,-0.487
2145,0.3832,-3.9087,7.3192,2.9913,0.7652,-0.2087
2150,0.4215,-4.2919,7.0126,4.313,0.6957,0.487
2155,0.3832,-3.8704,7.1659,3.687,0.6261,0.3478
2160,0.5748,-3.947,7.1276,3.2,0.5565,0.6261
2165,0.4598,-3.7554,7.2809,2.9913,0.2783,0.7652
2170,0.2299,-3.2572,7.6257,3.2696,0.1391,0.6957
2175,0.4598,-3.7171,7.0126,4.3826,-0.1391,1.9478
2180,0.3449,-3.6021,6.7827,2.9913,-0.5565,2.0174
2185,0.4215,-3.3722,7.1276,1.0435,-1.0435,2.1565
2190,0.6514,-3.2189,7.3575,-0.2087,-1.3913,2.713
2195,0.5748,-3.1423,7.2042,-1.6,-1.7391,2.7826
2200,0.6898,-3.1423,7.0126,-3.3391,-1.8783,2.6435
2205,0.5365,-2.8357,6.9743,-5.7043,-1.9478,2.3652
2210,0.7664,-2.9123,6.821,-8.3478,-2.1565,2.087
2215,0.6898,-2.6441,6.5911,-11.4783,-2.2261,1.4609
2220,0.5365,-3.1039,6.3612,-15.4435,-2.2261,1.0435
2225,0.3066,-3.2189,6.0929,-20.8,-2.3652,0.8348
2230,0.3066,-3.2572,6.2845,-27.687,-2.6435,0.7652
2235,0.3832,-3.5255,6.1313,-35.687,-3.0609,0.9043
2240,0.3449,-3.832,6.2462,-44.1739,-3.2696,0.7652
2245,0.4982,-4.2536,6.2845,-51.8957,-3.3391,0.6261
2250,0.1916,-4.5601,6.7444,-57.9478,-2.9217,-0.3478
2255,0.2682,-4.7517,7.3575,-61.3565,-2.5739,-1.2522
2260,0.2299,-5.1349,7.4341,-61.2174,-2.2261,-2.2957
2265,0.0766,-5.02,8.1622,-58.5043,-1.8783,-3.7565
2270,0.0383,-5.4798,8.1239,-51.687,-1.8783,-4.3826
2275,0.0766,-5.2499,8.0473,-42.5739,-1.6696,-4.8
2280,0.1916,-5.0583,8.3155,-32.9043,-1.3913,-5.4261
2285,0.1533,-4.8667,7.9323,-22.4696,-1.0435,-5.9826
2290,0.115,-4.6751,7.6641,-13.1478,-0.9739,-6.1217
2295,0.115,-4.2919,7.2042,-6.3304,-1.1826,-6.1913
2300,0.2299,-4.1769,6.9743,-1.2522,-1.6696,-5.8435
2305,0.3449,-3.9087,6.936,1.3217,-1.8783,-5.7043
2310,0.4215,-3.832,6.5911,1.9478,-1.3913,-5.6348
2315,0.6131,-3.5638,6.7444,1.3913,-0.7652,-5.5652
2320,0.6131,-3.2572,6.4761,0.3478,0.1391,-5.4261
2325,0.6898,-3.4871,6.936,-1.0435,1.3217,-5.6348
2330,0.6131,-3.3722,7.2425,-2.4348,2.4348,-6.1217
2335,0.6131,-3.2572,7.2809,-3.4087,3.4783,-6.4696
2340,0.7664,-3.1423,7.3958,-3.6174,4.313,-6.5391
2345,0.6514,-2.9123,7.7024,-3.9652,4.8696,-6.5391
2350,0.8047,-2.7207,7.7407,-3.2696,5.0087,-5.8435
2355,1.3795,-3.2189,7.3575,-2.1565,4.8696,-5.0087
2360,0.6898,-2.4525,7.7407,-1.6,4.313,-4.8696
2365,0.7281,-2.6441,7.6257,-0.8348,3.5478,-4.8
2370,0.6514,-2.6058,7.4725,-0.1391,2.9217,-4.5913
2375,0.9197,-3.0656,7.2042,0.2783,2.2261,-4.1043
2380,0.2682,-2.1076,7.7407,-1.1826,1.6,-4.8696
2385,0.4215,-2.8357,7.2425,-0.3478,1.5304,-4.2435
2390,0.8047,-2.9123,7.4341,-0.9043,1.7391,-3.6174
2395,0.843,-1.916,8.0856,-2.713,2.7826,-5.0087
2400,0.4215,-2.6824,7.1276,-1.3913,3.687,-5.9826
2405,0.8814,-2.5675,7.3575,-4.8,4.7304,-5.913
2410,0.843,-1.916,7.779,-5.6348,5.5652,-6.1913
2415,0.7664,-2.2992,6.936,-3.8261,6.5391,-6.887
2420,0.8047,-2.031,7.1659,-7.7913,7.1652,-7.4435
2425,0.5748,-0.7281,8.1622,-11.2,7.8609,-7.9304
2430,0.843,-2.1076,6.8593,-8.9739,8.5565,-6.1217
2435,1.1879,-1.9927,6.8977,-14.5391,8.6957,-5.0087
2440,0.9197,-1.6478,7.2042,-23.0957,9.6,-6.887
2445,0.4982,-0.9963,7.5491,-29.3565,10.713,-8.2783
2450,0.1916,-1.1879,7.894,-29.7739,11.7565,-6.9565
2455,1.3029,-2.6824,6.6677,-31.4435,11.687,-3.4087
2460,1.1113,-2.4525,7.1659,-42.3652,10.8522,-4.1043
2465,0.5365,-1.9927,7.3575,-50.8522,10.5739,-6.0522
2470,0.2682,-1.7244,7.6641,-55.8609,10.087,-4.8696
2475,0.6131,-1.9543,7.3958,-59.4087,9.0435,-1.6696
2480,-1.073,-0.3832,8.3155,-61.2174,8.1391,0.0696
2485,1.7627,-3.0273,6.7827,-60.1739,7.513,4.4522
2490,1.073,-2.9507,6.6294,-67.4783,7.0957,1.6696
2495,0.3066,-2.4525,7.1276,-75.2,8.2087,-2.9217
2500,0.2299,-2.2609,7.0509,-78.9565,9.4609,-3.5478
2505,0.3066,-0.9197,7.894,-82.087,10.5043,-2.0174
2510,0.7664,-3.4488,6.0546,-82.2261,12.1739,1.0435
2515,1.4179,-3.9853,5.7864,-91.2696,12.9391,1.5304
2520,0.3449,-3.2189,6.4761,-103.4435,14.6783,-3.687
2525,0.3066,-3.4488,6.6677,-111.8609,17.0435,-5.4957
2530,-0.0383,-3.4105,6.8593,-118.0522,18.4348,-5.0087
2535,0.2299,-3.5638,7.0893,-123.4783,19.4087,-2.5739
2540,0.1533,-3.0656,8.2389,-127.513,20.9391,-2.2261
2545,-1.0346,-3.4871,7.4341,-126.9565,23.3739,-1.4609
2550,0.843,-5.6714,6.1696,-128.2087,24.9739,0.0
2555,0.3832,-4.8284,6.7061,-133.9826,28.1739,-6.6783
2560,0.4215,-4.5218,6.9743,-138.2957,32.0696,-11.8957
2565,0.6898,-4.4835,7.0126,-140.313,35.4087,-14.1217
2570,0.5748,-4.2536,7.2809,-142.1217,37.4957,-15.7217
2575,0.6131,-4.6751,7.7407,-141.1478,39.0957,-14.9565
2580,-0.3832,-2.4142,10.2315,-139.9652,39.513,-11.8957
2585,2.3375,-6.0929,7.5108,-134.4,39.2348,-8.9043
2590,2.0693,-5.0966,8.2389,-139.3391,37.4957,-13.7739
2595,0.6131,-2.4525,10.3465,-142.5391,35.5478,-18.7826
2600,-0.3449,-3.5638,7.9706,-135.3739,34.0174,-16.0
2605,1.4179,-5.2882,5.9013,-139.2,27.2,-6.7478
2610,1.6095,-5.3265,5.4032,-151.0261,21.5652,-7.5826
2615,0.9963,-5.3648,5.1732,-163.2,18.713,-10.713
2620,0.6131,-6.0929,4.4452,-171.5478,17.4609,-11.2
2625,-0.2299,-5.978,4.3302,-177.8087,15.8609,-12.313
2630,0.958,-7.2809,3.0273,-184.1391,15.5826,-13.5652
2635,0.5365,-7.4725,1.5711,-192.6261,15.0957,-15.0957
2640,1.4945,-8.2005,-0.1533,-207.1652,14.6783,-15.3739
2645,0.3449,-8.852,-1.7244,-230.9565,14.6087,-18.0174
2650,-0.8814,-9.2735,-1.8777,-259.7565,15.3043,-13.287
2655,-0.7281,-9.4651,-0.958,-288.5565,14.3304,0.5565
2660,-0.5748,-10.5381,0.1916,-310.0522,13.2174,13.1478
2665,-0.7664,-11.0746,2.1459,-319.6522,13.9826,22.0522
2670,-1.0346,-11.6111,2.989,-317.7043,12.3826,28.7304
2675,-1.5328,-12.3391,4.0236,-308.9391,10.1565,34.087
2680,-1.916,-13.0672,4.1769,-296.6261,6.9565,42.2957
2685,-2.1459,-13.2588,4.1003,-282.5043,1.2522,50.9217
2690,-2.2992,-13.4504,3.8704,-269.7739,-5.1478,58.5739
2695,-1.916,-13.872,4.062,-258.5739,-11.3391,65.5304
2700,-1.5711,-14.4468,4.6751,-246.4,-16.7652,70.1217
2705,0.0383,-14.4851,4.1003,-232.6957,-21.7739,68.7304
2710,0.0,-14.3318,4.5601,-219.3391,-23.513,59.6174
2715,0.1533,-14.5234,4.7134,-204.1739,-22.3304,48.9043
2720,0.9197,-14.9832,4.7134,-186.5739,-19.8957,37.3565
2725,1.2263,-15.0216,4.6368,-167.2348,-16.7652,25.3913
2730,1.4562,-14.6767,3.7937,-147.6174,-12.6609,14.1217
2735,1.1879,-14.3318,3.2572,-129.113,-7.3739,4.8
2740,0.8814,-13.757,2.6441,-113.113,-0.7652,-2.087
2745,0.4598,-13.5654,2.031,-100.313,5.913,-7.3739
2750,0.0383,-13.5654,1.6478,-91.1304,11.6174,-12.1739
2755,-0.115,-13.4888,1.1879,-85.1478,15.6522,-16.7652
2760,-0.4215,-13.3355,0.9963,-81.8087,16.8348,-21.1478
2765,-0.8814,-12.9906,0.8047,-81.1826,15.0261,-25.3913
2770,-0.5365,-13.1439,0.7664,-82.8522,10.7826,-28.9391
2775,-0.8047,-12.9523,0.5748,-86.1217,3.2696,-32.9739
2780,-0.6131,-12.5691,0.6514,-91.0609,-3.8957,-36.8
2785,-0.8047,-12.3008,0.1533,-97.2522,-12.1739,-40.2087
2790,-0.0383,-12.0709,-0.1533,-104.1391,-18.087,-43.7565
2795,-0.6514,-11.9943,-0.4598,-110.887,-24.2087,-46.4
2800,-0.0383,-11.9559,-0.843,-116.0348,-28.8,-49.8087
2805,-0.6898,-11.726,-0.6131,-121.8087,-32.487,-52.8696
2810,0.0766,-11.7643,-1.1113,-126.1913,-35.6174,-54.4696
2815,0.0383,-12.3775,-0.7281,-128.4174,-37.913,-54.3304
2820,-0.3066,-11.6111,-0.8047,-129.3217,-39.8609,-54.7478
2825,-0.8047,-11.7643,-0.3832,-127.8609,-39.0957,-53.287
2830,-1.4562,-11.9176,0.0,-124.8,-38.9565,-50.2261
2835,-1.4179,-11.4961,-0.1916,-117.9826,-36.0348,-43.4783
2840,-0.4215,-11.841,-0.6898,-111.3043,-34.2957,-35.2
2845,-1.5711,-12.0709,-0.3832,-104.487,-32.9043,-30.0522
2850,-1.5711,-12.4924,-0.9963,-98.0174,-29.913,-22.6783
2855,-1.6095,-12.4541,-0.6514,-91.687,-26.6435,-13.0783
2860,-1.8011,-12.684,-0.6514,-84.5217,-24.6261,-3.8957
2865,-1.4562,-12.9523,-0.3449,-76.4522,-23.3043,6.3304
2870,-1.8394,-13.4121,-0.6514,-66.9217,-21.9826,14.7478
2875,-1.5711,-13.4888,-0.9197,-57.1826,-20.3826,21.0783
2880,-1.9927,-13.5654,-1.2646,-46.5391,-19.4783,25.9478
2885,-2.6058,-14.1019,-1.8011,-36.5913,-19.1304,29.9826
2890,-2.3759,-13.6804,-0.5748,-28.8696,-18.5739,35.8957
2895,-2.6441,-13.8336,-1.073,-18.713,-17.2522,44.4522
2900,-3.1806,-13.5654,-0.4215,-5.7739,-15.7913,53.6348
2905,-1.6478,-14.4084,-1.073,6.9565,-12.8,63.2348
2910,0.0383,-13.6804,-0.0766,21.7043,-8.7652,69.0783
2915,-0.8814,-13.4121,-0.7664,37.3565,-5.4957,69.287
2920,-0.6131,-13.4504,-1.2646,47.9304,-2.4348,70.1217
2925,0.958,-14.0636,-1.5328,54.1217,-3.3391,70.5391
2930,0.5365,-13.9486,-2.4142,55.6522,-6.7478,67.8957
2935,1.8777,-14.2935,-2.3375,50.8522,-11.5478,65.0435
2940,2.3375,-14.4084,-2.1843,43.7565,-16.9043,59.0609
2945,2.2992,-14.1402,-2.4525,35.8261,-22.5391,50.5043
2950,2.2992,-14.2552,-2.2226,24.0,-29.6348,43.3391
2955,2.2226,-14.3701,-1.3029,13.0087,-34.713,38.6087
2960,1.9543,-14.3318,-0.6514,8.0,-36.3826,36.1043
2965,1.7244,-14.5617,-0.1533,9.113,-35.687,35.4087
2970,1.6478,-14.4468,0.5748,14.8174,-34.3652,35.4087
2975,1.3029,-14.2935,0.7281,24.2087,-33.1826,36.0348
2980,1.3412,-14.2935,0.9197,35.0609,-31.7913,36.7304
2985,0.9963,-13.7187,1.073,45.5652,-30.0522,37.2174
2990,0.843,-13.6037,0.9963,54.7478,-28.8,37.3565
2995,0.8047,-13.2588,0.958,61.7043,-27.687,37.2174
