timestamp,accX,accY,accZ,gyroX,gyroY,gyroZ
0,0.8047,-10.0399,0.9963,-3.0609,8.7652,-1.6
5,0.8047,-10.1932,1.1879,-3.3391,8.9043,-1.8087
10,0.7664,-10.1166,1.2263,-3.7565,8.9043,-1.7391
15,0.7281,-10.0782,1.1113,-4.0348,9.0435,-1.7391
20,0.8047,-10.1549,1.073,-4.2435,8.9043,-1.6696
25,0.8814,-10.2315,1.1879,-4.2435,8.9043,-1.9478
30,0.6898,-10.2315,0.9963,-4.3826,8.9739,-1.6696
35,0.7281,-10.1549,0.9963,-4.6609,9.2522,-1.9478
40,0.7281,-10.1166,0.8814,-4.9391,9.3913,-1.8783
45,0.6898,-10.2698,0.9963,-5.2174,8.9043,-2.087
50,0.7281,-10.1549,1.1113,-5.287,8.3478,-1.8087
55,0.6131,-10.1549,1.073,-4.8696,7.5826,-1.9478
60,0.7281,-10.2315,1.073,-4.1043,7.0957,-1.7391
65,0.7664,-10.1166,1.1113,-2.9913,7.0261,-2.087
70,0.7281,-10.1166,1.1879,-2.3652,7.3043,-1.9478
75,0.7281,-9.9633,1.073,-2.1565,7.4435,-2.2261
80,0.8047,-10.1166,1.1113,-2.3652,7.7217,-2.1565
85,0.7281,-10.0782,1.0346,-2.8522,8.0,-2.1565
90,0.7664,-10.1166,1.2263,-3.3391,8.0696,-2.0174
95,0.7281,-10.1932,1.1879,-3.8957,8.1391,-2.1565
100,0.7664,-10.1932,1.073,-4.3826,8.2087,-1.8783
105,0.7664,-10.1166,1.1879,-4.5913,8.0,-2.0174
110,0.8047,-10.2315,0.958,-4.5217,7.9304,-1.9478
115,0.843,-10.3082,1.0346,-4.313,7.6522,-2.087
120,0.7664,-10.2315,0.9963,-3.8261,7.6522,-1.8783
125,0.8814,-10.1932,0.9963,-3.4087,7.513,-2.1565
130,0.7664,-10.1932,1.1113,-3.1304,7.4435,-2.0174
135,0.8047,-10.1166,0.843,-2.7826,7.3739,-2.2261
140,0.8814,-10.2315,1.1496,-2.713,7.2348,-2.087
145,0.8814,-10.2698,0.9963,-2.6435,7.1652,-2.2261
150,0.7281,-10.1549,1.073,-2.713,7.2348,-2.1565
155,0.7664,-10.1932,0.958,-2.6435,7.1652,-2.087
160,0.843,-10.1166,1.073,-2.713,7.1652,-1.8783
165,0.958,-10.1549,1.073,-2.7826,6.9565,-2.0174
170,0.843,-10.1932,0.9963,-2.9913,6.9565,-1.7391
175,0.6898,-10.1549,1.0346,-3.1304,6.887,-1.7391
180,0.843,-10.1166,1.073,-3.2696,6.7478,-1.6
185,0.8047,-10.0399,1.0346,-3.4783,6.887,-1.6696
190,0.8047,-10.0782,1.2263,-3.4087,6.887,-1.3913
195,0.8814,-10.1549,0.958,-3.4783,6.6783,-1.6
200,0.843,-10.2698,0.8814,-3.4087,6.4696,-1.3217
205,0.7281,-10.1549,1.0346,-3.4087,6.1217,-1.5304
210,0.8814,-10.1932,1.073,-3.2696,5.7739,-1.3217
215,0.8814,-10.3082,0.958,-3.1304,5.6348,-1.3913
220,0.8047,-10.3082,1.073,-2.713,5.3565,-1.2522
225,0.8047,-10.3082,0.9963,-2.4348,5.2174,-1.3217
230,0.8047,-10.1932,1.073,-2.2957,5.1478,-1.113
235,0.7664,-10.1932,1.073,-2.1565,5.3565,-1.3913
240,0.7664,-10.1549,1.073,-2.087,5.5652,-1.2522
245,0.8814,-10.0782,1.1113,-1.8783,5.6348,-1.3913
250,0.8047,-10.1166,0.9963,-1.8087,5.6348,-1.1826
255,0.843,-10.2315,1.073,-1.7391,5.7043,-1.3217
260,0.843,-10.1166,0.9197,-1.7391,5.7043,-1.1826
265,0.8814,-10.1549,1.073,-1.8783,5.4261,-1.2522
270,0.8047,-10.1549,0.9963,-2.0174,5.1478,-1.0435
275,0.843,-10.1166,0.9963,-1.9478,5.0783,-1.113
280,0.8047,-10.1549,1.0346,-1.8087,4.9391,-0.8348
285,0.8047,-10.3082,1.1496,-1.5304,4.6609,-0.9043
290,0.843,-10.1549,0.843,-1.5304,4.6609,-0.7652
295,0.843,-10.1932,0.958,-1.6,4.6609,-0.8348
300,0.843,-10.2315,0.9963,-1.5304,4.6609,-0.6957
305,0.7664,-10.2315,1.1879,-1.4609,4.5913,-0.9043
310,0.8814,-10.3082,1.0346,-1.3913,4.3826,-0.6957
315,0.8814,-10.1932,0.9963,-1.3217,4.313,-0.7652
320,0.7664,-10.1166,1.1496,-1.113,4.2435,-0.6261
325,0.8047,-10.1166,0.958,-1.3217,4.313,-0.7652
330,0.8814,-10.1549,1.1496,-1.3217,4.2435,-0.487
335,0.7664,-10.1932,0.958,-1.113,4.313,-0.487
340,0.6898,-10.1549,0.958,-1.113,4.1739,-0.3478
345,0.843,-10.1932,1.073,-1.0435,4.1043,-0.3478
350,0.8047,-10.1549,0.9963,-1.113,3.5478,-0.1391
355,0.843,-10.1549,1.0346,-1.3217,3.4087,-0.0696
360,0.843,-10.1549,0.8814,-1.5304,3.0609,0.1391
365,0.843,-10.2698,1.1113,-1.6696,2.9913,0.1391
370,0.7281,-10.1932,1.073,-1.6696,2.7826,0.3478
375,0.9197,-10.3465,1.0346,-1.7391,2.6435,0.4174
380,0.8047,-10.1932,0.9197,-1.6,2.713,0.5565
385,0.7281,-10.1932,1.0346,-1.3913,2.5739,0.5565
390,0.843,-10.1932,0.8814,-1.2522,2.4348,0.6957
395,0.8047,-10.0782,0.9963,-1.1826,2.2957,0.6957
400,0.8814,-10.1549,1.073,-1.3217,2.3652,0.8348
405,0.8047,-10.2315,1.073,-1.6,2.5043,0.6957
410,0.843,-10.2315,0.9197,-1.8087,2.5043,0.9043
415,0.8814,-10.3082,1.0346,-1.8783,2.5739,0.7652
420,0.8814,-10.3465,0.9963,-1.8087,2.3652,1.0435
425,0.8814,-10.1932,0.9197,-1.8783,2.087,0.9739
430,0.8047,-10.1549,0.9963,-1.8087,1.8783,1.1826
435,0.9197,-10.2698,0.958,-1.9478,1.6,1.2522
440,0.9197,-10.2698,1.1879,-2.0174,1.5304,1.8087
445,0.7281,-10.1932,0.958,-1.9478,1.3217,1.9478
450,0.8047,-10.1932,1.0346,-2.087,1.3217,2.2957
455,0.843,-10.1549,1.0346,-1.7391,1.2522,2.3652
460,0.8047,-10.2315,0.9963,-1.5304,1.3217,2.5043
465,0.7664,-10.1549,1.0346,-1.2522,1.3913,2.3652
470,0.7664,-10.2315,0.843,-0.9739,1.4609,2.6435
475,0.8814,-10.1166,0.9963,-0.9739,1.113,2.5043
480,0.958,-10.2315,0.8814,-0.8348,0.9739,2.5739
485,0.7664,-10.0399,1.1879,-0.5565,1.113,2.2957
490,0.7281,-10.2315,1.0346,-0.1391,1.3913,2.1565
495,0.8047,-10.2698,1.073,0.3478,1.8783,1.7391
500,0.7664,-10.2315,1.0346,0.8348,2.2957,1.6
505,0.7281,-10.0782,1.073,1.2522,2.9217,0.9739
510,0.7664,-10.0399,1.1879,1.4609,3.3391,0.9043
515,0.7281,-10.0399,1.0346,1.4609,3.8261,0.5565
520,0.8047,-10.1166,1.073,1.3217,4.313,0.3478
525,0.8047,-10.0782,0.9197,0.9739,4.6609,0.0
530,0.7664,-10.1166,1.073,0.6957,4.9391,-0.0696
535,0.6898,-10.1549,1.073,0.2783,5.0087,-0.2087
540,0.8047,-10.1549,1.073,0.1391,4.8696,-0.1391
545,0.7281,-10.2315,1.1879,0.0696,4.6609,-0.1391
550,0.8047,-10.1166,1.2646,-0.0696,4.5217,0.0
555,0.6898,-10.1932,1.1113,-0.2087,4.1739,0.0
560,0.7664,-10.1932,1.1496,-0.0696,3.9652,0.1391
565,0.843,-10.1166,1.1496,0.0,3.8261,0.1391
570,0.7664,-10.1932,1.1496,0.0696,3.687,0.3478
575,0.7281,-10.1549,0.958,0.1391,3.5478,0.3478
580,0.7664,-10.1549,1.1113,0.0,3.4783,0.3478
585,0.843,-10.2315,0.9963,-0.2087,3.4087,0.2087
590,0.6898,-10.0782,0.9963,-0.4174,3.2696,0.1391
595,0.7281,-10.1166,0.9963,-0.4174,3.3391,0.0
600,0.7664,-10.1549,1.0346,-0.3478,3.4087,0.1391
605,0.6514,-10.1166,1.073,-0.2783,3.5478,-0.0696
610,0.8047,-10.1932,1.0346,-0.1391,3.5478,0.0
615,0.7664,-10.1166,0.9197,-0.0696,3.5478,-0.0696
620,0.8047,-10.2315,1.0346,-0.2087,3.6174,0.0
625,0.8047,-10.2315,1.073,-0.1391,3.8261,-0.2087
630,0.7281,-10.2315,1.0346,-0.0696,4.0348,-0.1391
635,0.6898,-10.2315,0.9963,0.0,3.8957,-0.2783
640,0.6898,-10.1549,0.9963,0.0,3.687,-0.1391
645,0.8047,-10.2315,1.0346,0.1391,3.4783,-0.3478
650,0.843,-10.3465,1.1496,0.2087,3.2696,-0.2087
655,0.843,-10.1932,1.1879,0.4174,3.0609,-0.2087
660,0.8814,-10.2315,1.073,0.6261,2.7826,-0.0696
665,0.7281,-10.1932,1.0346,0.7652,2.6435,-0.0696
670,0.7281,-10.2315,1.073,0.7652,2.4348,0.0
675,0.843,-10.1932,0.843,0.8348,2.3652,-0.0696
680,0.7281,-10.1549,0.958,0.9739,2.2261,0.0
685,0.8814,-10.1549,1.0346,1.0435,2.2261,0.0
690,0.9197,-10.1549,1.073,0.9043,2.2957,0.0696
695,0.6898,-10.0399,1.073,0.487,2.713,0.1391
700,0.843,-10.1932,1.073,-0.0696,3.1304,0.1391
705,0.8814,-10.1549,0.9197,-0.7652,3.5478,0.0696
710,0.843,-10.0782,0.843,-1.3217,4.0348,0.0696
715,0.8047,-10.0782,1.0346,-1.8087,4.4522,0.0
720,0.7664,-10.1549,0.8814,-2.0174,4.9391,0.0696
725,0.9197,-10.1932,0.8814,-2.087,5.4261,-0.0696
730,0.843,-10.1166,0.9963,-2.2261,5.8435,-0.1391
735,0.843,-10.1549,0.9197,-2.2261,6.1913,-0.2783
740,0.9197,-10.1932,1.0346,-2.087,6.4,-0.5565
745,0.8047,-10.1166,1.0346,-1.9478,6.0522,-0.6261
750,0.7664,-10.1166,1.0346,-1.7391,5.8435,-0.5565
755,0.6514,-10.2698,1.1879,-1.3913,5.6348,-0.5565
760,0.7664,-10.2315,1.2263,-1.3217,5.5652,-0.487
765,0.6898,-10.2315,1.2263,-1.0435,5.4261,-0.487
770,0.6514,-10.0399,1.1879,-0.9043,5.287,-0.4174
775,0.7664,-10.1166,1.1496,-0.8348,5.2174,-0.6261
780,0.7281,-10.1932,1.2646,-0.8348,5.2174,-0.4174
785,0.8047,-10.1932,1.3029,-0.8348,5.0783,-0.487
790,0.6514,-10.2315,1.073,-0.8348,4.8696,-0.487
795,0.843,-10.2315,1.1879,-0.8348,4.8,-0.487
800,0.7281,-10.1932,1.2263,-0.8348,4.7304,-0.4174
805,0.8047,-10.1166,1.1113,-0.7652,4.7304,-0.487
810,0.7281,-10.0782,1.2263,-0.8348,4.8,-0.487
815,0.6898,-10.2698,1.1496,-0.6957,4.8696,-0.5565
820,0.9197,-10.2315,1.1113,-0.5565,5.0087,-0.6261
825,0.7664,-10.1549,1.1113,-0.2783,5.0783,-0.7652
830,0.7664,-10.0782,1.1496,-0.1391,5.0783,-0.6957
835,0.8047,-10.0782,1.073,0.0,5.0783,-0.8348
840,0.8814,-10.1549,0.9963,0.0,5.0087,-0.7652
845,0.7281,-10.1549,1.0346,0.0,5.0087,-0.6261
850,0.7664,-10.1549,1.2646,-0.0696,4.9391,-0.6957
855,0.7664,-10.1166,1.2263,-0.2087,4.8696,-0.6957
860,0.7281,-10.1549,1.1879,-0.2783,4.8696,-0.5565
865,0.7281,-10.1932,1.1113,-0.2783,4.8696,-0.5565
870,0.6514,-10.1932,1.2263,-0.2783,4.8696,-0.487
875,0.8047,-10.1549,1.1496,-0.2087,4.8696,-0.5565
880,0.7281,-10.1549,0.9963,-0.1391,4.9391,-0.5565
885,0.8047,-10.2698,0.9963,-0.2087,4.9391,-0.6957
890,0.7664,-10.3465,1.0346,-0.1391,4.9391,-0.6261
895,0.6514,-10.1932,1.073,-0.1391,4.9391,-0.7652
900,0.7664,-10.0399,0.9963,0.0,5.0087,-0.7652
905,0.8047,-10.2698,0.9963,0.1391,5.0783,-0.7652
910,0.7664,-10.1549,1.1113,0.1391,5.1478,-0.9043
915,0.8047,-9.8866,1.1113,0.3478,5.1478,-0.9043
920,0.7664,-10.1166,1.073,0.5565,5.2174,-0.7652
925,0.7281,-10.1932,1.0346,0.6261,5.0087,-0.8348
930,0.8814,-10.1549,1.0346,0.6957,5.0087,-0.8348
935,0.8047,-10.1549,1.1113,0.6261,5.0087,-0.7652
940,0.7281,-10.1166,1.1113,0.6261,4.8696,-0.6261
945,0.7664,-10.1932,1.2646,0.6261,5.0087,-0.6261
950,0.8047,-10.0782,1.1113,0.3478,5.0087,-0.7652
955,0.8047,-10.1549,1.1496,0.487,4.9391,-0.6957
960,0.8814,-10.2698,1.0346,0.487,4.8696,-0.6957
965,0.7281,-10.1932,1.1879,0.2087,4.9391,-0.6957
970,0.843,-10.1932,1.0346,0.0,4.9391,-0.7652
975,0.7664,-10.1166,1.1496,-0.0696,5.0087,-0.8348
980,0.6898,-10.1549,1.1879,-0.0696,4.9391,-0.6957
985,0.6898,-10.0399,1.1496,0.0696,5.0783,-0.7652
990,0.8814,-10.0782,1.1879,0.1391,5.0783,-0.8348
995,0.7664,-10.1166,1.1879,0.0696,5.1478,-0.7652
1000,0.7664,-10.1932,1.1113,0.0696,4.9391,-0.8348
1005,0.9197,-10.1932,1.2646,0.0696,4.8696,-0.6957
1010,0.7664,-10.1932,0.9963,0.2087,4.8696,-0.6261
1015,0.7664,-10.1166,0.9963,0.2087,4.9391,-0.6261
1020,0.8047,-10.0782,1.073,0.2087,5.0087,-0.6957
1025,0.7281,-10.1166,1.2263,0.0696,5.0783,-0.7652
1030,0.7281,-10.1166,1.1113,-0.2087,5.0783,-0.8348
1035,0.843,-10.1549,1.1879,-0.3478,5.0783,-0.7652
1040,0.8047,-10.1549,1.2646,-0.4174,4.9391,-0.6957
1045,0.843,-10.1549,1.1879,-0.4174,4.7304,-0.6261
1050,0.6514,-10.1549,0.9963,-0.3478,4.8,-0.6261
1055,0.843,-10.1166,1.1113,-0.2087,4.8,-0.5565
1060,0.7281,-10.1549,1.073,-0.2783,4.7304,-0.6957
1065,0.7664,-10.1166,1.2646,-0.3478,4.8696,-0.5565
1070,0.8814,-10.1549,1.073,-0.487,4.9391,-0.6957
1075,0.7281,-10.0782,1.1496,-0.6261,4.9391,-0.6957
1080,0.843,-10.0399,1.073,-0.8348,5.0087,-0.6957
1085,0.7281,-10.0782,1.073,-0.8348,5.0783,-0.6261
1090,0.7664,-10.1932,1.2263,-0.9043,5.0783,-0.6261
1095,0.7281,-10.1166,1.1113,-0.9043,5.1478,-0.6261
1100,0.8047,-10.1549,0.958,-0.9739,5.1478,-0.6261
1105,0.7281,-10.1549,1.1879,-1.113,5.2174,-0.487
1110,0.843,-10.2315,1.1879,-1.1826,5.0783,-0.5565
1115,0.8814,-10.1932,1.0346,-0.9739,5.0783,-0.4174
1120,0.8814,-10.3082,1.073,-0.7652,5.0087,-0.5565
1125,0.8814,-10.1932,0.843,-0.4174,4.8,-0.487
1130,0.8814,-10.2315,1.073,-0.1391,4.4522,-0.487
1135,0.843,-10.1549,1.0346,-0.1391,4.3826,-0.3478
1140,0.8047,-10.1932,0.9963,-0.1391,4.2435,-0.4174
1145,0.843,-10.1549,0.9963,0.0,4.2435,-0.4174
1150,0.7664,-10.2315,0.958,0.0,4.0348,-0.3478
1155,0.7281,-10.0782,1.1113,0.1391,4.1739,-0.4174
1160,0.7664,-10.0782,1.1113,0.487,4.1739,-0.487
1165,0.8047,-10.1549,1.1496,0.8348,4.2435,-0.4174
1170,0.7664,-10.0016,0.9963,0.6957,4.2435,-0.4174
1175,0.7281,-10.1166,1.2263,0.4174,4.3826,-0.4174
1180,0.8047,-10.1166,1.073,0.0696,4.5913,-0.487
1185,0.843,-10.2315,1.1879,-0.2087,4.6609,-0.4174
1190,0.8047,-10.1166,1.1879,-0.1391,4.8,-0.6261
1195,0.958,-10.2315,1.073,0.2087,4.8,-0.6261
1200,0.8814,-10.1549,1.2646,0.6957,4.6609,-0.6957
1205,0.8047,-10.1166,1.1496,0.9739,4.7304,-0.5565
1210,0.843,-10.1549,1.2263,1.113,4.7304,-0.6261
1215,0.958,-10.2315,0.9963,0.9043,4.6609,-0.4174
1220,0.8814,-10.1932,1.1879,0.6957,4.5217,-0.5565
1225,0.843,-10.1166,1.1113,0.5565,4.5217,-0.2783
1230,0.8814,-10.0782,1.3795,0.4174,4.3826,-0.3478
1235,1.0346,-10.2698,1.1113,0.3478,4.3826,-0.2087
1240,0.9197,-10.1549,1.1113,0.2087,4.2435,-0.3478
1245,0.7664,-10.1932,1.1496,0.0696,4.3826,-0.2087
1250,0.7281,-10.1932,1.1113,-0.0696,4.3826,-0.3478
1255,0.8047,-10.2698,1.1496,0.0,4.3826,-0.4174
1260,0.8047,-10.1166,1.1496,0.0,4.3826,-0.5565
1265,0.7664,-10.1932,1.1113,0.1391,4.4522,-0.4174
1270,0.6898,-10.0782,1.1879,0.2087,4.4522,-0.487
1275,0.7281,-10.2315,0.9963,0.2783,4.5217,-0.4174
1280,0.958,-10.1932,1.073,0.4174,4.5217,-0.5565
1285,0.8047,-10.0016,1.1496,0.5565,4.4522,-0.3478
1290,0.7281,-10.0782,0.958,0.5565,4.3826,-0.3478
1295,0.7664,-10.1166,1.1879,0.487,4.4522,-0.3478
1300,0.7281,-10.0399,1.1113,0.487,4.5217,-0.2783
1305,0.8047,-10.1166,1.1879,0.3478,4.4522,-0.2087
1310,0.843,-10.0782,1.1879,0.2087,4.5217,-0.2783
1315,0.6514,-10.0782,1.1879,0.1391,4.5217,-0.3478
1320,0.843,-10.2315,1.1113,0.0,4.4522,-0.487
1325,0.843,-10.1549,1.1879,0.0,4.5217,-0.4174
1330,0.9197,-10.0399,1.2263,-0.1391,4.5217,-0.5565
1335,0.8814,-10.2315,1.1879,-0.1391,4.5913,-0.487
1340,0.8047,-10.1932,1.1113,-0.2783,4.6609,-0.5565
1345,0.8814,-10.1932,1.2646,-0.2087,4.6609,-0.487
1350,0.7664,-10.0782,1.2646,-0.2783,4.7304,-0.5565
1355,0.8047,-10.1549,1.073,-0.2087,4.7304,-0.487
1360,0.8814,-10.0016,1.1879,-0.2783,4.7304,-0.487
1365,0.8047,-10.0782,1.2646,-0.3478,4.8,-0.4174
1370,0.7664,-10.1549,1.073,-0.4174,4.6609,-0.487
1375,0.7664,-10.1549,1.2263,-0.4174,4.5217,-0.3478
1380,0.7664,-10.0782,1.2263,-0.6261,4.313,-0.2783
1385,0.8047,-10.0782,1.1879,-0.6957,4.1043,-0.2087
1390,0.9197,-10.1166,1.2646,-0.8348,4.1043,-0.2783
1395,0.7664,-10.1549,1.3029,-0.9739,4.1043,-0.2783
1400,0.843,-10.2315,1.1113,-1.1826,4.0348,-0.3478
1405,0.8047,-10.2315,1.0346,-1.2522,3.9652,-0.2783
1410,0.8814,-10.0782,1.1496,-1.1826,4.1043,-0.4174
1415,0.843,-10.3082,1.2646,-1.0435,4.1043,-0.3478
1420,0.7664,-10.1549,0.958,-0.7652,4.2435,-0.5565
1425,0.843,-10.0782,1.1496,-0.5565,4.313,-0.3478
1430,0.7281,-10.1166,1.0346,-0.6261,4.313,-0.4174
1435,0.843,-10.1549,1.1879,-0.4174,4.2435,-0.3478
1440,0.8047,-10.1932,1.1879,-0.4174,4.3826,-0.5565
1445,0.843,-10.2315,0.9963,-0.487,4.313,-0.4174
1450,0.843,-10.1549,1.1496,-0.5565,4.3826,-0.487
1455,0.7664,-10.1166,1.1496,-0.6261,4.5217,-0.3478
1460,0.8047,-10.1166,1.2646,-0.7652,4.4522,-0.487
1465,0.8047,-10.0782,1.0346,-0.7652,4.4522,-0.3478
1470,0.7281,-10.2315,1.2263,-0.6957,4.313,-0.4174
1475,0.8814,-10.0782,1.1113,-0.5565,4.2435,-0.2783
1480,0.7664,-10.0782,1.2263,-0.2087,4.2435,-0.3478
1485,0.843,-10.1166,1.1496,-0.2087,3.9652,-0.0696
1490,0.8814,-10.1549,1.1879,-0.2783,4.1043,-0.1391
1495,0.843,-10.1166,1.2263,-0.3478,4.1043,0.0
1500,0.843,-10.1932,1.1113,-0.3478,4.1043,-0.2783
1505,0.8814,-10.0399,1.073,-0.487,4.2435,-0.1391
1510,0.8047,-10.1932,1.2646,-0.3478,4.313,-0.3478
1515,0.843,-10.1932,1.073,-0.3478,4.3826,-0.2087
1520,0.7664,-10.2698,1.073,-0.2087,4.5217,-0.2087
1525,0.8814,-10.1549,1.1496,-0.1391,4.6609,-0.1391
1530,0.7664,-10.0782,1.1113,0.0,4.5913,-0.2783
1535,0.843,-10.1932,1.1496,0.1391,4.7304,-0.1391
1540,0.8047,-10.2315,1.1496,0.0696,4.6609,-0.2783
1545,0.843,-10.1166,1.1496,0.0696,4.8,-0.1391
1550,0.9197,-10.1932,1.2646,0.0696,4.6609,-0.3478
1555,0.8047,-10.1932,1.3029,0.0696,4.6609,-0.1391
1560,0.6898,-10.0782,1.1879,-0.0696,4.4522,-0.2783
1565,0.7664,-10.0782,1.1496,-0.1391,4.5217,-0.1391
1570,0.843,-10.1932,0.9963,0.0,4.3826,-0.2087
1575,0.843,-10.1549,1.2646,-0.2087,4.313,-0.0696
1580,0.7664,-10.1932,1.3412,-0.2783,4.313,-0.2087
1585,0.7664,-10.0782,1.1113,-0.4174,4.313,-0.1391
1590,0.8047,-10.1549,1.2263,-0.487,4.4522,-0.3478
1595,0.8047,-10.1549,1.1879,-0.3478,4.3826,-0.2087
1600,0.6898,-10.1549,1.3795,-0.2783,4.3826,-0.4174
1605,0.843,-10.1166,1.2263,-0.2783,4.313,-0.2783
1610,0.843,-10.0782,1.2263,-0.1391,4.4522,-0.3478
1615,0.7664,-10.1549,1.2263,-0.1391,4.4522,-0.2783
1620,0.7664,-10.1549,1.3029,-0.2087,4.5217,-0.2783
1625,0.843,-10.1549,1.2646,-0.2783,4.4522,-0.2087
1630,0.8047,-10.1549,1.2263,-0.2087,4.3826,-0.2783
1635,0.7281,-10.0016,1.2646,-0.2783,4.313,0.0
1640,0.958,-10.0782,1.2646,-0.4174,4.2435,-0.2087
1645,0.7664,-10.1549,1.3412,-0.5565,4.2435,-0.1391
1650,0.843,-10.1932,1.1113,-0.5565,4.2435,-0.2783
1655,0.843,-10.2698,1.1879,-0.5565,4.4522,-0.2087
1660,0.6898,-10.1549,1.1879,-0.5565,4.4522,-0.4174
1665,0.8047,-10.1932,1.2646,-0.5565,4.3826,-0.2783
1670,0.8047,-10.0782,1.1879,-0.4174,4.3826,-0.4174
1675,0.8047,-10.0399,1.2263,-0.3478,4.3826,-0.2087
1680,0.843,-10.1932,1.1879,-0.4174,4.3826,-0.3478
1685,0.6898,-10.0399,1.3412,-0.4174,4.2435,-0.0696
1690,0.7664,-10.0782,1.1496,-0.5565,4.1043,-0.2783
1695,0.7281,-10.1932,1.2263,-0.7652,3.9652,0.0
1700,0.8047,-10.1166,1.3029,-0.8348,4.0348,-0.0696
1705,0.7664,-10.1166,1.2646,-0.7652,3.9652,0.0
1710,0.8814,-10.1549,1.2263,-0.8348,3.8957,-0.2087
1715,0.9197,-10.2315,1.3795,-0.6957,3.8261,0.0
1720,0.7281,-10.1932,1.1496,-0.6261,3.8261,-0.2087
1725,0.8047,-10.1932,1.073,-0.5565,4.0348,-0.0696
1730,0.7664,-10.2698,1.3029,-0.487,4.1739,-0.2783
1735,0.8047,-10.1166,1.2646,-0.487,4.313,-0.0696
1740,0.8047,-10.0782,1.1879,-0.487,4.1739,-0.2783
1745,0.843,-10.0399,1.073,-0.6261,4.0348,-0.0696
1750,0.9197,-10.1166,1.1879,-0.6261,4.0348,-0.2087
1755,0.8047,-10.1166,1.3795,-0.9043,3.8261,0.0
1760,0.8814,-10.1549,1.2263,-1.113,3.7565,-0.1391
1765,0.9963,-10.2698,1.073,-1.113,3.7565,0.0696
1770,0.843,-10.1932,1.1879,-0.9043,3.6174,-0.0696
1775,0.8047,-10.1166,1.1496,-0.7652,3.7565,0.0696
1780,0.8047,-10.1932,1.1496,-0.6261,3.9652,-0.1391
1785,0.843,-10.1932,1.2263,-0.6957,4.1043,-0.0696
1790,0.8814,-10.2315,1.3029,-0.6957,4.2435,-0.3478
1795,0.9197,-10.1932,1.1879,-0.6261,4.3826,-0.2783
1800,0.7664,-10.1549,1.2263,-0.8348,4.5217,-0.3478
1805,0.7281,-10.1549,1.2646,-0.9739,4.5913,-0.1391
1810,0.7664,-10.1932,1.1496,-1.0435,4.6609,-0.3478
1815,0.843,-10.1932,1.2646,-1.1826,4.8,-0.1391
1820,0.8047,-10.1549,1.2263,-1.2522,4.8696,-0.2087
1825,0.7664,-10.1549,1.1113,-1.113,4.8696,-0.0696
1830,0.843,-10.0782,1.3029,-0.9043,4.8,-0.1391
1835,0.8814,-10.1166,1.1113,-0.7652,4.5217,0.1391
1840,0.843,-10.1549,1.073,-0.6261,4.4522,-0.0696
1845,0.6898,-10.1549,1.1113,-0.7652,4.2435,0.0696
1850,0.8047,-10.0399,0.9963,-0.8348,4.1043,0.0
1855,0.843,-10.2698,1.0346,-0.8348,3.8261,0.2087
1860,0.843,-10.1549,1.1113,-0.8348,3.8261,-0.0696
1865,0.843,-10.1932,1.1879,-0.5565,3.7565,0.0696
1870,0.843,-10.1549,1.2646,-0.2087,3.7565,-0.0696
1875,0.8047,-10.1932,1.3412,0.1391,3.8261,0.0696
1880,0.7664,-10.1549,1.1879,0.3478,4.1043,-0.1391
1885,0.843,-10.0782,1.1113,0.3478,4.313,-0.0696
1890,0.843,-10.1166,1.1879,0.2087,4.5217,-0.2783
1895,0.843,-10.0016,1.2646,0.1391,4.4522,-0.1391
1900,0.8047,-10.1932,1.2263,0.0696,4.6609,-0.4174
1905,0.7664,-10.0399,1.2263,-0.0696,4.7304,-0.2087
1910,0.843,-10.1549,1.1496,-0.1391,4.7304,-0.3478
1915,0.843,-10.0782,1.2263,-0.2087,4.5913,-0.1391
1920,0.8814,-10.0782,1.3412,-0.2087,4.313,-0.2087
1925,0.8047,-10.1549,1.1879,-0.2087,4.2435,0.0
1930,0.8047,-10.0782,1.1113,-0.4174,4.1739,-0.1391
1935,0.7664,-10.1166,1.1113,-0.4174,4.0348,0.0696
1940,0.8814,-10.1166,1.1879,-0.6957,3.8957,-0.1391
1945,0.8047,-10.1932,1.1879,-0.6261,3.7565,-0.0696
1950,0.8047,-10.0782,1.2263,-0.6957,3.8957,-0.1391
1955,0.8047,-10.1549,1.0346,-0.6261,3.8261,0.1391
1960,0.7664,-10.1166,1.1879,-0.6261,3.8957,0.0
1965,0.7664,-10.1166,1.1879,-0.5565,3.8957,0.0696
1970,0.7281,-10.1166,1.2646,-0.6261,3.9652,-0.2087
1975,0.8047,-10.1549,1.1113,-0.6261,4.1043,0.0696
1980,0.7281,-10.1549,1.3029,-0.4174,4.1739,-0.2087
1985,0.7664,-10.1166,1.3029,-0.2087,4.1739,0.0
1990,0.8047,-10.1549,1.1879,-0.0696,4.1739,-0.1391
1995,0.8047,-10.1166,1.2646,-0.2087,4.2435,0.0
2000,0.8814,-10.0782,1.1879,-0.3478,4.1739,-0.1391
2005,0.8047,-10.1549,1.2263,-0.4174,4.1739,0.0696
2010,0.8047,-10.1549,1.1496,-0.487,4.1739,-0.1391
2015,0.7664,-10.1549,1.1496,-0.6957,4.0348,0.0696
2020,0.8047,-10.1932,1.2263,-0.6261,3.9652,-0.1391
2025,0.8047,-10.1549,1.1113,-0.6957,3.9652,-0.0696
2030,0.843,-10.2698,1.3029,-0.5565,4.0348,-0.2783
2035,0.8047,-10.1549,1.1113,-0.4174,4.1043,-0.2087
2040,0.9197,-10.1549,1.3029,-0.4174,4.0348,-0.3478
2045,0.8047,-10.0399,1.2646,-0.2783,4.1043,-0.2087
2050,0.843,-10.0782,1.1113,-0.2087,4.2435,-0.3478
2055,0.8814,-10.0399,1.2263,-0.1391,4.3826,-0.2087
2060,0.843,-10.1166,1.4562,-0.1391,4.5217,-0.2783
2065,0.9197,-10.1932,1.073,-0.4174,4.6609,-0.0696
2070,0.8814,-10.0016,1.1496,-0.6957,4.7304,-0.2783
2075,0.843,-10.1166,1.1496,-1.0435,4.7304,-0.2783
2080,0.7664,-10.1549,1.1113,-1.3217,4.8,-0.4174
2085,0.7664,-10.1166,1.1496,-1.8087,4.8,-0.1391
2090,0.843,-10.1166,1.073,-2.2261,4.8,-0.4174
2095,0.8814,-10.1549,1.2263,-2.4348,4.8,-0.2087
2100,0.8814,-10.2315,1.1113,-2.6435,4.8696,-0.4174
2105,0.843,-10.2315,1.073,-2.5739,4.8696,-0.2783
2110,0.7281,-10.0782,1.3412,-2.4348,5.0783,-0.5565
2115,0.843,-10.1166,1.1496,-2.3652,5.287,-0.487
2120,0.8047,-10.0399,1.1879,-2.3652,5.4261,-0.6261
2125,0.7281,-10.1166,1.2263,-2.3652,5.5652,-0.5565
2130,0.7281,-10.1166,1.2263,-2.2957,5.6348,-0.7652
2135,0.7664,-10.1932,1.2646,-2.3652,5.6348,-0.6261
2140,0.843,-10.2315,1.1879,-2.1565,5.4957,-0.9739
2145,0.7664,-10.1932,1.1879,-2.087,5.3565,-0.6957
2150,0.7281,-10.0782,1.2263,-1.8087,5.1478,-0.8348
2155,0.7664,-10.1166,1.2646,-1.8783,5.0783,-0.6957
2160,0.7664,-9.9633,1.2646,-2.087,4.9391,-0.7652
2165,0.8047,-10.1166,1.3412,-2.5043,4.8696,-0.6261
2170,0.8047,-10.1549,1.3795,-2.7826,4.6609,-0.6957
2175,0.7281,-10.0399,1.2263,-3.2696,4.5217,-0.487
2180,0.8814,-10.1166,1.3029,-3.6174,4.313,-0.6261
2185,0.8814,-10.1166,1.2263,-3.8261,4.2435,-0.487
2190,0.6898,-10.0782,1.3029,-3.8957,4.1739,-0.6261
2195,0.7664,-10.1549,1.3412,-3.9652,4.2435,-0.5565
2200,0.8047,-10.0399,1.2646,-4.1043,4.2435,-0.6957
2205,0.8047,-10.1932,1.2646,-4.2435,4.2435,-0.487
2210,0.843,-10.0016,1.3412,-4.4522,4.313,-0.6261
2215,0.7664,-10.0782,1.3412,-4.5913,4.4522,-0.5565
2220,0.7664,-10.0782,1.2263,-4.7304,4.4522,-0.6261
2225,0.8047,-10.0782,1.2263,-4.8696,4.3826,-0.5565
2230,0.8047,-10.1549,1.1879,-4.9391,4.4522,-0.8348
2235,0.8047,-10.0782,1.1113,-5.1478,4.313,-0.6957
2240,0.7281,-10.1549,1.1879,-5.287,4.3826,-0.9043
2245,0.6898,-10.1166,1.1496,-5.2174,4.5913,-0.6261
2250,0.7664,-10.1166,1.2263,-5.287,4.5913,-0.7652
2255,0.843,-10.0782,1.1496,-5.287,4.6609,-0.6261
2260,0.8814,-10.2698,1.1113,-5.4261,4.7304,-0.7652
2265,0.8047,-10.1932,1.1496,-5.4957,4.7304,-0.6261
2270,0.7281,-10.1549,1.2263,-5.4261,4.6609,-0.6957
2275,0.7664,-10.0782,1.073,-5.287,4.5217,-0.6261
2280,0.843,-10.1166,1.2263,-5.1478,4.3826,-0.5565
2285,0.6898,-10.0782,1.2646,-5.0087,4.3826,-0.4174
2290,0.8047,-10.1932,1.1496,-5.0087,4.2435,-0.487
2295,0.7664,-10.1549,1.1496,-4.7304,4.3826,-0.3478
2300,0.843,-10.1932,1.1879,-4.5217,4.5217,-0.487
2305,0.8814,-10.0782,1.1113,-4.313,4.5913,-0.3478
2310,0.7664,-10.0399,1.1879,-4.2435,4.5913,-0.487
2315,0.9197,-10.0782,1.1113,-4.3826,4.5913,-0.3478
2320,0.9197,-10.1549,1.0346,-4.5217,4.6609,-0.4174
2325,0.8814,-10.1166,1.1113,-4.8,4.7304,-0.2087
2330,0.8814,-10.0782,1.073,-4.8696,4.6609,-0.2783
2335,0.843,-10.1549,1.073,-5.0087,4.6609,-0.1391
2340,0.8047,-10.1549,0.9963,-5.0783,4.5913,-0.2087
2345,0.8814,-10.1166,1.1113,-4.9391,4.5217,0.0696
2350,0.8814,-10.1932,1.073,-4.6609,4.4522,-0.0696
2355,0.9197,-10.1932,0.9963,-4.5217,4.4522,0.2087
2360,0.843,-10.2315,1.073,-4.313,4.313,0.1391
2365,0.7664,-10.1549,1.0346,-4.2435,4.313,0.2087
2370,0.7664,-10.0782,1.1879,-4.0348,4.2435,0.2087
2375,0.6131,-9.7334,0.9963,-4.0348,4.2435,0.2783
2380,1.1496,-9.81,1.0346,-4.5217,4.313,0.2783
2385,0.7664,-9.6567,0.843,-5.0087,4.3826,0.3478
2390,0.6514,-10.3848,0.7281,-5.5652,4.5217,0.2783
2395,0.6514,-10.2698,1.2646,-5.9826,4.8696,0.2783
2400,0.6898,-10.4231,1.2646,-6.0522,5.1478,0.0
2405,0.4598,-10.4231,1.1496,-6.0522,5.287,-0.1391
2410,0.9197,-9.6567,1.1113,-5.6348,5.3565,-0.487
2415,0.3449,-10.3465,0.8814,-5.0783,5.3565,-0.6957
2420,0.843,-10.3082,0.8047,-4.5217,5.3565,-0.8348
2425,0.843,-10.2315,0.6131,-4.313,5.3565,-0.9043
2430,1.073,-10.3082,1.3412,-4.5217,5.4261,-1.0435
2435,0.6514,-10.1549,1.2263,-4.6609,5.5652,-1.0435
2440,0.9197,-9.81,1.4562,-4.8696,5.8435,-1.113
2445,1.1113,-10.1166,1.1879,-5.0087,5.9826,-1.0435
2450,0.3066,-10.2315,0.8814,-5.0783,5.913,-1.0435
2455,0.843,-9.9633,1.1496,-5.0087,5.7739,-1.0435
2460,0.8047,-10.2698,1.3029,-5.287,5.6348,-1.0435
2465,0.6514,-10.1166,1.0346,-5.4957,5.4261,-0.9739
2470,0.8047,-10.2315,0.958,-5.7043,5.287,-0.9739
2475,0.7281,-10.1549,0.9963,-5.7739,5.0783,-0.9739
2480,0.7664,-10.2698,1.1113,-5.7043,5.0783,-1.113
2485,0.9197,-10.1166,1.073,-5.7043,5.0087,-1.0435
2490,0.4982,-10.3082,0.9963,-5.4261,5.0087,-1.1826
2495,0.7664,-10.3465,0.9197,-5.2174,5.0783,-1.113
2500,0.843,-10.2315,1.0346,-5.0783,5.0087,-1.113
2505,1.1496,-10.2698,0.958,-5.0783,4.8696,-1.0435
2510,1.2646,-10.3848,1.5328,-5.0087,4.8696,-1.113
2515,0.7281,-10.2698,0.843,-4.9391,5.0783,-0.9043
2520,0.7664,-10.0399,0.958,-4.7304,4.9391,-0.9043
2525,1.1496,-10.0399,1.073,-4.5913,4.8,-0.8348
2530,0.843,-10.0399,0.6514,-4.5217,4.8696,-0.8348
2535,0.958,-10.0399,1.073,-4.5913,4.8696,-0.9043
2540,0.7281,-10.0016,1.1496,-4.6609,4.8,-0.9739
2545,0.8814,-10.0016,0.7664,-4.6609,4.8696,-0.7652
2550,0.843,-10.0782,1.1113,-4.6609,4.9391,-0.9043
2555,0.6898,-10.1549,0.843,-4.5913,5.1478,-0.6957
2560,0.8814,-10.0016,0.8047,-4.5913,5.0087,-0.7652
2565,0.7664,-10.3465,1.073,-4.5913,4.9391,-0.6957
2570,0.8814,-10.1549,0.8814,-4.5913,4.8696,-0.6957
2575,0.843,-10.1549,0.9197,-4.4522,4.8696,-0.6261
2580,0.843,-10.2698,0.9197,-4.0348,4.5913,-0.6261
2585,0.7664,-10.1932,0.8814,-3.4783,4.3826,-0.487
2590,0.843,-10.3082,0.8814,-2.8522,3.9652,-0.4174
2595,0.8047,-10.3848,0.8814,-2.4348,3.6174,-0.3478
2600,0.8047,-10.3465,0.7664,-2.1565,3.2,-0.3478
2605,0.958,-10.2698,0.9963,-1.8783,2.9913,-0.3478
2610,0.8047,-10.2315,0.843,-1.4609,2.9913,-0.3478
2615,1.073,-10.0782,0.958,-1.113,3.1304,-0.2783
2620,0.4982,-9.8866,0.7281,-0.7652,3.5478,-0.487
2625,0.7281,-10.0399,1.073,-0.6957,3.8957,-0.5565
2630,0.4215,-10.2698,0.8047,-0.7652,4.1043,-0.6261
2635,0.8814,-10.1166,0.9197,-1.113,4.2435,-0.7652
2640,0.8814,-10.3848,0.6514,-1.4609,4.3826,-0.8348
2645,0.5365,-10.2698,0.6514,-1.6,4.5217,-0.9043
2650,0.7664,-10.2315,0.6514,-1.7391,4.5217,-0.9043
2655,0.6131,-10.1166,1.0346,-1.7391,4.5913,-0.8348
2660,1.1879,-10.2315,0.6514,-1.7391,4.5913,-0.8348
2665,0.8047,-10.3465,0.4982,-1.8087,4.4522,-0.487
2670,0.8047,-10.2315,0.7281,-2.087,4.3826,-0.487
2675,0.9963,-10.3848,0.7281,-2.2261,4.2435,-0.2783
2680,0.8047,-9.9633,0.6514,-2.2957,4.0348,0.0
2685,0.5365,-10.0016,0.7664,-2.2957,3.8957,-0.0696
2690,0.7664,-10.3082,0.8814,-1.9478,3.687,0.0696
2695,0.8047,-10.1932,0.843,-1.8087,3.5478,0.1391
2700,0.8814,-10.1549,0.843,-1.7391,3.6174,0.2087
2705,0.843,-10.1166,0.9197,-1.8783,3.6174,0.2087
2710,0.8047,-10.2315,0.8047,-2.0174,3.5478,0.2087
2715,0.9197,-10.0782,0.843,-2.087,3.687,0.2087
2720,0.843,-10.3082,0.7664,-2.0174,3.8957,0.2087
2725,0.5365,-10.3082,0.6514,-1.8087,3.9652,0.1391
2730,0.6898,-10.1549,0.8047,-1.6696,3.8957,0.0
2735,0.2299,-10.4231,0.4215,-1.2522,3.8957,0.0
2740,0.7664,-10.2315,0.7664,-1.0435,3.9652,-0.0696
2745,0.6514,-10.3848,1.3412,-0.9739,4.0348,-0.1391
2750,0.7664,-10.2698,1.1113,-1.1826,3.9652,-0.0696
2755,0.9963,-10.1932,0.843,-1.5304,4.0348,0.0
2760,0.5365,-9.925,0.5365,-1.5304,3.9652,0.1391
2765,0.958,-10.0399,1.3029,-1.5304,3.9652,0.0696
2770,0.7664,-10.1549,1.0346,-1.3217,3.9652,0.0696
2775,0.7281,-10.4231,0.9197,-1.113,4.1043,0.1391
2780,1.073,-10.2698,1.2646,-0.9739,4.1043,0.1391
2785,0.7281,-10.2698,1.2263,-0.6261,4.1043,0.0
2790,0.8814,-10.1549,1.073,-0.6957,4.1043,0.0696
2795,0.6898,-10.3082,0.843,-0.7652,3.9652,0.0696
2800,0.8047,-10.0782,0.9963,-1.0435,3.8261,0.0696
2805,0.7664,-10.2698,0.8814,-1.3217,3.8957,0.0696
2810,0.8814,-10.1932,0.9197,-1.6696,3.9652,0.0696
2815,0.6514,-10.1549,0.958,-1.7391,4.0348,0.1391
2820,0.8047,-10.3082,0.843,-1.6,4.1043,0.1391
2825,0.8814,-10.2315,0.8047,-1.3217,4.1739,0.1391
2830,0.8047,-10.1932,0.958,-1.0435,4.0348,0.2783
2835,0.843,-10.2315,0.843,-0.6957,4.0348,0.1391
2840,0.7664,-10.2698,0.958,-0.5565,4.0348,0.1391
2845,0.7664,-10.0782,0.958,-0.487,3.9652,0.0696
2850,1.073,-9.925,0.958,-0.5565,4.0348,0.0696
2855,0.9197,-9.8483,0.958,-0.5565,3.8957,-0.0696
2860,0.7281,-10.1549,0.6898,-0.487,3.9652,-0.0696
2865,0.8814,-9.925,0.9197,-0.4174,3.8957,-0.1391
2870,0.7664,-10.1166,0.8814,-0.2783,3.8957,-0.2087
2875,0.5365,-10.2698,0.843,-0.0696,3.8957,-0.2783
2880,0.7281,-10.3465,1.1113,0.0696,3.8957,-0.2783
2885,0.6514,-10.3465,1.2646,0.0,3.9652,-0.3478
2890,0.6898,-10.0782,1.073,0.0,3.8261,-0.2783
2895,0.8047,-10.2698,0.9197,-0.0696,4.0348,-0.4174
2900,0.8814,-10.0016,1.1496,-0.0696,3.9652,-0.3478
2905,0.8047,-10.3465,0.8814,0.0696,3.9652,-0.4174
2910,0.6898,-10.3848,1.1496,0.0696,3.9652,-0.4174
2915,0.958,-10.3848,0.9197,0.3478,4.0348,-0.4174
2920,0.4215,-10.5381,0.6898,0.5565,3.8957,-0.3478
2925,0.843,-10.1932,0.958,0.6261,3.8261,-0.4174
2930,0.8814,-10.2315,0.843,0.7652,3.8261,-0.3478
2935,0.9197,-10.2315,0.958,0.5565,3.8261,-0.3478
2940,0.8814,-10.1166,1.0346,0.3478,4.0348,-0.2087
2945,0.7664,-10.2315,0.9197,0.2783,4.0348,-0.2783
2950,0.6898,-9.925,0.9963,0.2783,3.9652,-0.2783
2955,0.8814,-10.3082,0.958,0.5565,3.8957,-0.2783
2960,0.8814,-10.2698,0.958,0.7652,3.8957,-0.1391
2965,0.843,-10.1166,0.8047,0.8348,3.8957,-0.1391
2970,0.8047,-10.3465,0.9197,0.9043,3.8957,-0.0696
2975,0.8814,-10.0782,0.843,0.7652,3.8957,-0.2087
2980,0.8814,-10.1549,0.8814,0.7652,4.0348,0.0
2985,0.7281,-10.1549,0.8814,0.5565,4.1043,-0.1391
2990,0.8047,-10.1932,0.8047,0.487,3.9652,0.0696
2995,0.958,-10.1166,0.8047,0.487,4.1043,-0.0696
