timestamp,accX,accY,accZ,gyroX,gyroY,gyroZ
0,-9.8483,0.4598,-0.2682,-0.4174,3.5478,-0.2087
5,-9.8866,0.4215,-0.2299,-0.6261,3.5478,-0.1391
10,-9.7334,0.4982,-0.0766,-0.7652,3.6174,0.0
15,-9.8866,0.4982,-0.1916,-0.9043,3.7565,0.0696
20,-9.9633,0.4982,-0.2299,-1.0435,3.9652,0.0696
25,-9.8483,0.3832,-0.1533,-1.1826,4.1043,0.1391
30,-9.925,0.4982,-0.2299,-1.1826,4.2435,0.1391
35,-9.8483,0.4598,-0.3066,-1.113,4.1739,0.0
40,-10.0399,0.4982,-0.1916,-1.0435,4.1043,0.0
45,-9.8483,0.3449,-0.2682,-0.8348,4.1043,-0.0696
50,-9.925,0.3449,-0.3066,-0.6957,4.1739,-0.1391
55,-9.7717,0.4215,-0.3832,-0.2783,4.313,-0.2087
60,-9.8483,0.3832,-0.115,0.0,4.3826,-0.3478
65,-9.8866,0.4598,-0.2682,0.2087,4.313,-0.4174
70,-10.0016,0.4598,-0.2299,0.5565,4.313,-0.5565
75,-9.925,0.4215,-0.3832,0.7652,4.3826,-0.5565
80,-9.9633,0.5748,-0.2682,0.8348,4.2435,-0.6261
85,-9.81,0.3832,-0.1916,0.9739,4.2435,-0.6957
90,-9.81,0.4215,-0.3832,1.0435,4.1739,-0.7652
95,-10.0016,0.4982,-0.0766,1.0435,4.1043,-0.8348
100,-9.8483,0.3832,-0.0766,1.0435,4.0348,-0.8348
105,-9.925,0.4598,-0.2299,1.0435,3.8957,-0.9043
110,-9.925,0.4215,-0.0383,1.0435,3.7565,-0.8348
115,-9.8483,0.4598,-0.2682,0.8348,3.4783,-0.9739
120,-9.9633,0.4982,-0.1916,0.7652,3.4087,-1.0435
125,-9.925,0.4982,-0.0766,0.487,3.3391,-0.9739
130,-9.925,0.4598,-0.115,0.2087,3.2,-0.9739
135,-9.925,0.4982,-0.115,0.0696,3.2,-0.9739
140,-9.8483,0.3449,-0.0766,0.0696,3.2696,-0.9043
145,-9.8483,0.4598,0.0383,0.0,3.4087,-0.9739
150,-9.8866,0.4215,-0.115,0.0696,3.5478,-0.9043
155,-9.8866,0.5365,-0.1916,0.1391,3.7565,-1.0435
160,-9.8483,0.3449,-0.1533,0.1391,4.1043,-1.0435
165,-10.0016,0.3832,-0.2682,0.1391,4.5217,-1.113
170,-9.8483,0.3832,-0.0766,0.0696,4.9391,-1.0435
175,-9.81,0.4215,-0.1533,0.0696,5.0783,-0.9739
180,-9.8483,0.3832,-0.1916,0.0696,5.287,-1.0435
185,-9.925,0.3066,-0.1916,0.1391,5.287,-1.1826
190,-9.925,0.3832,-0.2682,0.0696,5.3565,-1.0435
195,-9.9633,0.3832,-0.1916,0.0,5.4957,-0.9739
200,-10.0016,0.3832,-0.1533,0.0,5.4261,-0.9043
205,-9.8866,0.3832,-0.3449,-0.2087,5.4957,-0.8348
210,-9.925,0.3832,-0.1533,-0.3478,5.6348,-0.7652
215,-9.925,0.3832,-0.1916,-0.6261,5.6348,-0.7652
220,-9.8866,0.4215,-0.2682,-0.8348,5.7043,-0.8348
225,-9.8866,0.4982,-0.0383,-1.113,5.5652,-0.7652
230,-9.8866,0.4215,-0.115,-1.2522,5.5652,-0.9043
235,-9.8483,0.3449,-0.115,-1.2522,5.5652,-0.7652
240,-9.8483,0.3832,-0.2299,-1.113,5.5652,-0.7652
245,-9.8483,0.4215,-0.0766,-0.9739,5.4957,-0.8348
250,-9.8866,0.3832,-0.2682,-0.6261,5.3565,-0.6957
255,-9.8866,0.3449,-0.3066,-0.2783,5.1478,-0.6957
260,-9.8866,0.3449,-0.3066,-0.0696,4.9391,-0.6261
265,-9.8483,0.3832,-0.3449,0.0696,4.8696,-0.5565
270,-9.8483,0.3832,-0.3832,0.1391,4.8696,-0.5565
275,-9.8866,0.3832,-0.2299,0.0696,4.8696,-0.6261
280,-9.925,0.4598,-0.3066,-0.2087,4.8696,-0.5565
285,-9.8483,0.3449,-0.2299,-0.5565,5.0087,-0.6261
290,-9.925,0.3832,-0.1916,-0.9739,5.1478,-0.487
295,-9.8866,0.4598,-0.115,-1.2522,5.4957,-0.4174
300,-9.8483,0.3449,-0.1916,-1.4609,5.5652,-0.487
305,-9.925,0.3449,-0.2299,-1.7391,5.6348,-0.487
310,-9.925,0.3066,-0.1533,-1.8087,5.5652,-0.5565
315,-9.9633,0.3066,-0.115,-1.8783,5.6348,-0.487
320,-9.8483,0.3832,-0.2299,-1.8783,5.4957,-0.3478
325,-9.925,0.3066,-0.3066,-1.8087,5.4261,-0.3478
330,-9.5801,0.4215,-0.2299,-1.3913,5.3565,-0.4174
335,-9.8866,0.3066,-0.3066,-1.0435,5.2174,-0.4174
340,-9.8483,0.3066,-0.2682,-0.6261,5.2174,-0.2783
345,-9.9633,0.3066,-0.2682,-0.1391,5.2174,-0.2783
350,-9.8866,0.3832,-0.3832,0.0696,5.2174,-0.2087
355,-9.925,0.4215,-0.1916,0.2087,5.2174,-0.2087
360,-9.8866,0.3066,-0.3066,0.2087,5.2174,0.0
365,-9.925,0.3832,-0.2682,0.0696,5.0783,0.0
370,-9.8483,0.3066,-0.2682,-0.0696,4.9391,0.0696
375,-9.9633,0.3832,-0.3449,-0.1391,4.8,0.1391
380,-9.925,0.3066,-0.0766,-0.2087,4.8,0.0
385,-9.8483,0.4215,-0.3832,-0.3478,4.7304,-0.0696
390,-9.81,0.3449,-0.1533,-0.2087,4.6609,0.0
395,-9.8866,0.3832,-0.1533,-0.2087,4.5913,0.0
400,-9.7334,0.3449,-0.1916,-0.1391,4.5217,0.0696
405,-9.925,0.3449,-0.2299,0.0696,4.5913,0.1391
410,-10.0016,0.4215,-0.2682,0.2087,4.5913,0.2087
415,-9.8866,0.3449,-0.1916,0.2087,4.6609,0.487
420,-9.9633,0.3449,-0.3449,0.2087,4.8696,0.5565
425,-9.8483,0.3066,-0.3066,0.2783,5.0783,0.6957
430,-9.8866,0.3832,-0.2682,0.3478,5.287,0.9739
435,-9.6567,0.3449,-0.115,0.5565,5.287,1.113
440,-9.8866,0.3066,-0.1916,0.8348,5.1478,1.2522
445,-9.81,0.3449,-0.3066,1.113,4.8,1.3913
450,-9.8866,0.3449,-0.2682,1.3217,4.5217,1.6
455,-9.8483,0.3066,-0.1916,1.4609,4.313,1.5304
460,-9.8866,0.3449,-0.2682,1.5304,4.1739,1.6696
465,-9.8483,0.4598,-0.1916,1.4609,3.9652,1.7391
470,-9.925,0.3832,-0.1533,1.2522,4.0348,1.8087
475,-9.8866,0.4215,-0.1916,1.0435,4.0348,1.6696
480,-9.9633,0.4598,-0.2682,0.7652,4.2435,1.5304
485,-10.0016,0.4982,-0.1533,0.5565,4.5913,1.4609
490,-9.925,0.5748,-0.2682,0.4174,4.7304,1.3913
495,-10.0016,0.4598,-0.2299,0.4174,4.9391,1.2522
500,-9.9633,0.4982,-0.2299,0.4174,5.0783,1.0435
505,-9.8866,0.4598,-0.0766,0.1391,5.0783,0.7652
510,-9.9633,0.4598,-0.3066,-0.2087,5.0783,0.7652
515,-9.925,0.5365,-0.2299,-0.8348,5.1478,0.6261
520,-9.925,0.4215,-0.1916,-1.3217,5.0783,0.5565
525,-9.9633,0.4598,-0.1533,-1.6,5.0783,0.4174
530,-9.8866,0.4215,-0.115,-1.7391,4.9391,0.3478
535,-9.925,0.3066,-0.0766,-1.5304,4.8,0.2783
540,-9.925,0.3066,-0.115,-1.1826,4.6609,0.2783
545,-9.7334,0.4982,-0.4215,-0.6261,4.313,0.2087
550,-9.925,0.4215,-0.3066,0.1391,4.1739,0.2783
555,-9.9633,0.4598,-0.1916,0.9043,4.0348,0.1391
560,-9.925,0.4982,-0.2682,1.3217,3.8957,0.0
565,-9.9633,0.6131,-0.3832,1.3913,3.8957,-0.1391
570,-9.81,0.4982,-0.3832,0.9043,4.1043,-0.1391
575,-9.9633,0.5748,-0.4215,0.0696,4.4522,-0.2783
580,-9.9633,0.5365,-0.2682,-0.9043,4.8696,-0.3478
585,-9.925,0.4982,-0.115,-1.6696,5.1478,-0.4174
590,-9.8866,0.3449,-0.115,-2.1565,5.287,-0.487
595,-9.8483,0.3449,-0.2299,-2.2957,5.2174,-0.5565
600,-9.8483,0.3449,-0.1533,-2.0174,5.2174,-0.6261
605,-9.8483,0.3066,-0.1533,-1.5304,5.0783,-0.6261
610,-9.8866,0.3449,-0.0383,-0.8348,5.1478,-0.7652
615,-9.81,0.3066,-0.1916,-0.2087,5.0087,-0.6957
620,-9.81,0.3066,-0.1533,0.2783,5.0087,-0.6261
625,-9.8866,0.3832,-0.1533,0.6957,5.0783,-0.5565
630,-9.8483,0.3832,-0.2682,0.9043,5.1478,-0.4174
635,-9.8483,0.3832,-0.2299,1.113,5.0783,-0.2783
640,-9.8866,0.3832,-0.1916,1.3913,5.0783,-0.1391
645,-9.925,0.3832,-0.1916,1.5304,5.1478,-0.1391
650,-9.8866,0.4982,0.115,1.5304,5.2174,0.0696
655,-9.8483,0.4598,-0.2682,1.2522,5.0783,0.0696
660,-9.925,0.4598,-0.115,0.9739,5.0783,0.0696
665,-9.81,0.4215,-0.2682,0.7652,5.1478,0.2087
670,-9.9633,0.4215,-0.0383,0.5565,5.3565,0.2783
675,-9.925,0.3832,-0.3832,0.2087,5.3565,0.2087
680,-9.925,0.4215,-0.3066,-0.0696,5.4957,0.0696
685,-9.8866,0.4215,-0.2682,-0.2087,5.4957,-0.0696
690,-9.8866,0.5365,-0.1916,-0.2783,5.7043,-0.0696
695,-9.81,0.4215,-0.1533,-0.2783,5.8435,0.0
700,-9.9633,0.3832,-0.1916,-0.2087,5.8435,-0.2087
705,-9.8483,0.4598,-0.1533,0.0,5.8435,-0.0696
710,-9.8866,0.4598,-0.115,0.1391,5.7739,0.0
715,-9.8483,0.3832,-0.1916,0.2783,5.7043,0.0696
720,-9.81,0.4598,-0.3066,0.487,5.6348,0.0
725,-9.8866,0.4215,-0.1916,0.5565,5.4957,0.2783
730,-9.8483,0.3449,-0.3449,0.6261,5.4957,0.4174
735,-9.81,0.4215,-0.1916,0.6261,5.287,0.5565
740,-9.8483,0.3832,-0.2299,0.6261,5.287,0.5565
745,-9.8483,0.3832,-0.3449,0.6957,5.1478,0.5565
750,-9.8866,0.4215,0.0,0.5565,5.0783,0.6261
755,-10.1166,0.6131,-0.1916,0.6261,5.0783,0.5565
760,-9.8866,0.4598,-0.1916,0.7652,5.1478,0.8348
765,-9.925,0.3832,-0.1533,0.7652,5.1478,0.7652
770,-9.9633,0.3066,-0.1916,0.5565,4.9391,0.5565
775,-9.925,0.3449,-0.3449,0.3478,4.9391,0.5565
780,-9.9633,0.4982,-0.2682,0.2087,5.0783,0.487
785,-10.0016,0.4215,-0.1533,-0.0696,5.287,0.487
790,-9.8483,0.4215,-0.2682,-0.2087,5.287,0.4174
795,-9.9633,0.4215,-0.3066,-0.3478,5.3565,0.4174
800,-10.0016,0.4215,-0.1533,-0.5565,5.4957,0.3478
805,-9.9633,0.4215,-0.2682,-0.8348,5.5652,0.3478
810,-9.925,0.4598,-0.2299,-1.0435,5.6348,0.2087
815,-10.0399,0.4215,-0.3832,-1.0435,5.6348,0.2087
820,-9.925,0.3449,-0.2682,-0.9739,5.5652,0.2087
825,-9.8866,0.3449,-0.3449,-0.9043,5.4957,0.1391
830,-9.8866,0.3832,-0.3449,-0.8348,5.5652,0.1391
835,-9.9633,0.4215,-0.115,-0.7652,5.4957,0.0
840,-9.8866,0.3832,-0.3066,-0.7652,5.4957,0.0
845,-9.925,0.4215,-0.3066,-0.6957,5.4957,-0.0696
850,-9.925,0.2682,-0.3832,-0.9739,5.3565,-0.0696
855,-9.9633,0.4215,-0.4215,-0.9043,5.1478,-0.0696
860,-9.8866,0.4982,-0.2682,-1.0435,4.9391,-0.0696
865,-9.7334,0.5365,-0.5365,-1.0435,4.6609,0.0
870,-9.9633,0.3832,-0.3449,-0.9043,4.4522,0.0696
875,-10.0016,0.4215,-0.3066,-0.7652,4.313,0.0696
880,-9.925,0.3066,-0.3449,-0.6261,4.2435,0.0
885,-9.925,0.3832,-0.1916,-0.487,4.1043,0.0696
890,-9.925,0.4598,-0.2299,-0.3478,3.9652,0.0
895,-9.9633,0.3832,-0.3066,-0.1391,3.8261,0.0
900,-9.925,0.3449,-0.2682,0.2087,3.7565,0.0696
905,-10.0399,0.4215,-0.2682,0.3478,3.7565,0.0696
910,-9.9633,0.4598,-0.2682,0.487,3.7565,0.0696
915,-10.0399,0.5365,-0.2299,0.6261,3.8957,-0.0696
920,-10.0016,0.3832,-0.1916,0.6261,3.687,-0.0696
925,-10.0399,0.3832,-0.2299,0.487,3.4783,0.0696
930,-10.0016,0.3449,-0.2682,0.4174,3.2,0.2087
935,-10.0782,0.2299,-0.1916,0.6261,3.0609,0.2087
940,-10.1166,0.0,-0.2299,1.3913,3.1304,0.2783
945,-10.2315,0.0,-0.2299,2.8522,3.7565,0.4174
950,-10.3082,-0.115,-0.3449,5.2174,5.0087,0.2087
955,-10.4614,-0.2299,-0.3449,8.3478,7.0261,0.0696
960,-10.4614,-0.3832,-0.4215,11.8261,9.8087,0.1391
965,-10.5381,-0.4215,-0.4215,16.0,13.0783,0.0696
970,-10.8063,-0.6131,-0.6898,20.2435,17.113,0.1391
975,-10.6147,-0.5748,-0.6514,24.5565,21.287,0.1391
980,-10.5381,-0.4598,-0.8047,28.7304,25.113,0.2087
985,-10.4614,-0.3449,-0.8047,32.0,28.2435,0.2783
990,-10.5764,-0.115,-0.8814,34.0174,30.9565,-0.0696
995,-10.5381,0.1916,-0.7664,34.8522,32.9739,-0.2783
1000,-10.3848,0.3832,-0.6514,34.5043,33.6,-0.2783
1005,-10.1932,0.4215,-0.1533,32.9739,31.9304,-0.6261
1010,-10.3082,0.3832,-0.115,30.3304,27.4087,-1.3913
1015,-10.3465,0.6514,0.1916,26.3652,20.6609,-2.6435
1020,-10.5764,0.6898,0.0766,21.287,12.5217,-4.5217
1025,-10.9213,0.6514,0.0766,15.0957,3.5478,-6.887
1030,-11.1512,0.5748,-0.3449,8.3478,-5.6348,-9.4609
1035,-11.4961,0.5365,-0.6898,1.2522,-14.887,-12.1739
1040,-11.4961,0.3832,-0.958,-5.2174,-23.5826,-14.6087
1045,-11.6111,0.3449,-1.3795,-10.5043,-30.4696,-16.5565
1050,-11.2662,0.2682,-1.4945,-14.5391,-34.9217,-17.6696
1055,-10.9596,0.3066,-1.5711,-17.0435,-36.2435,-18.1565
1060,-10.5381,0.3066,-1.6478,-18.3652,-35.2,-18.087
1065,-10.0399,0.3449,-1.5328,-18.6435,-32.9043,-17.6696
1070,-9.81,0.3066,-1.4179,-17.6696,-30.8174,-16.9739
1075,-9.2352,0.2299,-1.3795,-16.2783,-29.7043,-16.2087
1080,-8.8903,0.3066,-1.5328,-14.7478,-28.7304,-15.1652
1085,-8.9286,0.3066,-1.4945,-13.6348,-27.8261,-13.7739
1090,-8.3921,0.2682,-1.4562,-12.5217,-27.2,-11.2696
1095,-8.5454,0.3066,-1.3029,-10.4348,-26.8522,-9.3217
1100,-8.6604,0.2682,-1.3412,-7.9304,-26.8522,-7.0957
1105,-8.7754,0.2299,-1.2646,-5.4957,-26.4348,-4.2435
1110,-8.852,0.0383,-0.9963,-3.7565,-25.4609,-1.113
1115,-8.9286,-0.1533,-0.8047,-3.0609,-24.6261,1.8087
1120,-9.2352,-0.2299,-0.958,-3.4087,-23.9304,4.4522
1125,-9.4268,-0.3449,-0.5748,-5.2174,-23.7913,6.7478
1130,-9.1969,-0.843,-0.5365,-8.2783,-23.7217,8.6261
1135,-9.0819,-1.1496,-0.3449,-11.7565,-23.7913,10.6435
1140,-8.967,-1.6861,-0.3449,-14.8174,-23.9304,12.4522
1145,-8.8137,-2.031,-0.2682,-16.7652,-24.8348,13.9826
1150,-8.737,-2.2992,-0.1533,-17.0435,-26.5043,15.3739
1155,-8.6987,-2.4525,-0.2299,-15.4435,-29.0783,16.5565
1160,-8.8903,-2.3375,-0.2299,-12.8,-32.4174,17.6696
1165,-9.0053,-2.2226,-0.1533,-9.6,-36.2435,18.7826
1170,-9.0819,-2.1076,-0.4215,-6.8174,-40.0696,19.9652
1175,-9.3118,-1.8394,-0.1533,-4.4522,-43.7565,20.9391
1180,-9.7334,-1.4945,-0.1533,-2.3652,-47.2348,21.9826
1185,-10.0782,-1.4562,-0.0383,-0.6957,-50.2957,23.0957
1190,-10.653,-1.1496,-0.2299,0.8348,-53.6348,23.9304
1195,-11.0363,-0.9197,-0.3066,2.0174,-56.5565,25.113
1200,-11.726,-0.6514,-0.1916,3.2,-59.6174,26.713
1205,-12.1475,-0.4598,-0.3449,4.313,-62.8174,27.8957
1210,-12.4924,-0.1533,-0.3832,5.7043,-66.8522,28.8696
1215,-12.8373,0.2299,-0.2299,7.3043,-72.2783,29.2174
1220,-13.4121,0.4598,-0.4215,9.0435,-79.2348,29.3565
1225,-14.0636,0.6514,-0.6514,10.7826,-86.887,29.0087
1230,-14.7533,0.7664,-0.7664,13.5652,-94.1913,28.4522
1235,-15.0982,0.7281,-0.7664,19.0609,-99.5478,30.1913
1240,-14.7533,0.7281,-0.7664,27.687,-101.7043,34.3652
1245,-13.8336,0.5365,-0.3066,37.3565,-100.5913,39.3739
1250,-12.6074,0.6898,0.3832,45.9826,-97.8087,45.0087
1255,-11.4195,0.4598,1.3029,51.5478,-95.0261,48.3478
1260,-11.3428,0.4215,1.8777,54.2609,-92.2435,48.7652
1265,-10.2315,0.1533,2.7974,55.1652,-88.9739,48.4174
1270,-9.9633,0.2682,2.7974,56.2087,-83.0609,46.1217
1275,-9.6567,0.3449,2.6441,57.113,-73.6696,42.3652
1280,-9.0436,0.3449,2.6824,56.0696,-61.9826,37.8435
1285,-8.0856,0.4215,2.6441,52.9391,-50.4348,33.3913
1290,-7.4725,0.7664,2.2226,47.8609,-38.8174,27.2
1295,-7.0126,1.3029,2.4142,40.4174,-26.7826,20.6609
1300,-5.8247,1.3795,2.1459,32.6261,-15.7913,15.3043
1305,-5.02,1.4562,2.2226,27.0609,-5.3565,9.8783
1310,-4.5984,1.8777,2.031,23.513,4.5913,5.1478
1315,-4.1003,2.2609,1.7244,19.7565,13.913,1.3913
1320,-4.2919,2.2609,1.4562,15.2348,21.4261,-1.9478
1325,-4.79,2.5675,1.5328,11.2,26.5739,-5.913
1330,-5.2499,2.9123,1.4562,9.113,28.5913,-10.3652
1335,-5.978,3.2189,1.5328,9.6696,28.0348,-14.6087
1340,-6.821,3.7554,1.4562,11.5478,25.2522,-18.9913
1345,-7.6257,4.3685,1.6861,12.8,20.6609,-22.7478
1350,-8.3155,4.9816,2.1076,11.4783,14.7478,-26.4348
1355,-9.0819,5.5564,2.4142,7.4435,8.0696,-29.9826
1360,-9.5034,5.8247,2.7974,1.2522,1.3913,-32.9739
1365,-10.0016,6.2845,3.1039,-6.5391,-4.5217,-35.7565
1370,-10.5381,6.5145,3.6404,-15.1652,-8.9739,-38.2609
1375,-10.9979,6.3229,4.2152,-23.4435,-10.7826,-40.6957
1380,-11.2279,6.2845,4.5984,-28.7304,-9.8783,-42.5739
1385,-11.6877,6.1696,4.6368,-30.4696,-6.5391,-43.9652
1390,-11.726,6.2462,4.1769,-28.8,-1.5304,-44.313
1395,-11.6111,6.3229,3.6021,-26.2957,5.6348,-43.9652
1400,-11.7643,6.2462,3.4488,-25.6,13.4957,-43.4087
1405,-11.6111,6.0163,3.4105,-27.9652,18.8522,-43.2
1410,-11.5727,5.7864,3.6021,-32.8348,19.687,-44.3826
1415,-11.4195,5.2882,3.9853,-37.913,15.4435,-46.887
1420,-11.1895,4.8667,3.947,-41.3913,6.8174,-50.4348
1425,-10.883,4.0236,4.1003,-43.0609,-2.8522,-54.4
1430,-10.4614,3.0273,4.3302,-41.9478,-9.4609,-57.6696
1435,-9.8483,2.2992,4.4068,-36.5913,-11.4087,-59.6174
1440,-9.1586,1.7244,4.0236,-27.687,-9.3217,-60.1739
1445,-8.5454,1.3029,3.6404,-18.713,-6.887,-60.0348
1450,-7.9323,1.0346,3.4488,-12.5913,-5.0087,-60.4522
1455,-7.5491,0.6898,3.1806,-10.9217,-3.1304,-61.7043
1460,-7.5108,0.4598,3.6021,-12.1739,-0.6261,-63.0957
1465,-7.5108,0.3066,4.062,-13.913,1.2522,-64.487
1470,-7.8173,0.4215,4.2919,-15.0957,0.6957,-64.9043
1475,-7.8173,0.3832,4.2536,-14.9565,-2.0174,-64.9739
1480,-7.9323,0.3449,4.1003,-13.6348,-5.7739,-65.1826
1485,-7.8173,0.4982,3.8704,-11.1304,-9.7391,-65.6696
1490,-7.5874,0.9963,3.1423,-7.6522,-12.5217,-66.2261
1495,-7.5108,1.7244,3.1423,-5.0783,-12.9391,-66.9913
1500,-7.4341,2.4525,2.874,-4.2435,-9.5304,-68.4522
1505,-7.4725,2.9507,2.5675,-5.0087,-2.713,-70.3304
1510,-7.894,3.1806,2.5675,-6.3304,5.7043,-71.2348
1515,-8.2389,3.8704,2.7591,-4.7304,13.7043,-71.2348
1520,-8.4305,4.1003,2.4908,-2.713,20.9391,-70.6087
1525,-8.8137,4.4835,3.4488,-3.2696,26.6435,-70.0522
1530,-9.1202,4.062,3.7937,-6.1217,34.0174,-69.287
1535,-9.3118,3.2572,3.6021,-8.3478,40.487,-68.1043
1540,-9.3118,2.5291,3.2189,-9.0435,45.2174,-66.9913
1545,-9.2352,1.4562,2.9123,-9.1826,51.3391,-66.5043
1550,-9.695,0.7664,2.6058,-8.6261,58.7826,-67.3391
1555,-9.8866,0.1533,1.916,-7.0957,65.7391,-68.8696
1560,-10.0016,-0.3066,0.6898,-4.2435,70.1217,-70.6783
1565,-10.0399,-0.2682,-0.2299,-3.0609,72.6957,-74.2957
1570,-10.3848,-0.4598,-0.4215,-5.913,75.2696,-78.6783
1575,-10.6147,-0.9963,-0.4215,-8.5565,76.5217,-82.6435
1580,-10.4614,-1.1113,-0.9197,-8.3478,77.3565,-87.7913
1585,-10.3465,-0.843,-1.0346,-8.4174,83.4087,-94.6783
1590,-10.5381,-0.3449,-0.5365,-13.7043,97.3913,-101.4261
1595,-10.7297,-0.4598,0.1533,-24.0,114.7826,-107.2
1600,-10.8446,-1.0346,0.9197,-35.5478,128.9739,-111.9304
1605,-10.653,-2.1076,0.7281,-42.1565,136.4174,-116.8
1610,-10.3082,-2.7207,0.115,-43.8261,138.713,-121.4609
1615,-9.8483,-3.6021,-0.5365,-43.2696,139.2696,-125.5652
1620,-9.1202,-4.1003,-0.2682,-41.8783,138.3652,-128.8348
1625,-8.2005,-4.9816,-0.0383,-39.0261,135.0957,-131.2
1630,-7.5491,-5.5948,0.0766,-32.4174,129.1826,-132.3826
1635,-7.5491,-5.5948,-0.0383,-21.0087,123.0609,-133.0087
1640,-8.6221,-4.7517,0.4982,-10.4348,117.6348,-134.5391
1645,-9.9633,-3.7554,0.3449,-6.1217,112.5565,-136.2087
1650,-11.3045,-2.5675,-0.115,-9.2522,109.4261,-135.7913
1655,-11.8793,-2.2992,0.2682,-16.9739,106.8522,-133.287
1660,-12.4924,-2.3375,0.7281,-23.6522,101.7043,-130.5739
1665,-12.3775,-2.7591,1.1113,-26.2957,91.7565,-128.487
1670,-11.8793,-2.7591,0.6131,-24.8348,79.0261,-127.3739
1675,-11.3428,-2.6824,0.3449,-22.2609,65.6,-126.4696
1680,-10.9213,-2.7591,0.2682,-21.7739,53.6348,-125.913
1685,-10.9979,-3.1039,0.8047,-23.513,43.3391,-126.4
1690,-10.883,-3.4488,1.1879,-24.2783,34.9217,-127.8609
1695,-10.883,-3.7554,1.1496,-22.6783,28.5217,-128.9043
1700,-10.6914,-3.8704,0.9963,-19.2,23.5826,-128.9739
1705,-10.3465,-3.832,0.5365,-13.8435,19.8261,-127.7217
1710,-10.1166,-3.8704,0.1533,-8.5565,15.5826,-125.913
1715,-9.6567,-3.4105,0.3066,-4.6609,10.1565,-124.2435
1720,-9.8866,-3.2189,0.4982,-2.713,4.313,-122.9217
1725,-9.1586,-2.874,0.3832,-2.8522,-1.8783,-121.2522
1730,-9.0436,-2.5675,0.3832,-3.687,-7.513,-120.4174
1735,-8.8903,-2.5291,0.5748,-4.8696,-12.8,-120.2087
1740,-9.0053,-2.5675,0.5748,-6.4,-18.7826,-120.1391
1745,-8.967,-2.874,0.115,-8.0,-25.1826,-119.9304
1750,-8.9286,-3.1039,-0.2682,-9.6,-31.7217,-119.513
1755,-8.967,-3.2955,-0.5365,-10.9217,-38.0522,-119.3043
1760,-8.7754,-3.4105,-0.8814,-11.5478,-44.0348,-119.3043
1765,-8.9286,-3.6787,-1.4562,-12.5913,-48.4174,-119.1652
1770,-8.852,-3.6404,-1.8777,-14.8174,-51.6174,-118.6783
1775,-8.737,-4.1003,-2.0693,-18.1565,-54.5391,-117.913
1780,-8.3538,-4.4835,-2.4142,-21.0783,-57.6696,-116.8
1785,-7.8557,-4.5984,-2.5291,-23.6522,-59.5478,-115.4087
1790,-7.3958,-4.6751,-2.2992,-26.713,-58.6435,-114.1565
1795,-6.7061,-5.2116,-2.031,-29.5652,-54.5391,-113.0435
1800,-6.1696,-5.4032,-1.9927,-30.6783,-48.1391,-112.1391
1805,-5.6714,-5.4032,-2.1076,-30.7478,-41.113,-110.9565
1810,-5.5181,-5.3648,-2.1459,-31.2348,-34.9913,-110.7478
1815,-5.4032,-5.5181,-1.916,-32.487,-30.0522,-111.5826
1820,-5.7097,-5.3265,-1.7244,-33.5304,-25.6696,-113.3913
1825,-5.9396,-5.7864,-1.6478,-33.7391,-21.5652,-114.7826
1830,-6.5528,-5.4798,-1.8011,-34.2261,-17.4609,-115.6174
1835,-7.0509,-5.7097,-1.8777,-34.713,-13.6348,-115.8957
1840,-7.3575,-5.8247,-1.916,-35.2,-9.6696,-115.0609
1845,-7.5108,-6.2079,-1.8394,-35.8261,-5.913,-114.0174
1850,-7.6257,-6.5911,-1.8011,-36.4522,-2.4348,-113.2522
1855,-7.5491,-7.0509,-1.916,-36.7304,0.2087,-112.9043
1860,-7.3575,-7.2042,-2.4525,-36.6609,2.4348,-112.487
1865,-6.9743,-7.4341,-2.4142,-37.287,4.1739,-112.487
1870,-6.3995,-7.5874,-2.0693,-38.4696,6.0522,-112.8348
1875,-5.978,-7.894,-1.4562,-39.7217,8.1391,-113.6
1880,-5.6714,-8.2389,-0.8047,-40.0696,10.2261,-114.6435
1885,-5.2882,-8.5454,-0.1916,-39.3043,11.7565,-116.4522
1890,-5.0583,-8.737,0.0,-37.7043,11.9652,-118.8174
1895,-5.02,-8.8903,-0.0383,-35.0609,10.9913,-120.9739
1900,-5.2116,-8.6221,0.0,-31.9304,9.9478,-123.1304
1905,-5.3648,-8.3921,0.2299,-28.313,8.9043,-124.9391
1910,-5.3648,-8.2772,0.4215,-25.3913,6.6087,-125.7739
1915,-5.3265,-8.0856,0.3832,-21.7043,2.8522,-126.3304
1920,-5.3648,-7.6257,0.3066,-17.8783,-1.7391,-127.1652
1925,-5.5564,-7.0893,0.115,-14.9565,-6.7478,-127.7217
1930,-5.5948,-6.7444,-0.1533,-12.7304,-10.3652,-128.487
1935,-5.7864,-6.7444,-0.115,-11.4087,-14.7478,-129.0435
1940,-5.9013,-6.3612,-0.0766,-10.9217,-19.0609,-129.4609
1945,-6.0929,-6.3612,-0.1533,-10.7826,-23.2348,-129.8783
1950,-6.1696,-6.3229,-0.3832,-10.713,-27.0609,-130.1565
1955,-6.2079,-6.2845,-0.3832,-11.1304,-30.6087,-129.8087
1960,-6.2845,-6.3995,-0.2299,-11.7565,-34.2957,-128.8348
1965,-6.2845,-6.5145,-0.5748,-11.8957,-38.1913,-127.5826
1970,-6.0929,-6.7444,-0.7281,-11.6174,-41.8087,-126.4
1975,-6.0929,-6.7827,-0.9197,-11.4783,-44.8,-124.8696
1980,-6.1313,-7.0126,-1.0346,-11.8957,-47.3739,-123.6174
1985,-6.2079,-7.1276,-1.0346,-13.0783,-49.6696,-122.5043
1990,-6.0929,-7.5491,-0.7664,-14.2609,-51.4087,-121.4609
1995,-6.0929,-7.779,-0.8047,-14.7478,-53.0087,-120.2783
2000,-5.8247,-8.2005,-0.7281,-14.6087,-54.5391,-119.2348
2005,-5.6331,-8.5838,-0.6898,-14.0522,-55.7913,-118.2609
2010,-5.4032,-8.8903,-0.6898,-13.5652,-56.4174,-116.9391
2015,-5.0966,-9.2735,-0.7281,-12.3826,-56.7652,-115.0609
2020,-4.8284,-9.5034,-0.7664,-10.3652,-56.7652,-113.1826
2025,-4.5984,-9.7717,-0.6898,-7.0957,-56.9043,-110.5391
2030,-4.3302,-9.8483,-0.8814,-2.713,-57.113,-107.4087
2035,-4.0236,-9.6567,-0.8814,1.6,-57.1826,-104.2783
2040,-4.0236,-9.6567,-0.5748,5.1478,-57.4609,-101.0783
2045,-3.5638,-9.4651,-0.7664,8.0,-57.8783,-97.8783
2050,-3.4871,-9.3885,-0.6131,11.0609,-58.6435,-94.8174
2055,-3.2572,-9.2352,-0.3066,14.2609,-59.6174,-92.1739
2060,-3.2572,-9.1202,-0.1916,17.6696,-60.6609,-89.8087
2065,-3.4871,-8.852,-0.3832,20.8,-61.8435,-87.5826
2070,-3.6021,-8.5071,-0.5365,22.887,-63.2348,-85.4957
2075,-3.832,-8.3155,-0.8814,23.2348,-64.9043,-83.5478
2080,-3.9087,-8.1622,-0.7664,22.4,-66.713,-81.3913
2085,-3.7554,-8.1239,-0.7664,20.4522,-67.4783,-79.513
2090,-3.6404,-8.3538,-0.6514,17.8783,-66.9913,-77.7043
2095,-3.2189,-8.7754,-0.0383,14.9565,-65.6696,-76.1739
2100,-3.1039,-9.0053,0.2299,12.8696,-63.5826,-75.2
2105,-2.7207,-9.4268,0.3449,11.8957,-61.287,-74.4348
2110,-2.6058,-9.5418,0.3449,11.2696,-58.8522,-74.1565
2115,-2.4525,-9.8483,0.2682,10.713,-56.3478,-74.1565
2120,-2.3759,-9.8483,0.3449,9.9478,-53.287,-74.5739
2125,-2.3759,-10.0016,0.3066,9.6,-49.9478,-75.2696
2130,-2.2992,-9.925,0.3449,9.1826,-47.2348,-76.313
2135,-2.4142,-9.7717,0.3449,9.0435,-45.7739,-77.7043
2140,-2.3375,-9.8483,0.3066,9.3217,-45.4957,-79.2348
2145,-2.2226,-9.4651,0.2299,9.7391,-45.9826,-80.9043
2150,-2.1843,-9.5034,0.4598,10.5739,-46.1913,-82.7826
2155,-2.1459,-9.4651,0.6898,12.3826,-46.4,-84.8696
2160,-2.2226,-9.3118,0.7281,15.3043,-46.5391,-86.6783
2165,-2.031,-9.1969,0.9197,19.0609,-46.3304,-88.1391
2170,-2.3759,-9.0819,1.073,23.0957,-45.6348,-89.113
2175,-2.4142,-8.8903,1.073,26.8522,-44.5217,-89.6
2180,-2.5291,-8.5071,0.9963,29.3565,-43.2696,-90.0174
2185,-2.4525,-8.3921,0.843,30.8174,-42.1565,-90.0174
2190,-2.4908,-8.4305,1.1496,31.1652,-40.8348,-89.8783
2195,-2.4908,-8.3921,1.0346,30.7478,-39.5826,-89.6696
2200,-2.2992,-8.4688,1.1879,29.1478,-38.887,-89.3913
2205,-2.1459,-8.5838,1.1496,26.8522,-38.4696,-89.3217
2210,-1.9543,-8.6987,1.1879,24.0,-38.6783,-89.7391
2215,-1.6861,-9.1202,1.1113,21.1478,-38.9565,-90.5739
2220,-1.4179,-9.2735,0.9197,19.3391,-39.4435,-92.0348
2225,-1.2646,-9.4268,0.9197,17.9478,-40.0,-93.913
2230,-0.9963,-9.695,0.958,16.7652,-40.6957,-95.513
2235,-0.8814,-9.8866,1.0346,16.6261,-40.6261,-97.0435
2240,-0.6898,-10.3082,1.1496,17.4609,-39.513,-98.2261
2245,-0.6131,-10.6147,1.0346,18.1565,-37.4261,-99.2696
2250,-0.4215,-10.4614,1.4945,17.9478,-35.0609,-99.9652
2255,-0.4598,-11.3045,1.1879,16.5565,-32.487,-100.6609
2260,-0.0766,-11.1895,0.9197,13.913,-29.7739,-101.287
2265,-0.3449,-11.3811,0.843,10.4348,-26.9913,-101.6348
2270,-0.0383,-11.4961,0.5748,6.3304,-24.0696,-101.5652
2275,0.0383,-11.8027,0.4598,1.9478,-21.5652,-100.7304
2280,0.1916,-11.9559,0.2682,-1.2522,-19.2,-99.3391
2285,0.4215,-12.0709,0.4982,-2.087,-16.2783,-97.6696
2290,0.6898,-12.3008,0.8814,0.1391,-12.2435,-95.0957
2295,1.1879,-12.5691,1.3412,4.5913,-7.0261,-92.0348
2300,1.2263,-12.7607,1.8011,10.6435,-0.2783,-88.3478
2305,1.5328,-12.5691,1.8777,14.887,8.0696,-83.2696
2310,1.5711,-12.4541,1.8394,16.4174,17.7391,-76.8
2315,1.8777,-11.9559,1.3795,12.5913,27.687,-69.0783
2320,2.1843,-11.6111,0.958,4.0348,34.7826,-61.0783
2325,2.3375,-11.3811,0.5748,-5.4261,41.3913,-54.3304
2330,2.4525,-11.3428,0.6898,-11.1304,44.5217,-49.113
2335,2.5675,-11.0363,0.9963,-10.7826,45.7739,-46.3304
2340,2.6824,-10.6147,1.2646,-5.9826,46.887,-44.1739
2345,2.9123,-10.0016,1.7244,1.6,48.8348,-43.5478
2350,2.989,-9.2352,1.7244,9.3217,50.8522,-43.9652
2355,2.5291,-8.3921,1.4562,15.0261,52.2435,-45.287
2360,2.6441,-7.8173,1.1879,16.6261,51.687,-46.6783
2365,2.4908,-7.3958,0.5365,13.3565,48.3478,-48.2087
2370,1.9543,-7.1276,-0.0766,5.0087,42.087,-49.9478
2375,1.3412,-7.0893,-0.6131,-6.2609,34.1565,-51.4087
2380,0.7664,-7.3958,-0.7664,-17.8783,26.5739,-52.0348
2385,0.1533,-7.8557,-0.6514,-27.6174,20.5913,-51.9652
2390,0.0383,-8.2772,-0.2682,-35.0609,16.6261,-51.1304
2395,0.0383,-8.8903,0.2682,-40.4174,14.1217,-50.4348
2400,0.2299,-9.2735,0.6898,-43.8957,12.5913,-50.0174
2405,0.6131,-9.5034,0.9963,-45.5652,10.9913,-49.8087
2410,0.958,-9.5801,1.3029,-45.9826,10.087,-49.5304
2415,1.4179,-9.5801,1.4562,-44.6609,10.0174,-48.9043
2420,1.6095,-9.7717,1.6095,-41.8087,10.087,-47.5826
2425,1.8394,-9.6567,1.4562,-37.6348,10.0174,-45.7043
2430,2.031,-9.6567,1.2646,-33.3913,9.6,-43.4087
2435,2.1076,-9.8483,1.4179,-29.4261,9.1826,-40.8348
2440,2.2226,-9.925,1.5711,-26.0174,9.6,-38.4
2445,2.4525,-10.3082,1.6861,-23.6522,10.3652,-36.2435
2450,2.4525,-10.4614,1.916,-21.7043,11.9652,-34.2957
2455,2.5291,-10.5764,2.0693,-19.4087,14.2609,-33.1826
2460,2.5675,-10.8063,2.1843,-16.6957,16.2087,-32.487
2465,2.6058,-10.7297,2.2992,-13.1478,17.3217,-32.3478
2470,2.4525,-10.653,2.1843,-8.6957,17.3217,-32.487
2475,2.2992,-10.4231,1.9543,-3.9652,16.8348,-32.4174
2480,2.2992,-10.1932,1.9927,0.5565,15.7913,-32.2087
2485,1.916,-9.6567,1.7627,4.0348,14.5391,-31.513
2490,1.6861,-9.4268,1.7244,6.2609,13.4261,-30.6087
2495,1.6095,-9.2352,1.6478,6.9565,12.1043,-29.4957
2500,1.3029,-9.0053,1.3795,6.7478,10.8522,-28.4522
2505,0.9963,-8.9286,1.3412,5.9826,9.6,-27.4087
2510,0.843,-8.9286,1.1879,5.2174,8.5565,-26.2957
2515,0.6514,-8.967,0.9963,4.3826,7.3739,-25.113
2520,0.2682,-9.1202,0.8814,3.7565,6.4,-24.0
2525,0.3449,-9.3118,0.843,3.687,5.4957,-23.0261
2530,0.2682,-9.3502,1.0346,4.313,4.5913,-22.4696
2535,0.4215,-9.5801,1.1113,5.6348,3.8957,-22.0522
2540,0.4982,-9.5418,1.2263,7.4435,3.5478,-22.1217
2545,0.6131,-9.5418,1.073,9.2522,3.5478,-22.6087
2550,0.9197,-9.5801,1.2263,10.8522,4.0348,-23.3739
2555,0.843,-9.5801,1.1113,12.1739,4.313,-24.2783
2560,1.073,-9.5418,0.9963,13.6348,3.9652,-25.2522
2565,1.1113,-9.6184,1.0346,14.7478,3.2,-26.5043
2570,1.1879,-9.5418,0.843,15.2348,2.2261,-27.7565
2575,1.1879,-9.5034,0.4598,14.6783,1.113,-28.6609
2580,1.2263,-9.5418,0.8814,13.287,-0.6261,-29.287
2585,1.1879,-9.6184,0.843,11.4087,-2.713,-29.7739
2590,1.3795,-9.695,0.9197,9.3913,-4.9391,-30.0522
2595,1.5328,-9.6567,0.843,7.5826,-6.9565,-29.913
2600,1.5328,-9.5801,0.6898,5.9826,-8.4174,-29.4957
2605,1.8394,-9.7334,0.8814,4.6609,-9.1826,-28.9391
2610,1.916,-9.5801,0.8047,3.8261,-9.6696,-27.687
2615,2.1076,-9.5418,0.7281,3.4087,-9.8087,-26.4348
2620,2.1076,-9.4268,0.8047,2.713,-9.8783,-25.2522
2625,2.1076,-9.3118,0.7281,1.7391,-9.9478,-23.7217
2630,2.4142,-9.2352,0.7281,0.5565,-9.8087,-22.3304
2635,2.4142,-9.1586,0.843,-0.3478,-9.3913,-21.287
2640,2.4908,-9.3502,0.8047,-0.4174,-8.9043,-20.5217
2645,2.4525,-9.1969,0.958,0.2783,-8.3478,-19.8957
2650,2.4142,-9.3502,1.073,1.5304,-7.8609,-19.2696
2655,2.5291,-9.3118,0.8814,2.9217,-7.0261,-18.713
2660,2.4908,-9.1969,1.0346,3.7565,-5.9826,-17.8087
2665,2.5291,-9.1969,0.958,3.8261,-4.5217,-17.2522
2670,2.5291,-9.2352,0.958,3.687,-3.2,-16.6957
2675,2.5291,-9.3118,0.7281,3.1304,-2.087,-16.2783
2680,2.6441,-9.1586,0.7664,2.5043,-1.0435,-15.7913
2685,2.4908,-9.4268,0.9197,2.1565,0.0,-15.1652
2690,2.4525,-9.3118,0.9963,2.2957,0.9043,-14.7478
2695,2.4908,-9.2352,0.8047,2.2261,1.5304,-14.4696
2700,2.4908,-9.3502,0.7281,1.8783,2.1565,-13.5652
2705,2.5675,-9.5034,0.8814,1.3217,3.0609,-12.6609
2710,2.6058,-9.3502,0.9197,1.113,4.313,-11.9652
2715,2.6058,-9.4651,0.6514,1.113,5.6348,-11.2
2720,2.6441,-9.3502,0.9963,1.5304,6.6783,-10.4348
2725,2.4525,-9.3502,0.9963,2.4348,7.513,-9.6696
2730,2.5291,-9.3118,0.9963,3.4087,7.8609,-8.9043
2735,2.6058,-9.3502,0.958,4.1043,8.1391,-8.2783
2740,2.5675,-9.3885,1.0346,4.3826,8.2087,-7.4435
2745,2.3375,-9.2735,0.6898,3.8957,8.0,-6.9565
2750,2.4525,-9.3118,0.8047,2.713,7.7217,-6.5391
2755,2.3759,-9.3885,0.8047,1.4609,7.3739,-6.4
2760,2.3759,-9.4268,0.7281,0.3478,7.0261,-6.1217
2765,2.2992,-9.3885,0.7664,-0.6261,6.6087,-5.8435
2770,2.4142,-9.4651,0.8814,-1.1826,6.0522,-5.4261
2775,2.3375,-9.4651,0.7281,-1.3217,5.5652,-5.1478
2780,2.3375,-9.4651,0.8814,-1.2522,5.0087,-4.8696
2785,2.4525,-9.5418,0.843,-0.9739,5.0087,-4.313
2790,1.9927,-9.4651,0.6898,-0.6957,5.287,-4.2435
2795,2.2992,-9.7334,0.7664,-0.487,5.7739,-4.1739
2800,2.2609,-9.8483,1.0346,-0.487,6.1217,-4.5217
2805,2.1843,-9.8866,1.073,-0.9043,6.1913,-4.8
2810,2.2226,-9.9633,0.843,-1.1826,5.9826,-5.0783
2815,2.1843,-10.0016,0.9963,-1.5304,5.5652,-5.4261
2820,2.3375,-10.0399,0.8814,-1.6696,5.1478,-5.4261
2825,2.2609,-9.8866,1.0346,-1.6,5.0783,-5.4261
2830,2.1843,-9.81,0.9963,-1.5304,4.9391,-5.5652
2835,2.2609,-9.7717,1.073,-1.4609,4.3826,-5.7043
2840,2.0693,-9.5418,1.1879,-1.7391,3.8957,-5.9826
2845,2.0693,-9.6184,0.7664,-2.2957,3.8957,-6.5391
2850,2.031,-9.5801,0.6898,-2.9217,4.7304,-7.1652
2855,1.8394,-9.5801,0.4982,-3.687,6.4696,-7.7913
2860,1.8011,-9.5034,0.3449,-4.313,8.6957,-8.5565
2865,1.6478,-9.5418,0.4598,-4.5217,10.9217,-9.5304
2870,1.7244,-9.5418,0.4598,-4.2435,12.2435,-10.4348
2875,1.6478,-9.4268,0.6514,-3.7565,12.3826,-11.4783
2880,1.5328,-9.2352,0.7281,-3.2696,11.7565,-12.2435
2885,1.5711,-9.2735,0.843,-2.8522,10.5043,-12.7304
2890,1.6095,-9.1586,0.6514,-2.9913,9.4609,-13.0783
2895,1.4945,-8.852,0.6514,-3.8261,9.113,-13.3565
2900,1.3795,-8.7754,0.4598,-5.2174,9.3217,-13.4957
2905,1.6478,-8.852,0.8047,-6.5391,9.9478,-12.5913
2910,1.6478,-8.9286,0.7281,-7.6522,10.6435,-11.2696
2915,1.7627,-9.0436,0.9197,-8.6261,11.3391,-9.9478
2920,1.8777,-9.1586,1.4562,-9.3217,12.1043,-8.487
2925,1.9543,-9.4651,1.3795,-10.2957,12.7304,-7.0261
2930,1.9927,-9.4651,1.3412,-11.5478,12.5913,-5.7739
2935,1.916,-9.5801,1.1496,-12.9391,11.6174,-4.6609
2940,1.9927,-9.695,1.2263,-13.7739,10.5739,-3.4087
2945,1.9927,-9.81,1.2263,-13.8435,9.4609,-1.9478
2950,1.9927,-9.8866,1.1113,-13.2174,8.5565,-0.6261
2955,1.9927,-9.925,1.2646,-12.2435,7.7217,0.6957
2960,1.8011,-9.6184,1.1496,-11.3391,7.3043,2.087
2965,1.9927,-9.7334,1.1113,-10.6435,6.9565,3.2696
2970,2.031,-9.6184,1.2263,-10.2261,6.7478,4.5217
2975,1.916,-9.5034,1.3029,-10.2957,6.7478,5.4957
2980,1.916,-9.4651,1.1879,-10.6435,6.6783,6.4
2985,1.9927,-9.4651,1.2646,-11.2,6.6087,7.3043
2990,1.916,-9.3885,1.2263,-11.6174,6.1217,7.9304
2995,2.0693,-9.5034,1.3412,-11.687,5.4957,8.5565
