timestamp,accX,accY,accZ,gyroX,gyroY,gyroZ
0,0.0766,-10.0782,1.5711,-0.4174,5.1478,-1.3913
5,0.0766,-10.1549,1.6478,-0.5565,5.4261,-1.4609
10,0.0766,-10.2698,1.5328,-0.6957,5.3565,-1.3217
15,0.0766,-10.1549,1.6478,-0.6957,5.287,-1.1826
20,0.2682,-10.2315,1.6478,-0.6957,5.0783,-1.0435
25,0.1916,-10.1166,1.5328,-0.4174,4.7304,-0.9739
30,0.1533,-10.1932,1.6095,-0.2783,4.4522,-0.9043
35,0.1533,-10.2315,1.7244,-0.0696,4.1739,-0.6957
40,0.1533,-10.2315,1.6095,0.0696,3.8261,-0.5565
45,0.1533,-10.1166,1.6095,0.0696,3.4087,-0.487
50,0.2299,-10.1166,1.6095,0.0,3.2,-0.487
55,0.1916,-10.0782,1.6861,0.0696,2.9217,-0.4174
60,0.3066,-10.1166,1.6478,0.0696,2.6435,-0.2783
65,0.2299,-10.0399,1.7244,0.1391,2.5739,-0.1391
70,0.3066,-10.0016,1.7244,0.2087,2.4348,-0.0696
75,0.2682,-10.0399,1.7627,0.487,2.2957,-0.2087
80,0.3449,-10.0399,1.9543,0.5565,2.1565,-0.2783
85,0.1916,-10.1166,1.8011,0.6957,2.2261,-0.2783
90,0.3832,-10.0782,1.6861,0.7652,2.1565,-0.2087
95,0.2682,-10.0399,1.8777,0.8348,2.1565,-0.3478
100,0.1916,-9.925,1.6861,0.8348,2.2261,-0.4174
105,0.2299,-10.0782,1.6861,0.7652,2.2957,-0.487
110,0.2682,-9.9633,1.6861,0.7652,2.3652,-0.3478
115,0.2682,-10.0782,1.6861,0.7652,2.5739,-0.4174
120,0.1916,-10.0399,1.7627,0.5565,2.713,-0.487
125,0.3066,-10.0016,1.7627,0.3478,2.8522,-0.4174
130,0.2299,-10.0016,1.7627,0.3478,2.9913,-0.5565
135,0.2682,-10.0399,1.7244,0.2087,3.2696,-0.6957
140,0.3066,-10.0399,1.6478,0.2087,3.3391,-0.7652
145,0.2299,-9.925,1.7627,0.1391,3.4087,-0.9739
150,0.1533,-9.9633,1.7244,0.0696,3.4087,-1.0435
155,0.3066,-10.0782,1.7627,0.0,3.4087,-1.0435
160,0.2299,-9.8866,1.6478,-0.0696,3.4087,-1.1826
165,0.3066,-10.0399,1.7244,-0.1391,3.4087,-1.3217
170,0.2682,-10.0399,1.7627,-0.1391,3.5478,-1.2522
175,0.2299,-10.0782,1.7244,-0.2087,3.6174,-1.3913
180,0.2299,-10.1166,1.6861,-0.3478,3.6174,-1.3913
185,0.115,-10.0399,1.7244,-0.4174,3.6174,-1.3913
190,0.4215,-10.0399,1.7627,-0.5565,3.6174,-1.3913
195,0.1533,-10.0399,1.8011,-0.6957,3.6174,-1.2522
200,0.2299,-10.0399,1.7627,-0.7652,3.5478,-1.2522
205,0.1916,-9.9633,1.8011,-1.0435,3.6174,-1.113
210,0.1916,-9.9633,1.7244,-1.1826,3.6174,-1.0435
215,0.1533,-10.0782,1.6861,-1.3217,3.7565,-0.7652
220,0.1916,-10.0016,1.6095,-1.4609,3.8957,-0.6261
225,0.2299,-10.0782,1.6095,-1.4609,3.8957,-0.5565
230,0.2682,-10.1549,1.6861,-1.6,3.9652,-0.3478
235,0.2682,-10.1549,1.7244,-1.7391,4.0348,-0.4174
240,0.3066,-10.0399,1.8011,-1.9478,3.8957,-0.2783
245,0.2682,-10.0016,1.6478,-2.1565,3.8957,-0.2783
250,0.115,-10.1166,1.6861,-2.3652,3.7565,-0.2783
255,0.2299,-10.1166,1.7244,-2.5043,3.687,-0.2783
260,0.2682,-9.9633,1.6478,-2.6435,3.6174,-0.3478
265,0.2682,-10.0782,1.7244,-2.713,3.5478,-0.4174
270,0.2682,-10.1166,1.5328,-2.5739,3.6174,-0.2783
275,0.3449,-10.0782,1.6861,-2.4348,3.6174,-0.4174
280,0.2299,-9.925,1.8011,-2.2957,3.7565,-0.4174
285,0.3066,-10.0782,1.6861,-2.2261,3.7565,-0.4174
290,0.4215,-10.1549,1.6861,-2.0174,3.687,-0.5565
295,0.4215,-9.925,1.3795,-2.0174,3.8957,-0.5565
300,0.3832,-10.0016,1.6478,-1.8783,3.9652,-0.4174
305,0.4215,-10.0016,1.6861,-1.8783,3.9652,-0.5565
310,0.3066,-10.0399,1.6478,-1.7391,3.9652,-0.5565
315,0.3066,-10.0399,1.6095,-1.7391,4.1739,-0.6957
320,0.3449,-10.1166,1.5328,-1.7391,4.2435,-0.7652
325,0.2682,-10.0782,1.6095,-1.8087,4.3826,-0.7652
330,0.3066,-10.1549,1.6478,-1.8087,4.3826,-0.8348
335,0.2682,-10.0016,1.6478,-1.8783,4.3826,-0.8348
340,0.3066,-10.0399,1.6478,-1.9478,4.313,-0.9739
345,0.1916,-10.0399,1.8394,-1.9478,4.1739,-1.0435
350,0.3066,-10.1166,1.7244,-1.8783,4.2435,-0.9043
355,0.3066,-10.1549,1.6478,-1.7391,4.1739,-0.9043
360,0.2299,-10.0016,1.8777,-1.5304,4.2435,-0.9739
365,0.1916,-10.0782,1.7627,-1.2522,4.2435,-0.9739
370,0.1533,-9.9633,1.6861,-1.113,4.2435,-0.9043
375,0.1916,-10.0016,1.8011,-1.0435,4.2435,-0.8348
380,0.1916,-10.0782,1.6095,-0.8348,4.313,-0.7652
385,0.2682,-10.1549,1.7627,-0.8348,4.4522,-0.6957
390,0.2682,-10.0782,1.5328,-0.8348,4.5217,-0.6261
395,0.3832,-10.0016,1.8777,-0.6957,4.4522,-0.487
400,0.2682,-10.0782,1.7627,-0.7652,4.4522,-0.4174
405,0.1533,-10.1166,1.6095,-0.9739,4.3826,-0.487
410,0.2682,-10.1166,1.6478,-1.1826,4.3826,-0.487
415,0.2682,-10.0016,1.6095,-1.3217,4.3826,-0.4174
420,0.2299,-10.0399,1.8394,-1.3913,4.3826,-0.2783
425,0.2682,-10.0399,1.6861,-1.5304,4.313,-0.2783
430,0.1916,-9.9633,1.6095,-1.6,4.2435,-0.1391
435,0.1533,-10.1549,1.7244,-1.6,4.2435,-0.1391
440,0.2682,-9.925,1.6861,-1.5304,4.1739,-0.2783
445,0.3449,-10.0399,1.8011,-1.5304,4.313,-0.2783
450,0.3449,-10.0016,1.6095,-1.3913,4.2435,-0.2783
455,0.2299,-10.0782,1.5711,-1.3913,4.2435,-0.2087
460,0.1916,-10.1166,1.5711,-1.4609,4.2435,-0.2783
465,0.3449,-10.0782,1.4179,-1.4609,4.1739,-0.3478
470,0.4215,-10.1166,1.7244,-1.5304,4.2435,-0.3478
475,0.2682,-10.1166,1.6861,-1.3913,4.1739,-0.2783
480,0.3449,-10.1549,1.6095,-1.3217,4.313,-0.2087
485,0.3066,-10.0399,1.7244,-1.3217,4.5217,-0.2783
490,0.2682,-10.1166,1.6478,-1.1826,4.6609,-0.2087
495,0.3832,-10.0399,1.7627,-1.113,4.8,-0.2087
500,0.1916,-10.0016,1.6095,-0.9739,4.8696,-0.2087
505,0.4215,-10.1166,1.6478,-0.7652,5.0783,-0.0696
510,0.4215,-9.9633,1.7627,-0.7652,5.0783,-0.0696
515,0.3449,-9.9633,1.6861,-0.6957,5.0783,0.0
520,0.3449,-10.0399,1.7244,-0.6261,5.0783,0.0696
525,0.1916,-10.1166,1.6861,-0.6957,5.0087,0.0696
530,0.2682,-10.1549,1.6478,-0.5565,5.0087,-0.0696
535,0.3832,-10.0399,1.6861,-0.5565,4.8696,0.0696
540,0.3066,-10.1549,1.6478,-0.487,4.8,0.0
545,0.2682,-10.0399,1.6478,-0.3478,4.8696,0.0
550,0.2299,-10.1549,1.7627,-0.4174,4.8,-0.0696
555,0.3449,-10.0399,1.7627,-0.3478,4.7304,0.0
560,0.2299,-10.0782,1.6478,-0.2783,4.7304,-0.0696
565,0.1916,-10.0782,1.7244,-0.0696,4.7304,0.0
570,0.3449,-10.0782,1.6095,0.0696,4.8696,0.0
575,0.3449,-10.1166,1.5711,0.1391,4.8696,0.0
580,0.2682,-10.0399,1.6095,0.2087,4.9391,-0.1391
585,0.3066,-10.1166,1.6095,0.2783,4.8696,-0.1391
590,0.3066,-10.0399,1.7627,0.2087,4.9391,-0.2087
595,0.2682,-10.0016,1.6478,0.2087,4.8696,-0.2087
600,0.3066,-10.1166,1.4945,0.2087,4.8696,-0.2087
605,0.2299,-10.0782,1.6478,0.2783,4.7304,-0.3478
610,0.3449,-10.1166,1.6095,0.4174,4.7304,-0.3478
615,0.3066,-10.0399,1.5328,0.487,4.7304,-0.4174
620,0.4215,-10.0782,1.5711,0.5565,4.8,-0.4174
625,0.3449,-10.0016,1.6478,0.6957,4.5913,-0.487
630,0.3449,-10.0016,1.6478,0.8348,4.7304,-0.6261
635,0.1916,-10.0782,1.7244,0.9739,4.7304,-0.6261
640,0.3449,-10.0399,1.5711,1.113,4.8,-0.5565
645,0.3449,-10.0399,1.6861,1.1826,4.7304,-0.487
650,0.2299,-10.0016,1.5711,1.2522,4.7304,-0.4174
655,0.2299,-9.9633,1.6478,1.1826,4.8,-0.4174
660,0.2682,-10.0016,1.6478,1.2522,4.8696,-0.4174
665,0.2682,-10.0782,1.6478,1.1826,4.8696,-0.487
670,0.2682,-10.0399,1.6095,1.1826,4.8696,-0.4174
675,0.2682,-9.8866,1.6095,1.113,4.9391,-0.487
680,0.1533,-9.925,1.8394,1.0435,5.0783,-0.5565
685,0.3066,-10.0782,1.7627,1.113,5.0783,-0.6261
690,0.2682,-10.0399,1.6861,1.0435,5.1478,-0.6261
695,0.3066,-10.0782,1.8011,1.0435,5.1478,-0.6957
700,0.1533,-10.0016,1.7627,1.0435,5.1478,-0.7652
705,0.2299,-10.0399,1.8011,1.1826,5.1478,-0.7652
710,0.1916,-10.0399,1.6478,1.1826,5.2174,-0.8348
715,0.3449,-9.9633,1.6861,1.1826,5.287,-0.7652
720,0.2299,-10.1549,1.9543,1.2522,5.2174,-0.8348
725,0.2299,-10.0399,1.7244,1.2522,5.2174,-0.7652
730,0.3066,-10.0399,1.6861,1.2522,5.2174,-0.8348
735,0.3066,-10.1549,1.8011,1.3217,5.0783,-0.7652
740,0.2682,-10.0399,1.8394,1.2522,5.0783,-0.8348
745,0.3449,-10.0782,1.6478,1.1826,5.1478,-0.8348
750,0.2682,-10.0016,1.7244,1.113,5.0783,-0.9043
755,0.3832,-10.0782,1.7244,1.113,5.0087,-0.7652
760,0.3066,-10.0782,1.7627,1.113,5.0087,-0.6957
765,0.3449,-9.9633,1.8011,0.9739,5.0783,-0.6957
770,0.2682,-9.8866,1.916,1.0435,5.1478,-0.7652
775,0.3066,-10.1549,1.8394,1.0435,5.0087,-0.6957
780,0.2682,-9.8866,1.916,0.9739,4.8696,-0.6261
785,0.2299,-10.0399,1.916,0.9043,4.9391,-0.5565
790,0.1916,-9.925,1.7627,0.7652,4.9391,-0.487
795,0.2682,-10.0399,1.8777,0.6261,4.8696,-0.4174
800,0.2299,-10.0782,1.7627,0.6261,4.8696,-0.3478
805,0.3066,-10.0399,1.8394,0.5565,4.9391,-0.2783
810,0.3066,-10.0782,1.8394,0.5565,4.9391,-0.2783
815,0.3066,-10.0399,1.8011,0.487,4.9391,-0.2087
820,0.3449,-10.0782,1.8011,0.487,5.0087,-0.2783
825,0.3066,-10.0016,1.6861,0.487,5.0087,-0.0696
830,0.1916,-10.0782,1.8777,0.4174,5.0783,-0.2087
835,0.3066,-10.0016,1.7244,0.2783,5.0087,-0.2087
840,0.2682,-10.0782,1.8394,0.2087,5.0783,-0.2087
845,0.3066,-10.0782,1.8777,0.1391,5.1478,-0.3478
850,0.3066,-10.0782,1.7627,0.0,5.0087,-0.4174
855,0.2682,-10.0782,1.8394,0.0,5.0087,-0.2783
860,0.2682,-10.0016,1.6478,-0.1391,4.9391,-0.4174
865,0.2299,-10.0016,1.7244,-0.2783,4.8696,-0.3478
870,0.1533,-10.0016,1.8394,-0.2783,4.8696,-0.2783
875,0.2682,-10.0782,1.8011,-0.2783,4.9391,-0.1391
880,0.3449,-10.0399,1.6861,-0.3478,4.8696,-0.1391
885,0.3066,-10.0399,1.8777,-0.4174,4.8696,-0.0696
890,0.3449,-10.0399,1.7627,-0.4174,4.9391,-0.0696
895,0.2299,-10.0782,1.7627,-0.4174,5.0783,0.0
900,0.2299,-9.9633,1.8011,-0.5565,5.1478,0.0696
905,0.2682,-10.0399,1.6861,-0.7652,5.1478,0.0696
910,0.3449,-10.0782,1.8011,-0.7652,5.287,0.1391
915,0.2682,-10.1549,1.7627,-0.8348,5.4261,0.2087
920,0.3066,-10.1166,1.7627,-0.7652,5.3565,0.2087
925,0.3066,-10.1166,1.9543,-0.6957,5.3565,0.1391
930,0.2682,-10.0782,1.7627,-0.4174,5.3565,0.0
935,0.3832,-9.9633,1.7627,-0.2087,5.2174,0.0
940,0.3832,-10.1549,1.7627,-0.0696,5.2174,-0.1391
945,0.3449,-10.1549,1.5328,0.1391,5.0087,-0.2783
950,0.3449,-10.0782,1.8011,0.3478,5.0783,-0.2783
955,0.3449,-9.9633,1.7627,0.4174,5.0087,-0.2783
960,0.2299,-9.8866,1.6095,0.4174,5.0783,-0.2783
965,0.3449,-9.9633,1.7244,0.3478,5.0783,-0.2783
970,0.3832,-10.0016,1.8394,0.2783,4.9391,-0.2087
975,0.3066,-10.0016,1.6861,0.1391,4.9391,-0.1391
980,0.2682,-10.1549,1.7627,0.0696,4.8696,-0.2087
985,0.2682,-10.0782,1.7627,0.0,4.9391,-0.0696
990,0.3066,-10.0399,1.8777,-0.1391,4.8696,-0.0696
995,0.2682,-10.0399,1.7627,-0.1391,4.8696,-0.0696
1000,0.2682,-10.0399,1.6861,-0.0696,4.8696,-0.0696
1005,0.2682,-9.9633,1.916,0.0696,4.8696,0.0
1010,0.1916,-10.0016,1.7244,0.3478,4.8,-0.0696
1015,0.3066,-10.1166,1.7627,0.487,4.8696,-0.1391
1020,0.2682,-10.0016,1.8394,0.6261,4.9391,-0.0696
1025,0.2299,-10.1166,1.6861,0.7652,5.0783,-0.2087
1030,0.3066,-10.0016,1.8011,0.9739,5.1478,-0.2783
1035,0.4215,-10.0399,1.6861,0.9739,5.0783,-0.2087
1040,0.3066,-9.925,1.8394,0.9043,5.287,-0.2087
1045,0.3066,-9.925,1.8394,0.9043,5.287,-0.2087
1050,0.115,-9.8866,2.2226,0.7652,5.287,-0.0696
1055,0.3449,-10.1166,1.8394,0.6957,5.2174,-0.2087
1060,0.3832,-10.0016,1.8394,0.5565,5.2174,-0.1391
1065,0.3066,-10.0399,1.8011,0.3478,5.2174,0.0
1070,0.2299,-9.9633,1.8394,0.3478,5.1478,0.0
1075,0.2299,-9.925,1.916,0.3478,5.2174,0.0
1080,0.2299,-9.8866,1.8011,0.2087,5.287,-0.0696
1085,0.1916,-9.925,1.7627,0.2087,5.287,0.0
1090,0.2682,-10.0782,1.8777,0.0696,5.1478,0.0696
1095,0.3449,-10.0782,1.916,0.0696,5.0087,0.0
1100,0.3449,-9.9633,1.8011,0.0696,4.9391,0.0
1105,0.2682,-10.0016,1.8777,0.0,5.0783,-0.0696
1110,0.2682,-10.0399,1.7244,-0.0696,5.0783,0.0
1115,0.1533,-9.925,1.7627,-0.0696,5.0087,0.0
1120,0.3066,-10.0399,1.7244,0.0,5.0087,-0.0696
1125,0.3449,-10.0399,1.916,-0.0696,5.0783,-0.0696
1130,0.1916,-10.0399,1.8011,0.0,5.0783,-0.0696
1135,0.3066,-10.0016,1.8394,0.0,5.0783,-0.2087
1140,0.4215,-9.9633,1.8777,0.0,5.0783,-0.2783
1145,0.3449,-10.1549,1.9543,0.0696,5.1478,-0.2783
1150,0.3066,-10.0399,1.8394,0.0696,5.0783,-0.2783
1155,0.3449,-10.0399,1.7627,0.0696,5.1478,-0.2783
1160,0.4982,-9.925,2.1459,0.0696,5.2174,-0.2783
1165,0.2299,-10.1166,1.916,0.1391,5.2174,-0.3478
1170,0.3449,-10.1549,1.8011,0.2783,5.1478,-0.3478
1175,0.1533,-9.925,1.916,0.2783,5.0783,-0.4174
1180,0.3066,-10.0399,1.916,0.3478,5.0087,-0.487
1185,0.1916,-9.9633,1.7244,0.3478,5.0783,-0.487
1190,0.2682,-10.0782,1.7244,0.2087,5.0087,-0.4174
1195,0.3066,-10.0782,1.7244,0.2087,5.0087,-0.487
1200,0.4215,-10.0782,1.8011,0.2783,5.0783,-0.4174
1205,0.3832,-9.9633,1.8394,0.2087,5.0783,-0.4174
1210,0.1916,-10.1166,1.9927,0.2087,5.0087,-0.487
1215,0.2682,-9.9633,1.916,0.2087,5.0087,-0.4174
1220,0.1533,-9.9633,1.916,0.1391,5.0087,-0.4174
1225,0.3066,-10.0399,1.8777,0.1391,5.0087,-0.487
1230,0.2299,-9.9633,2.031,0.1391,5.0087,-0.4174
1235,0.3449,-10.0399,1.8011,0.0696,5.0087,-0.487
1240,0.3449,-9.8866,1.916,0.0696,5.0783,-0.487
1245,0.115,-10.0016,1.8011,0.0696,5.1478,-0.4174
1250,0.3832,-10.0782,1.8394,0.1391,5.2174,-0.4174
1255,0.2299,-10.0782,1.7627,0.1391,5.3565,-0.5565
1260,0.2299,-10.0399,1.7627,0.2087,5.3565,-0.5565
1265,0.2682,-10.1166,1.916,0.2087,5.1478,-0.6261
1270,0.3066,-10.1166,1.8777,0.2087,5.2174,-0.5565
1275,0.3066,-10.0399,1.7627,0.1391,5.2174,-0.6957
1280,0.3832,-10.0782,1.8394,0.1391,5.0783,-0.6957
1285,0.3066,-9.9633,1.9927,0.2783,5.0087,-0.7652
1290,0.2682,-10.0016,1.8394,0.2783,5.0087,-0.8348
1295,0.2299,-9.9633,1.8394,0.4174,5.0087,-0.8348
1300,0.2682,-10.1166,1.8777,0.5565,5.0087,-0.8348
1305,0.1533,-9.9633,1.8394,0.487,5.0087,-0.9043
1310,0.2299,-10.0016,1.8394,0.487,4.9391,-0.8348
1315,0.2682,-10.0782,1.7627,0.5565,4.8696,-0.9043
1320,0.3832,-9.9633,1.9543,0.4174,4.8,-0.7652
1325,0.2682,-10.0399,1.9543,0.4174,4.6609,-0.8348
1330,0.2682,-9.9633,1.8394,0.3478,4.7304,-0.8348
1335,0.3066,-10.0016,1.8777,0.3478,4.7304,-0.7652
1340,0.3066,-10.0399,1.8777,0.3478,4.7304,-0.7652
1345,0.2299,-9.9633,1.8011,0.3478,4.7304,-0.7652
1350,0.2299,-10.0399,1.8394,0.2783,4.7304,-0.6957
1355,0.2299,-10.0782,1.8394,0.0696,4.7304,-0.6261
1360,0.2682,-9.9633,1.8777,0.0,4.7304,-0.6261
1365,0.2299,-10.0782,1.8011,-0.0696,4.7304,-0.4174
1370,0.2299,-9.8866,1.8394,-0.2087,4.6609,-0.4174
1375,0.2682,-10.0016,1.9543,-0.2087,4.8,-0.487
1380,0.1533,-10.0782,2.031,-0.1391,4.7304,-0.4174
1385,0.1916,-10.0016,1.7244,-0.2783,4.7304,-0.4174
1390,0.2682,-9.9633,1.7627,-0.2783,4.7304,-0.5565
1395,0.2299,-10.0399,1.8394,-0.2783,4.6609,-0.6261
1400,0.2682,-10.0782,1.7627,-0.3478,4.5913,-0.6261
1405,0.2682,-10.0399,1.916,-0.4174,4.5913,-0.5565
1410,0.2299,-10.0782,1.7244,-0.2783,4.6609,-0.6261
1415,0.3066,-10.0399,1.8011,-0.2087,4.6609,-0.5565
1420,0.1916,-9.9633,1.916,0.0,4.5913,-0.5565
1425,0.3066,-10.0782,1.8777,0.0696,4.5913,-0.6957
1430,0.2682,-10.0016,1.916,0.1391,4.6609,-0.6261
1435,0.3066,-10.0399,1.7244,0.2087,4.6609,-0.7652
1440,0.3066,-10.1549,1.916,0.3478,4.6609,-0.7652
1445,0.3066,-9.9633,2.031,0.4174,4.8,-0.7652
1450,0.3832,-9.9633,1.9543,0.4174,4.7304,-0.6261
1455,0.2682,-10.0016,1.9543,0.3478,4.6609,-0.6261
1460,0.3832,-9.9633,1.9927,0.3478,4.6609,-0.6261
1465,0.3449,-9.9633,1.916,0.3478,4.7304,-0.5565
1470,0.3066,-9.925,1.8394,0.2087,4.6609,-0.6261
1475,0.2682,-10.0782,1.9543,0.2783,4.5913,-0.5565
1480,0.3449,-10.1549,1.9543,0.2087,4.5217,-0.487
1485,0.3832,-10.1166,1.9543,0.2087,4.4522,-0.5565
1490,0.3066,-10.0016,1.9927,0.2087,4.3826,-0.5565
1495,0.2682,-10.0016,1.8777,0.0696,4.313,-0.7652
1500,0.2682,-10.1166,1.8394,0.2087,4.313,-0.7652
1505,0.3449,-9.8866,1.916,0.2783,4.313,-0.7652
1510,0.3066,-9.9633,1.8777,0.2783,4.313,-0.7652
1515,0.3449,-10.1166,1.916,0.2783,4.3826,-0.6957
1520,0.2682,-10.0016,1.8011,0.3478,4.3826,-0.7652
1525,0.3066,-9.8866,1.8777,0.3478,4.4522,-0.7652
1530,0.3832,-10.0016,1.7627,0.3478,4.5913,-0.7652
1535,0.3066,-10.0016,2.031,0.3478,4.5913,-0.8348
1540,0.2682,-9.925,1.8394,0.3478,4.6609,-0.6957
1545,0.3066,-9.925,1.8011,0.3478,4.6609,-0.8348
1550,0.2299,-10.0782,1.8777,0.3478,4.6609,-0.9043
1555,0.3066,-10.0782,2.031,0.4174,4.6609,-0.9043
1560,0.4215,-9.9633,1.8777,0.487,4.7304,-0.8348
1565,0.3832,-10.0399,1.8394,0.487,4.6609,-0.9739
1570,0.3066,-10.0399,1.8777,0.6261,4.7304,-1.0435
1575,0.3066,-9.9633,1.8777,0.6261,4.7304,-1.0435
1580,0.3066,-9.9633,1.916,0.6261,4.7304,-1.0435
1585,0.3066,-9.925,1.916,0.6261,4.7304,-0.9739
1590,0.3449,-10.0016,1.8777,0.6261,4.7304,-0.9043
1595,0.4215,-9.81,1.8011,0.4174,4.8,-0.8348
1600,0.3832,-10.0782,1.8394,0.3478,4.8,-0.7652
1605,0.2299,-9.925,1.8394,0.2783,4.8,-0.7652
1610,0.1916,-10.0399,1.8777,0.0696,4.8,-0.6957
1615,0.3449,-10.0782,1.916,-0.1391,4.8,-0.6957
1620,0.1916,-10.0782,1.8777,-0.3478,4.9391,-0.6261
1625,0.3449,-10.0399,1.9543,-0.4174,4.9391,-0.6261
1630,0.3449,-10.0399,2.031,-0.5565,5.0783,-0.6261
1635,0.2682,-10.0016,1.8777,-0.6261,5.0783,-0.487
1640,0.3832,-10.0399,1.916,-0.6261,5.0087,-0.4174
1645,0.3449,-10.1549,1.8777,-0.6261,5.0783,-0.487
1650,0.3449,-9.925,1.7627,-0.5565,5.1478,-0.5565
1655,0.3066,-10.0399,1.9543,-0.4174,5.0783,-0.6261
1660,0.1916,-9.925,1.6861,-0.4174,5.0783,-0.5565
1665,0.3832,-10.0016,1.7627,-0.487,5.0087,-0.487
1670,0.3066,-9.9633,1.8777,-0.487,4.8696,-0.4174
1675,0.3449,-10.0016,1.8777,-0.4174,4.8696,-0.4174
1680,0.3449,-9.9633,1.6861,-0.4174,4.8,-0.3478
1685,0.4598,-10.0399,1.8777,-0.487,4.8696,-0.4174
1690,0.3066,-10.1166,1.9927,-0.6261,4.8696,-0.2783
1695,0.3832,-10.1166,1.8011,-0.6957,4.8696,-0.4174
1700,0.5748,-9.925,2.031,-0.6261,4.8,-0.3478
1705,0.3449,-10.1166,2.1076,-0.6957,4.8696,-0.487
1710,0.3066,-10.0399,1.9543,-0.6261,4.8696,-0.5565
1715,0.2682,-10.0399,1.916,-0.4174,4.8696,-0.4174
1720,0.3832,-10.0782,1.9927,-0.2783,5.0087,-0.4174
1725,0.2682,-10.0016,1.8394,-0.1391,5.0783,-0.487
1730,0.3066,-10.0782,1.9543,0.0,5.0783,-0.5565
1735,0.2682,-9.8483,1.9543,0.1391,5.1478,-0.3478
1740,0.3066,-9.8866,1.8777,0.2783,5.1478,-0.2783
1745,0.3832,-9.9633,1.8777,0.2783,5.1478,-0.3478
1750,0.3066,-9.925,1.8011,0.2783,5.0783,-0.3478
1755,0.1916,-10.0399,1.9927,0.2783,4.9391,-0.3478
1760,0.3832,-10.1166,1.9927,0.0696,4.9391,-0.2783
1765,0.2299,-10.0016,1.9543,-0.0696,4.9391,-0.2783
1770,0.3066,-9.925,1.916,-0.2783,5.0087,-0.2783
1775,0.3066,-9.9633,1.9543,-0.487,4.8696,-0.2783
1780,0.4215,-10.0399,1.8777,-0.7652,4.8696,-0.2087
1785,0.4215,-10.1166,1.9543,-0.9739,4.8696,-0.1391
1790,0.3449,-10.0016,1.8777,-0.9739,4.9391,-0.1391
1795,0.4215,-10.1166,1.8777,-1.113,4.8,-0.1391
1800,0.1916,-9.8866,1.916,-1.113,4.8,-0.2087
1805,0.3066,-10.0399,1.8011,-1.113,4.8696,-0.1391
1810,0.1533,-9.8866,1.8011,-1.0435,4.8696,-0.1391
1815,0.4215,-10.0399,1.9927,-1.0435,4.9391,-0.2087
1820,0.3449,-9.925,1.916,-1.0435,5.0783,-0.2087
1825,0.2682,-10.0399,1.9543,-1.0435,5.0087,-0.0696
1830,0.3449,-9.9633,1.9927,-1.0435,5.0783,-0.1391
1835,0.3832,-10.0399,1.8777,-1.113,4.9391,-0.1391
1840,0.3066,-10.0399,1.9543,-1.113,5.0087,-0.2783
1845,0.2299,-10.0399,1.8777,-1.0435,4.9391,-0.2087
1850,0.3832,-10.1166,1.8777,-1.1826,4.9391,-0.3478
1855,0.2682,-10.0782,1.8777,-1.1826,4.9391,-0.2783
1860,0.3066,-10.0016,1.8777,-1.2522,5.0087,-0.2087
1865,0.3449,-10.1166,1.8011,-1.1826,5.0087,-0.1391
1870,0.4215,-9.925,1.6861,-1.113,5.0783,-0.1391
1875,0.3449,-10.0782,1.8777,-1.1826,5.1478,-0.0696
1880,0.3066,-10.0016,1.7244,-1.2522,5.0783,-0.0696
1885,0.2299,-9.9633,1.916,-1.2522,5.0783,-0.2087
1890,0.1916,-9.925,1.8777,-1.3913,5.0087,-0.1391
1895,0.3449,-10.0016,1.7627,-1.4609,5.1478,-0.2087
1900,0.3066,-9.9633,1.9543,-1.4609,5.2174,-0.2087
1905,0.3449,-10.0782,1.8777,-1.4609,5.287,-0.1391
1910,0.2682,-9.925,1.8777,-1.3217,5.3565,-0.2087
1915,0.2682,-9.9633,1.8777,-1.4609,5.287,-0.1391
1920,0.3449,-10.1549,2.031,-1.5304,5.2174,-0.2087
1925,0.3449,-10.0782,1.916,-1.4609,5.2174,-0.1391
1930,0.4215,-10.0399,1.916,-1.6696,5.0087,-0.1391
1935,0.3066,-10.0016,1.8777,-1.7391,4.9391,-0.0696
1940,0.2682,-10.0016,1.9927,-1.8087,4.9391,-0.1391
1945,0.3449,-10.0016,1.8394,-1.8087,4.8696,-0.0696
1950,0.2682,-9.925,1.8777,-1.7391,4.8696,-0.1391
1955,0.3449,-10.1166,1.9927,-1.8087,4.8696,-0.0696
1960,0.2299,-10.0016,1.8777,-1.7391,5.0087,-0.1391
1965,0.3449,-9.9633,1.9927,-1.6,5.0087,-0.0696
1970,0.2682,-10.0399,1.9543,-1.5304,5.0087,0.0
1975,0.2682,-10.0399,1.8777,-1.4609,5.0783,-0.0696
1980,0.2682,-9.925,1.8394,-1.3913,5.0783,-0.0696
1985,0.2299,-9.925,1.8011,-1.4609,5.1478,0.0
1990,0.2682,-10.0016,1.8777,-1.4609,5.1478,0.0696
1995,0.2682,-10.0782,1.9543,-1.3913,5.2174,0.0696
2000,0.2682,-9.925,2.031,-1.3913,5.1478,0.0696
2005,0.2682,-10.0782,1.916,-1.3913,5.2174,0.0696
2010,0.3832,-10.0016,1.8394,-1.3913,5.1478,0.2087
2015,0.3449,-10.0016,1.916,-1.2522,5.0783,0.3478
2020,0.3066,-10.1166,1.9543,-1.2522,5.1478,0.3478
2025,0.2299,-9.925,2.031,-1.113,5.1478,0.3478
2030,0.4598,-9.925,1.9927,-1.113,5.0087,0.2087
2035,0.3832,-9.925,1.9927,-1.113,5.0087,0.2087
2040,0.3066,-9.9633,1.9543,-1.0435,5.0087,0.2783
2045,0.4215,-10.0016,1.916,-1.113,4.9391,0.1391
2050,0.3449,-10.0782,1.9543,-0.9739,4.9391,0.0
2055,0.3066,-9.9633,1.8777,-0.9739,4.9391,0.1391
2060,0.1533,-9.9633,1.9543,-1.0435,4.8696,0.0696
2065,0.3449,-10.0399,1.8394,-1.113,5.0087,0.0696
2070,0.4215,-9.925,2.0693,-1.2522,5.0087,-0.0696
2075,0.4215,-9.9633,1.8777,-1.3217,4.9391,0.0
2080,0.4598,-10.0399,1.9543,-1.3913,5.0087,-0.0696
2085,0.3449,-10.0016,1.8777,-1.4609,5.0087,-0.1391
2090,0.2682,-10.0399,1.916,-1.6,5.0783,-0.0696
2095,0.3832,-10.0016,1.916,-1.6,5.1478,-0.0696
2100,0.2299,-9.9633,1.916,-1.6696,5.1478,-0.0696
2105,0.3066,-9.9633,1.9543,-1.7391,5.1478,-0.1391
2110,0.4215,-10.0399,1.8777,-1.7391,5.1478,-0.2087
2115,0.2299,-10.0782,1.8394,-1.6696,5.1478,-0.1391
2120,0.2299,-10.0399,1.916,-1.6696,5.0783,-0.1391
2125,0.2299,-10.0782,1.8011,-1.6,5.0783,-0.0696
2130,0.1533,-9.925,1.9543,-1.6,5.0783,0.0696
2135,0.2682,-10.3465,1.916,-1.6,5.0783,0.0
2140,0.3066,-10.0782,1.9927,-1.6696,5.0087,0.0
2145,0.1533,-10.0016,1.7244,-1.6696,5.0783,0.0
2150,0.2682,-9.925,1.9927,-1.6696,5.0087,0.0
2155,0.3449,-9.9633,2.031,-1.8783,5.0087,0.0
2160,0.2682,-10.0016,1.8777,-1.9478,5.0087,0.0
2165,0.3832,-10.1166,1.7244,-2.0174,4.9391,0.0
2170,0.2299,-9.925,1.7627,-2.0174,5.0087,0.0
2175,0.3066,-10.0399,1.8011,-2.0174,4.9391,-0.2087
2180,0.3066,-9.9633,1.8777,-1.8783,4.9391,-0.2087
2185,0.2682,-10.0399,1.8777,-1.8783,5.0087,-0.2087
2190,0.3449,-10.0016,1.8394,-1.8087,5.0783,-0.3478
2195,0.3449,-10.0016,1.9927,-1.6696,5.0783,-0.2783
2200,0.2682,-9.925,1.8777,-1.5304,5.1478,-0.2783
2205,0.3066,-10.0399,1.8394,-1.6,5.1478,-0.2783
2210,0.2299,-10.0782,1.916,-1.6696,5.2174,-0.1391
2215,0.3449,-10.1166,1.9543,-1.6,5.287,-0.0696
2220,0.3449,-10.0016,1.8394,-1.6,5.3565,-0.1391
2225,0.3449,-10.0016,1.7627,-1.5304,5.3565,-0.1391
2230,0.3832,-10.0399,1.8394,-1.5304,5.287,-0.2087
2235,0.3449,-10.0016,1.8777,-1.5304,5.3565,-0.0696
2240,0.3066,-10.1166,1.8394,-1.6696,5.2174,-0.1391
2245,0.3832,-9.925,1.7627,-1.6696,5.2174,-0.1391
2250,0.2682,-9.925,1.9543,-1.6,5.0783,-0.0696
2255,0.1916,-9.9633,1.8777,-1.6,5.0783,-0.2087
2260,0.3066,-10.0399,1.9927,-1.4609,5.0087,-0.2087
2265,0.3066,-10.0782,1.916,-1.4609,4.8696,-0.1391
2270,0.3066,-9.925,1.8011,-1.3217,4.8696,-0.1391
2275,0.3066,-10.0016,1.916,-1.1826,4.9391,-0.0696
2280,0.2682,-10.0016,2.0693,-1.0435,4.9391,-0.2087
2285,0.2682,-9.8483,1.9927,-0.9739,5.0087,-0.2087
2290,0.3066,-10.0016,1.8394,-0.9043,5.0783,-0.2087
2295,0.3449,-10.1549,1.9543,-0.9739,4.9391,-0.2087
2300,0.3832,-9.9633,1.8011,-1.0435,5.0783,-0.2783
2305,0.1916,-10.0016,1.9543,-1.1826,5.0087,-0.1391
2310,0.3832,-10.0399,1.8777,-1.113,5.0783,-0.2087
2315,0.4215,-9.9633,1.916,-1.1826,5.0087,-0.2087
2320,0.3066,-10.0782,1.916,-1.2522,5.0087,-0.1391
2325,0.3449,-10.0016,1.9543,-1.3913,5.1478,-0.1391
2330,0.2299,-9.925,1.8777,-1.3913,5.0783,-0.0696
2335,0.2299,-10.0399,1.9543,-1.3913,5.2174,-0.1391
2340,0.2682,-9.9633,1.8777,-1.4609,5.2174,-0.1391
2345,0.3066,-9.9633,1.8394,-1.5304,5.287,-0.0696
2350,0.1916,-10.0016,1.8394,-1.6696,5.2174,-0.2087
2355,0.4598,-9.8866,1.8394,-1.6696,5.2174,-0.2087
2360,0.2682,-10.0782,1.7627,-1.7391,5.2174,-0.2087
2365,0.3449,-10.0016,1.8011,-1.8783,5.1478,-0.2087
2370,0.3066,-10.0782,1.7627,-1.8087,5.0087,-0.2087
2375,0.3066,-10.0782,1.8394,-1.8087,4.9391,-0.2087
2380,0.2299,-10.0399,1.8394,-1.8087,4.8696,-0.1391
2385,0.2682,-9.925,1.8011,-1.8087,4.8696,-0.1391
2390,0.2299,-10.0782,1.8394,-1.8783,4.9391,-0.0696
2395,0.3066,-10.0399,1.8777,-1.8087,4.9391,-0.0696
2400,0.3066,-10.0016,1.9927,-1.8087,5.0087,0.0
2405,0.4215,-10.1166,1.916,-1.5304,5.0783,0.0
2410,0.2682,-9.925,1.6861,-1.4609,5.0087,0.0696
2415,0.2682,-9.9633,1.8011,-1.2522,5.0783,0.0696
2420,0.3449,-10.0399,1.7244,-1.2522,5.0783,0.0696
2425,0.2299,-10.0399,1.7627,-1.3217,5.0783,0.1391
2430,0.2682,-10.0399,1.7244,-1.3913,5.0087,0.1391
2435,0.2299,-10.0782,1.8777,-1.7391,5.0783,0.1391
2440,0.2682,-10.1549,1.6478,-2.0174,5.0783,0.2087
2445,0.2682,-10.1166,1.8011,-2.3652,5.0783,0.2087
2450,0.1916,-10.0016,1.6861,-2.6435,5.1478,0.2087
2455,0.0766,-10.0399,1.7244,-2.9913,5.0087,0.2783
2460,0.1533,-10.0782,1.8394,-3.1304,5.0783,0.4174
2465,0.1533,-9.8866,1.7627,-3.2,5.0087,0.6261
2470,0.115,-10.0399,1.6478,-3.3391,5.0087,0.9739
2475,0.1916,-10.1166,1.6095,-3.6174,5.287,1.6
2480,0.1916,-10.1166,1.6095,-4.1043,5.4261,2.3652
2485,0.1916,-9.9633,1.6861,-4.6609,5.7739,3.2696
2490,0.1916,-10.0782,1.6478,-5.4957,6.0522,4.1043
2495,0.1916,-9.9633,1.5328,-6.3304,6.2609,5.0783
2500,0.1916,-10.0016,1.3795,-7.4435,6.1913,5.8435
2505,0.1533,-9.9633,1.3029,-9.113,5.913,6.4
2510,0.0766,-9.9633,1.3795,-11.8957,5.7739,7.1652
2515,0.115,-10.0016,1.2263,-15.6522,5.5652,7.7913
2520,0.0383,-10.0016,1.1496,-19.9652,5.7739,8.6261
2525,0.0383,-10.0016,1.2263,-24.487,5.7043,9.4609
2530,0.0383,-10.1549,1.4179,-28.5913,5.6348,10.1565
2535,0.1533,-10.0399,1.2263,-32.2783,5.3565,10.6435
2540,0.0383,-10.1166,1.5328,-35.3391,5.0783,10.9913
2545,0.0383,-10.0399,1.4562,-37.6348,4.6609,11.2696
2550,0.2682,-9.925,1.4179,-39.3043,4.1043,11.7565
2555,0.4598,-9.8866,1.1879,-40.6261,3.7565,12.0348
2560,0.2682,-9.7334,1.4562,-42.7826,2.9217,11.9652
2565,0.1533,-9.6567,1.9927,-45.7739,0.9739,11.687
2570,0.2299,-9.6184,1.9927,-48.5565,-1.3217,10.7826
2575,0.2682,-9.4268,2.2226,-50.9913,-4.3826,9.4609
2580,0.1916,-9.5801,2.1076,-52.7304,-6.5391,8.5565
2585,0.2299,-9.3502,1.9927,-53.4261,-7.3739,7.8609
2590,0.3449,-9.4651,2.031,-53.6348,-7.5826,7.6522
2595,0.4982,-9.5034,1.8777,-54.0522,-7.7217,8.0
2600,0.3066,-9.7334,1.8777,-54.5391,-7.7217,8.2087
2605,0.3066,-9.81,1.7244,-54.6087,-7.5826,8.2087
2610,0.0766,-10.2315,1.4179,-54.1913,-7.0957,7.513
2615,0.0766,-10.3465,1.1496,-52.9391,-6.2609,6.5391
2620,0.0,-10.4231,1.0346,-51.0609,-5.7043,5.7043
2625,-0.0383,-10.4231,0.9963,-48.2783,-4.9391,4.8696
2630,0.0,-10.1932,1.0346,-44.7304,-4.1739,4.3826
2635,-0.1533,-10.1932,1.073,-40.9739,-3.6174,4.1043
2640,0.0,-10.1549,0.9197,-37.7043,-3.4783,3.9652
2645,-0.0766,-10.2315,1.073,-35.2696,-3.1304,3.5478
2650,0.0,-10.3082,0.958,-33.3913,-2.6435,3.2
2655,0.0,-10.0399,1.1113,-32.0,-2.2261,2.9217
2660,-0.0766,-9.925,0.9963,-31.4435,-2.1565,2.9217
2665,-0.0766,-9.925,1.2646,-31.3739,-2.4348,3.2696
2670,0.0,-9.81,1.1113,-31.3739,-2.5043,3.9652
2675,-0.0766,-9.8483,0.9963,-30.9565,-2.713,4.8
2680,0.0,-9.8483,1.073,-30.2609,-2.8522,5.4957
2685,0.0,-9.7334,0.9197,-29.3565,-2.7826,6.1217
2690,-0.0766,-9.81,0.8814,-28.3826,-2.7826,6.7478
2695,-0.115,-9.7717,0.7664,-27.2696,-3.0609,7.3043
2700,0.0383,-9.695,0.6898,-26.087,-3.2696,8.0696
2705,-0.0383,-9.695,0.6514,-24.8348,-3.2,8.6957
2710,0.0,-9.7334,0.6514,-23.7913,-3.2696,9.6
2715,0.0766,-9.7334,0.4982,-22.887,-3.2696,10.4348
2720,0.0383,-9.7334,0.3832,-22.1913,-3.1304,11.2696
2725,0.115,-9.81,0.3449,-21.5652,-2.8522,12.0348
2730,0.0383,-9.6184,0.6514,-20.9391,-2.713,12.8696
2735,0.1916,-9.5418,0.3832,-20.1739,-2.5739,13.6348
2740,0.1533,-9.5418,0.5365,-19.5478,-2.1565,13.9826
2745,0.1916,-9.5034,0.4598,-18.6435,-1.8087,14.6087
2750,0.3066,-9.6184,0.5748,-18.0174,-1.3217,14.887
2755,0.2299,-9.3502,0.5365,-17.6,-0.7652,15.1652
2760,0.3832,-9.5034,0.6898,-17.8087,-0.0696,15.513
2765,0.1916,-9.3502,0.6514,-18.2261,0.6261,15.7913
2770,0.3449,-9.3885,0.6898,-19.0609,1.0435,16.1391
2775,0.1533,-9.3118,0.4598,-20.313,1.5304,16.5565
2780,0.2299,-9.3502,0.7281,-21.8435,2.3652,16.9043
2785,0.1533,-9.2352,0.8047,-23.6522,3.0609,16.9739
2790,0.115,-9.3502,0.958,-25.2522,3.9652,17.2522
2795,0.115,-9.5034,0.958,-26.6435,4.8,17.6
2800,0.0,-9.5418,0.958,-27.8957,5.8435,17.9478
2805,0.0383,-9.695,1.0346,-29.0783,6.9565,18.1565
2810,-0.115,-9.81,1.0346,-30.1913,8.1391,18.2261
2815,-0.1533,-9.9633,1.1879,-31.0261,9.3913,18.0174
2820,-0.3449,-10.0782,1.1496,-31.6522,10.713,17.5304
2825,-0.3066,-10.0782,1.3029,-31.7217,12.2435,16.8348
2830,-0.3832,-10.1549,1.6861,-31.6522,13.4957,15.7217
2835,-0.4598,-10.2698,1.6478,-31.5826,14.4696,14.7478
2840,-0.4215,-10.4231,1.7244,-32.4174,15.5826,13.7043
2845,-0.5748,-10.4614,1.9543,-34.713,16.487,12.6609
2850,-0.5365,-10.4231,2.1459,-38.0522,16.7652,12.0348
2855,-0.3832,-10.5764,2.5291,-42.5739,16.487,11.3391
2860,-0.3832,-10.9213,2.6058,-47.3739,16.2087,10.713
2865,-0.4215,-10.9596,2.989,-51.2,15.7217,10.1565
2870,-0.2299,-11.2662,3.1423,-55.4435,15.4435,9.7391
2875,-0.1533,-11.4578,3.0656,-58.8522,15.7217,9.5304
2880,0.0766,-11.5344,3.0656,-61.4261,15.9304,9.6696
2885,0.2299,-11.726,3.1423,-63.2348,16.0,10.0174
2890,0.3832,-11.7643,3.0656,-65.0435,15.8609,10.2957
2895,0.7281,-11.6877,2.8357,-67.5478,15.8609,10.3652
2900,0.6131,-12.1475,2.8357,-71.0957,15.7913,10.3652
2905,0.8047,-12.2625,2.4525,-74.9217,15.7217,10.1565
2910,0.8814,-11.8793,1.916,-79.513,15.3739,10.1565
2915,0.958,-11.4578,1.6095,-85.287,14.7478,9.6
2920,0.843,-10.768,1.2646,-93.1478,14.2609,8.5565
2925,0.8047,-10.1549,0.7281,-103.4435,14.0522,7.1652
2930,0.8814,-9.5034,0.0383,-117.3565,14.1913,5.3565
2935,0.7281,-9.0819,-0.6514,-135.0957,14.4,3.6174
2940,0.5365,-8.5838,-1.3029,-155.6174,14.0522,2.7826
2945,0.2299,-8.4305,-2.0693,-177.7391,12.313,3.1304
2950,0.0,-8.3155,-3.1423,-200.0696,8.9043,5.0783
2955,-0.115,-8.8137,-3.7937,-221.8435,4.0348,7.8609
2960,-0.3449,-9.3118,-4.4068,-243.2,-2.0174,9.4609
2965,-0.6898,-10.0782,-4.4835,-262.6087,-8.2087,9.3913
2970,-0.8814,-11.0746,-4.5601,-278.3304,-13.4957,9.2522
2975,-0.958,-12.1092,-4.5984,-288.6957,-17.7391,10.1565
2980,-0.6898,-13.1822,-4.6368,-293.0783,-21.5652,10.9913
2985,-0.6131,-14.1785,-3.832,-291.3391,-24.6957,11.6174
2990,-0.2682,-15.558,-3.4105,-283.5478,-26.5043,11.8261
2995,-0.3449,-17.1292,-2.5291,-269.7739,-26.1565,12.1043
