timestamp,accX,accY,accZ,gyroX,gyroY,gyroZ
0,1.6478,-8.0089,-3.6404,21.913,131.2,4.3826
5,1.4945,-7.894,-3.5638,21.3565,131.6174,4.5913
10,1.5328,-7.9323,-3.6787,20.9391,132.1043,4.8
15,1.3412,-7.8173,-3.5638,20.0348,132.8,5.3565
20,1.1496,-7.8173,-3.6787,19.1304,133.4957,5.7739
25,0.958,-7.8173,-3.7171,17.8783,134.4696,6.3304
30,1.0346,-7.894,-3.4871,16.8348,135.3739,6.887
35,0.7281,-8.0473,-3.5638,16.0,136.2087,7.5826
40,0.7664,-8.2772,-3.6021,15.7217,136.9739,8.4174
45,0.6131,-8.3155,-3.6021,15.7217,137.8087,9.3217
50,0.5365,-8.3155,-3.3339,15.9304,138.3652,10.1565
55,0.6131,-8.4688,-3.5638,16.2087,138.7826,10.9913
60,0.4982,-8.5454,-3.3722,16.8348,139.0609,11.8261
65,0.7664,-8.737,-3.3722,17.4609,139.1304,12.9391
70,0.7281,-8.852,-3.2955,18.0174,139.1304,13.7043
75,0.958,-8.852,-3.2572,18.4348,139.2,14.1217
80,1.1496,-8.9286,-3.2955,18.8522,139.1304,14.3304
85,0.8814,-9.0053,-3.2955,18.9217,139.1304,14.4
90,1.2646,-9.0436,-3.2572,19.3391,139.2,14.3304
95,1.3795,-9.1586,-3.3722,19.8957,139.4087,14.2609
100,1.3795,-9.0436,-3.2189,20.5217,139.687,14.0522
105,1.3795,-9.0819,-3.2572,20.9391,139.9652,13.913
110,1.4179,-9.2735,-3.2955,21.0783,140.313,13.7043
115,1.4562,-9.2352,-3.3339,20.8696,140.3826,13.3565
120,1.1879,-9.3502,-3.3339,20.1739,140.1739,12.9391
125,1.073,-9.3502,-3.0273,19.4783,139.6174,12.6609
130,0.9197,-9.4268,-2.9507,18.8522,138.713,12.5913
135,0.7281,-9.4651,-2.9507,18.4348,137.7391,12.5217
140,0.6131,-9.3885,-2.8357,18.5739,136.6957,12.5217
145,0.5748,-9.6184,-2.7207,19.0609,135.7913,12.4522
150,0.3449,-9.5418,-2.5675,20.2435,134.9565,12.4522
155,0.4215,-9.5801,-2.4908,21.5652,134.0522,12.4522
160,0.3449,-9.6184,-2.6058,22.9565,133.3565,12.5217
165,0.3832,-9.6567,-2.5291,24.4174,132.6609,12.5217
170,0.4215,-9.6567,-2.4142,25.5304,132.4522,12.3826
175,0.5365,-9.6184,-2.4908,26.4348,132.4522,12.3826
180,0.6898,-9.5801,-2.5291,27.0609,132.5913,12.3826
185,0.6898,-9.6184,-2.4142,27.4783,132.8,12.2435
190,0.843,-9.5034,-2.3759,27.6174,133.0783,12.0348
195,0.7664,-9.5034,-2.4525,27.687,133.1478,11.8261
200,0.8814,-9.6184,-2.4908,27.6174,133.0783,11.4087
205,0.9197,-9.3885,-2.3759,27.3391,132.6609,11.0609
210,0.8814,-9.5034,-2.4908,27.2696,132.1739,10.5043
215,0.8047,-9.4268,-2.6058,26.7826,131.687,9.8087
220,0.7664,-9.5418,-2.6824,26.2261,131.1304,8.9739
225,0.7281,-9.5801,-2.7591,25.3217,130.3652,8.0
230,0.6514,-9.7334,-2.5675,24.2783,129.4609,6.8174
235,0.5365,-9.5418,-2.4142,23.1652,128.3478,5.287
240,0.4982,-9.6184,-2.6441,22.4,126.887,3.7565
245,0.3066,-9.5418,-2.4525,22.1217,125.3565,2.2957
250,0.0766,-9.5034,-2.6441,22.4696,123.5478,0.6261
255,0.0766,-9.2735,-2.3759,22.9565,121.7391,-0.7652
260,-0.0766,-9.2352,-2.2609,23.4435,119.5826,-2.3652
265,-0.1533,-9.1202,-2.1843,23.7217,117.1478,-3.5478
270,-0.2682,-8.967,-2.0693,24.0,114.2957,-4.5913
275,-0.5748,-9.0053,-2.031,23.8609,111.2348,-5.3565
280,-0.5748,-8.852,-1.8011,23.1652,108.1043,-5.7739
285,-0.6131,-8.7754,-1.8777,22.2609,104.8348,-5.7043
290,-0.6898,-8.737,-1.7627,21.0783,101.8435,-5.287
295,-0.8047,-8.967,-1.7627,19.9652,99.2,-4.3826
300,-0.7281,-8.8903,-1.7244,18.5739,97.113,-3.1304
305,-0.8814,-9.0436,-1.4945,17.0435,95.3739,-1.6
310,-0.958,-9.1586,-1.5328,15.3739,94.0522,-0.0696
315,-0.958,-9.3118,-1.2646,13.6348,93.0087,1.8087
320,-0.8047,-9.3502,-1.3412,12.3826,91.6174,3.5478
325,-0.843,-9.3885,-1.3412,11.687,90.6435,5.1478
330,-0.7664,-9.5418,-0.9963,11.6174,89.7391,6.5391
335,-0.6514,-9.5034,-1.1113,11.8261,88.9739,7.7217
340,-0.5365,-9.5418,-1.3795,12.4522,88.6957,8.7652
345,-0.3066,-9.695,-1.5328,13.0087,88.9043,9.6
350,0.0,-9.8483,-1.4562,13.287,89.6,9.8783
355,0.4982,-9.8483,-1.4945,13.5652,90.6435,9.8087
360,0.5365,-10.1549,-1.2646,14.1217,91.8957,9.1826
365,0.6131,-10.2698,-1.4179,15.0261,93.1478,8.2783
370,0.7664,-10.4998,-1.3412,16.0,94.1913,7.0261
375,0.6898,-10.3848,-1.4562,16.9043,94.887,5.1478
380,0.6898,-10.3082,-1.3795,17.5304,95.3043,3.1304
385,0.6131,-10.1932,-1.4562,17.8087,95.1652,0.8348
390,0.3832,-9.9633,-1.5711,17.8087,94.6783,-1.4609
395,0.1916,-9.695,-1.5711,17.9478,93.7043,-3.7565
400,-0.0766,-9.6184,-1.6861,18.0174,92.5217,-5.8435
405,-0.3449,-9.3118,-1.6861,18.0174,91.2,-7.7913
410,-0.4982,-9.2735,-1.4945,17.8087,89.7391,-9.4609
415,-0.6514,-9.1202,-1.3412,17.3217,88.3478,-10.6435
420,-0.7281,-9.0436,-1.2646,16.3478,86.9565,-11.2
425,-0.6898,-9.0819,-1.1113,15.513,85.7739,-11.4783
430,-0.6514,-9.1202,-0.9197,14.9565,84.8696,-11.4783
435,-0.5365,-9.1586,-0.8047,14.6783,84.1043,-11.2
440,-0.5365,-9.1586,-0.6898,15.0261,83.6174,-10.7826
445,-0.3066,-9.3502,-0.6898,15.7913,83.5478,-10.4348
450,-0.2299,-9.3118,-0.7664,16.3478,83.9652,-9.9478
455,-0.1533,-9.4651,-0.8047,16.7652,84.8696,-9.3217
460,-0.1916,-9.3502,-0.8814,16.8348,85.9826,-8.8348
465,-0.0766,-9.5034,-0.8814,16.487,87.3739,-8.5565
470,-0.1916,-9.3885,-1.2646,15.5826,88.7652,-8.4174
475,-0.2682,-9.3885,-1.3029,13.913,90.5043,-8.5565
480,-0.3832,-9.3118,-1.3029,11.6174,91.9652,-8.8348
485,-0.4598,-9.4268,-1.3795,8.9043,93.0783,-9.3913
490,-0.6514,-9.3502,-1.2646,6.4696,93.5652,-9.9478
495,-0.5748,-9.4268,-1.1496,4.4522,93.4261,-10.6435
500,-0.6514,-9.3502,-0.958,2.9913,92.6609,-11.2
505,-0.843,-9.3885,-1.1496,2.1565,91.4087,-11.7565
510,-1.073,-9.3885,-1.073,2.087,89.8087,-12.1739
515,-0.9963,-9.3502,-0.9963,2.0174,88.1391,-12.3826
520,-1.1879,-9.4268,-0.8814,1.9478,86.4696,-12.4522
525,-1.1113,-9.3118,-0.958,1.8087,84.8,-12.3826
530,-1.1496,-9.2352,-0.8814,1.5304,83.1304,-12.0348
535,-1.073,-9.3502,-0.7281,1.6,81.3913,-11.6174
540,-0.8814,-9.2735,-0.4598,1.3217,79.513,-11.2
545,-0.7281,-9.4651,-0.5365,1.2522,77.7043,-10.6435
550,-0.4982,-9.4651,-0.4598,1.2522,75.9652,-10.4348
555,-0.3066,-9.5418,-0.4982,1.4609,74.5739,-10.2261
560,-0.0766,-9.7334,-0.5365,1.8783,73.4609,-10.2261
565,0.115,-9.6567,-0.4982,2.713,72.7652,-10.3652
570,0.2682,-9.8483,-0.6131,3.7565,72.5565,-10.6435
575,0.4215,-9.925,-0.6514,4.8,72.6957,-11.1304
580,0.2682,-9.81,-0.9197,5.4957,72.9043,-11.6174
585,0.2682,-9.8483,-0.958,5.7739,72.8348,-12.1739
590,0.1533,-9.7717,-1.0346,5.0783,72.2783,-12.6609
595,-0.0383,-9.81,-1.1879,3.7565,71.0261,-12.8
600,-0.115,-9.7334,-1.2263,2.0174,69.5652,-12.8
605,-0.2682,-9.7717,-1.1496,0.3478,67.8261,-12.5217
610,-0.5748,-9.5801,-1.073,-0.5565,66.2261,-12.0348
615,-0.7281,-9.6567,-1.073,-0.8348,64.487,-11.2696
620,-0.7664,-9.5801,-0.7664,-0.487,62.7478,-10.087
625,-0.8814,-9.4651,-0.843,0.5565,60.8,-8.9043
630,-1.073,-9.4268,-0.7664,1.8783,58.7826,-7.2348
635,-1.1113,-9.1969,-0.5365,3.2696,56.6957,-5.8435
640,-1.1496,-9.2352,-0.6131,4.6609,54.4696,-4.2435
645,-0.9963,-9.0053,-0.4215,5.8435,52.3826,-2.7826
650,-0.958,-8.8903,-0.4982,6.7478,50.5043,-1.3217
655,-0.843,-8.852,-0.5748,7.5826,48.9043,-0.2087
660,-0.6898,-8.852,-0.5748,7.9304,47.8609,0.8348
665,-0.6514,-8.852,-0.6131,8.0,47.3043,1.4609
670,-0.5365,-8.737,-0.3832,7.7913,46.9565,2.087
675,-0.3832,-8.8137,-0.4215,7.513,46.7478,2.6435
680,-0.3832,-8.8903,-0.4598,6.6087,46.6783,2.8522
685,-0.1533,-9.0053,-0.6514,5.4957,46.5391,2.9217
690,-0.3066,-9.0436,-0.5748,4.2435,46.3304,2.9913
695,-0.2299,-9.0819,-0.6131,2.9913,46.3304,2.9913
700,-0.3449,-9.1969,-0.6514,1.8087,46.3304,2.9913
705,-0.4215,-9.2352,-0.7664,1.0435,46.6087,3.0609
710,-0.5365,-9.3118,-0.6514,0.6957,46.8174,2.9913
715,-0.6131,-9.3118,-0.6514,0.2783,46.9565,2.9217
720,-0.7281,-9.3885,-0.7281,0.1391,46.887,2.9217
725,-0.8047,-9.4651,-0.7664,-0.1391,46.6087,2.9913
730,-0.8814,-9.4268,-0.6514,-0.4174,45.913,2.8522
735,-0.8047,-9.5418,-0.8047,-0.8348,44.7304,2.9217
740,-0.7664,-9.5801,-0.843,-1.2522,43.4783,3.2
745,-0.7664,-9.3885,-0.8814,-1.6696,42.1565,3.5478
750,-0.5748,-9.4651,-0.958,-2.087,41.1826,3.8261
755,-0.5748,-9.2735,-1.073,-2.6435,40.4174,4.313
760,-0.3449,-9.3885,-1.0346,-3.2696,39.9304,4.5913
765,-0.1916,-9.3502,-1.073,-4.0348,39.5826,4.9391
770,-0.0383,-9.2352,-1.073,-4.9391,39.513,5.0783
775,-0.0383,-9.3885,-0.958,-5.8435,39.4435,5.0087
780,0.2299,-9.3118,-1.0346,-7.0261,39.1652,4.8696
785,0.2299,-9.3502,-0.8047,-7.9304,38.887,4.8
790,0.1916,-9.1969,-0.8047,-8.5565,38.4,4.5217
795,0.1533,-9.3118,-0.958,-8.9043,37.7739,4.313
800,0.115,-9.3502,-0.843,-9.0435,37.0783,4.1043
805,0.0,-9.3885,-0.9963,-8.8348,36.5913,3.8261
810,-0.1533,-9.4651,-0.8814,-8.5565,36.5217,3.4783
815,-0.2682,-9.6567,-0.8047,-8.3478,36.6609,3.2
820,-0.4215,-9.6184,-0.8047,-7.9304,37.0783,2.7826
825,-0.4598,-9.81,-0.4598,-7.0957,37.2174,2.5739
830,-0.6131,-9.925,-0.3832,-6.1217,37.0783,2.3652
835,-0.7664,-10.0782,-0.3832,-4.5913,36.3826,2.0174
840,-0.7664,-10.0016,-0.0766,-2.8522,35.2696,1.6696
845,-0.6898,-10.1932,-0.1533,-0.9043,33.8783,1.1826
850,-0.7664,-10.2315,-0.2682,1.0435,32.4174,0.5565
855,-0.8814,-10.2698,-0.0766,2.713,31.0957,-0.2783
860,-0.9197,-10.1549,-0.0766,3.8261,30.1217,-1.2522
865,-0.9197,-10.1549,-0.0383,5.2174,29.3565,-2.2261
870,-0.7664,-10.0016,0.0,6.1913,28.8,-3.4087
875,-0.843,-9.8866,-0.115,6.7478,28.5217,-4.5217
880,-0.7664,-9.7717,-0.0766,6.9565,28.5913,-5.4261
885,-0.6898,-9.6184,-0.115,6.6783,28.8696,-6.3304
890,-0.6514,-9.3885,-0.0766,6.1913,29.2174,-7.1652
895,-0.3832,-9.3118,-0.1533,5.2174,29.5652,-7.513
900,-0.6131,-8.967,0.2299,3.8261,29.5652,-7.7913
905,-0.4215,-8.9286,0.0383,2.1565,29.4261,-7.6522
910,-0.2682,-8.8903,0.0383,0.1391,29.3565,-7.4435
915,-0.3832,-8.7754,0.115,-2.1565,29.0783,-6.9565
920,-0.3066,-8.7754,-0.0383,-4.313,28.8696,-6.4
925,-0.2682,-8.9286,-0.0766,-6.5391,28.5217,-5.913
930,-0.2682,-9.0053,-0.0766,-8.5565,28.1043,-5.4261
935,-0.3449,-8.9286,-0.1533,-10.3652,27.4783,-4.8696
940,-0.3832,-9.0819,-0.1533,-11.7565,26.7826,-4.6609
945,-0.2682,-9.3118,-0.3832,-12.8696,26.0174,-4.4522
950,-0.4982,-9.3502,-0.3066,-13.913,25.113,-4.2435
955,-0.5365,-9.4651,-0.1533,-14.9565,24.0,-4.1043
960,-0.5365,-9.4268,-0.3449,-16.1391,22.7478,-4.1739
965,-0.6131,-9.6184,-0.2682,-17.113,21.3565,-3.9652
970,-0.5748,-9.6184,-0.2299,-18.0174,19.8261,-3.687
975,-0.6131,-9.6567,-0.4982,-18.713,18.2261,-3.3391
980,-0.7281,-9.7334,-0.4598,-19.2,16.6957,-2.9913
985,-0.5365,-9.8483,-0.4598,-19.4087,15.0957,-2.5043
990,-0.5748,-9.925,-0.5365,-19.4087,13.8435,-2.0174
995,-0.4215,-9.7717,-0.7664,-19.0609,12.4522,-1.6
1000,-0.4598,-9.8483,-0.6131,-18.2957,11.3391,-1.1826
1005,-0.1916,-9.9633,-0.4598,-17.3217,10.3652,-0.8348
1010,-0.2682,-9.81,-0.7281,-16.2783,9.8087,-0.5565
1015,-0.3449,-9.7717,-0.6514,-15.3739,9.4609,-0.3478
1020,-0.3066,-9.6184,-0.7281,-14.4696,9.1826,-0.0696
1025,-0.1916,-9.695,-0.9197,-13.8435,9.2522,0.0696
1030,-0.2299,-9.7717,-0.843,-13.2174,9.5304,0.0696
1035,-0.0383,-9.8483,-0.8047,-12.3826,9.8087,0.0696
1040,-0.115,-9.81,-0.8814,-11.8957,10.1565,-0.0696
1045,-0.1916,-9.7717,-0.8047,-11.4087,10.5739,-0.2783
1050,-0.2299,-9.8483,-0.6514,-10.713,11.1304,-0.2783
1055,-0.115,-9.7717,-0.7664,-9.5304,11.7565,-0.487
1060,-0.115,-9.8483,-0.6514,-8.4174,12.5217,-0.6957
1065,-0.115,-9.7717,-0.6898,-7.1652,13.287,-1.0435
1070,-0.1916,-9.6184,-0.5365,-5.913,14.2609,-1.3217
1075,-0.0383,-9.7717,-0.4215,-4.7304,15.1652,-1.6696
1080,-0.2299,-9.6184,-0.5748,-3.4783,16.0696,-2.087
1085,-0.1533,-9.6184,-0.5748,-2.5043,16.9739,-2.3652
1090,-0.1533,-9.6567,-0.5748,-1.6,17.9478,-2.5739
1095,0.0383,-9.7334,-0.5365,-0.9043,18.8522,-2.9217
1100,-0.1916,-9.5418,-0.4215,-0.6261,19.5478,-3.1304
1105,0.0,-9.7717,-0.4598,-0.2783,19.9652,-3.1304
1110,0.0,-9.7717,-0.3449,-0.2087,20.1043,-3.1304
1115,-0.0383,-9.695,-0.115,0.0696,20.1739,-3.0609
1120,-0.115,-9.81,-0.3449,0.3478,19.8261,-2.9913
1125,-0.0383,-9.7334,-0.115,0.6957,19.3391,-2.8522
1130,-0.0383,-9.7717,-0.1916,1.2522,18.6435,-2.713
1135,-0.0766,-9.6184,-0.115,1.6,18.0174,-2.5043
1140,-0.1533,-9.5801,-0.2299,1.8087,17.3913,-2.2261
1145,-0.0383,-9.6184,-0.3449,1.8783,16.8348,-1.9478
1150,-0.1533,-9.5034,-0.2682,1.8087,16.487,-1.7391
1155,-0.1533,-9.5034,-0.5365,1.4609,16.1391,-1.4609
1160,0.0,-9.5418,-0.3066,1.113,16.0696,-1.2522
1165,0.0383,-9.5034,-0.4215,0.8348,16.0696,-0.8348
1170,0.0,-9.5034,-0.3449,0.6261,16.4174,-0.5565
1175,0.0383,-9.5418,-0.3832,0.487,16.9043,-0.3478
1180,0.0383,-9.4268,-0.4598,0.4174,17.3217,-0.1391
1185,0.0,-9.4268,-0.4598,0.2783,17.6696,0.0
1190,-0.1533,-9.3502,-0.3449,0.2087,17.8783,0.2087
1195,0.0383,-9.3502,-0.3449,0.1391,17.9478,0.4174
1200,0.0,-9.3885,-0.3449,0.0696,17.8087,0.487
1205,0.0766,-9.3502,-0.1533,-0.1391,17.5304,0.6261
1210,0.0383,-9.3885,-0.3449,-0.3478,17.113,0.6957
1215,0.0766,-9.4651,-0.2299,-0.4174,16.8348,0.9043
1220,0.115,-9.5801,-0.1916,-0.487,16.6261,0.8348
1225,-0.115,-9.7717,-0.2299,-0.7652,16.5565,0.9043
1230,0.5748,-9.7717,-0.3449,-0.7652,16.8348,1.113
1235,0.0383,-9.695,-0.4982,-0.5565,17.0435,1.3217
1240,0.115,-9.6567,-0.4215,-0.3478,17.2522,1.4609
1245,-0.0383,-9.6567,-0.4598,-0.2783,17.1826,1.6
1250,-0.115,-9.5418,-0.4982,-0.487,16.9739,1.6
1255,0.0383,-9.6184,-0.4215,-0.7652,16.6261,1.6
1260,0.0383,-9.5034,-0.4982,-0.9739,16.2087,1.6696
1265,0.0,-9.5801,-0.4215,-1.1826,15.7913,1.6696
1270,-0.0383,-9.5418,-0.4598,-1.1826,15.4435,1.6
1275,-0.0766,-9.4651,-0.4982,-0.9739,15.0957,1.5304
1280,0.0766,-9.1969,-0.3066,-0.5565,14.8174,1.5304
1285,0.0766,-9.5034,-0.4598,-0.2783,14.8174,1.4609
1290,0.115,-9.5034,-0.3832,0.0696,14.7478,1.6
1295,0.0,-9.5034,-0.4215,0.0,14.6783,1.6
1300,0.0766,-9.4651,-0.4215,-0.2087,14.5391,1.7391
1305,-0.0766,-9.3885,-0.4598,-0.4174,14.2609,1.7391
1310,-0.0766,-9.5034,-0.4598,-0.7652,13.9826,1.5304
1315,-0.115,-9.3885,-0.4598,-1.0435,13.6348,1.4609
1320,-0.0383,-9.5801,-0.4215,-1.113,13.1478,1.3913
1325,-0.115,-9.5801,-0.5748,-0.9043,12.8696,1.4609
1330,-0.0383,-9.5418,-0.5365,-0.7652,12.7304,1.3913
1335,-0.1916,-9.4268,-0.3832,-0.5565,12.6609,1.2522
1340,0.0,-9.4651,-0.2682,-0.3478,12.5217,1.2522
1345,0.0383,-9.6184,-0.5748,-0.1391,12.4522,1.3217
1350,0.0766,-9.6184,-0.4982,-0.4174,12.3826,1.6696
1355,-0.0383,-9.5801,-0.4982,-0.6261,12.1739,1.8087
1360,-0.0766,-9.6567,-0.4598,-0.8348,11.5478,1.6696
1365,-0.115,-9.6567,-0.2682,-0.8348,10.8522,1.6696
1370,-0.0766,-9.6184,-0.4215,-0.5565,10.4348,1.4609
1375,-0.1916,-9.695,-0.4982,-0.2087,9.8087,1.0435
1380,-0.115,-9.7334,-0.5365,0.3478,9.113,0.6261
1385,-0.0766,-9.81,-0.5748,0.6957,8.5565,0.2783
1390,-0.1533,-9.6184,-0.3832,1.113,8.0696,-0.0696
1395,-0.2682,-9.6184,-0.5748,1.6696,7.6522,0.0
1400,-0.2299,-9.6567,-0.6131,1.7391,7.3043,-0.0696
1405,-0.1916,-9.5801,-0.6898,1.7391,7.0261,-0.2783
1410,-0.3066,-9.3885,-0.5748,1.3913,6.887,-0.2783
1415,-0.3449,-9.3502,-0.7664,1.113,6.7478,-0.1391
1420,-0.3449,-9.3502,-0.6514,0.6261,6.887,-0.0696
1425,-0.3066,-9.3885,-0.7281,0.0,6.9565,-0.2087
1430,-0.4598,-9.3502,-0.5365,-0.487,6.9565,-0.2783
1435,-0.1916,-9.3502,-0.4982,-0.9739,7.1652,-0.4174
1440,-0.2682,-9.3502,-0.4598,-1.2522,7.3739,-0.6261
1445,-0.2682,-9.4268,-0.4982,-1.3913,7.3043,-0.9739
1450,0.0,-9.5418,-0.5748,-1.3913,7.1652,-0.9739
1455,-0.0766,-9.4268,-0.4598,-1.113,6.8174,-0.8348
1460,-0.115,-9.4268,-0.4215,-0.8348,6.1913,-0.8348
1465,-0.115,-9.4651,-0.3832,-0.4174,5.2174,-0.6957
1470,0.0,-9.5801,-0.4215,-0.2783,4.2435,-0.8348
1475,0.0383,-9.5801,-0.4598,-0.1391,3.3391,-0.9043
1480,0.115,-9.6567,-0.5365,0.1391,2.6435,-0.9043
1485,0.1916,-9.5801,-0.4215,0.3478,2.2261,-0.8348
1490,0.115,-9.6184,-0.4598,0.6957,2.1565,-0.8348
1495,-0.0383,-9.4651,-0.6898,0.9739,2.2957,-0.8348
1500,0.1916,-9.5034,-0.4982,1.1826,2.3652,-0.6957
1505,0.1533,-9.5801,-0.6898,1.1826,2.4348,-0.6261
1510,0.0383,-9.4268,-0.5748,0.9043,2.5739,-0.5565
1515,-0.0383,-9.3885,-0.5748,0.4174,2.6435,-0.7652
1520,0.0,-9.3885,-0.5365,-0.487,2.713,-0.7652
1525,-0.0766,-9.4268,-0.4598,-1.3913,2.5739,-0.5565
1530,0.0,-9.4268,-0.3832,-2.3652,2.4348,-0.4174
1535,-0.1533,-9.5418,-0.3832,-3.1304,2.1565,-0.487
1540,-0.2299,-9.5034,-0.4982,-3.7565,1.8783,-0.3478
1545,-0.0766,-9.5801,-0.4215,-4.0348,1.5304,-0.1391
1550,-0.115,-9.4651,-0.3832,-3.9652,1.0435,-0.1391
1555,-0.1533,-9.5801,-0.3449,-3.7565,0.6957,-0.0696
1560,-0.115,-9.5418,-0.3066,-3.2,0.3478,0.0
1565,-0.0766,-9.5034,-0.4598,-2.5739,-0.0696,0.2087
1570,0.0,-9.5801,-0.4598,-2.0174,-0.3478,0.3478
1575,-0.115,-9.5418,-0.6514,-1.6696,-0.487,0.2783
1580,0.0,-9.5801,-0.6131,-1.1826,-0.6957,0.3478
1585,-0.0766,-9.5801,-0.6514,-1.0435,-0.9043,0.3478
1590,0.0383,-9.4651,-0.5748,-0.9043,-1.0435,0.2087
1595,-0.115,-9.6184,-0.4982,-0.6261,-0.9739,0.2087
1600,0.0383,-9.5418,-0.4215,-0.6261,-0.9739,0.2783
1605,-0.1533,-9.4651,-0.3832,-0.5565,-0.9739,0.2783
1610,0.0,-9.5034,-0.3066,-0.5565,-0.8348,0.2087
1615,-0.0766,-9.5801,-0.5365,-0.5565,-0.6261,0.2783
1620,0.0766,-9.5801,-0.4982,-0.5565,-0.6261,0.2087
1625,-0.1533,-9.4651,-0.4982,-0.487,-0.5565,0.2783
1630,-0.1916,-9.5418,-0.5748,-0.487,-0.5565,0.3478
1635,-0.115,-9.6184,-0.5748,-0.5565,-0.6261,0.4174
1640,-0.2682,-9.5034,-0.5365,-0.487,-0.7652,0.4174
1645,-0.0383,-9.5034,-0.2682,-0.2783,-0.8348,0.4174
1650,-0.0766,-9.6567,-0.4982,-0.2087,-0.6957,0.3478
1655,0.0383,-9.4651,-0.6131,-0.3478,-0.7652,0.3478
1660,-0.2682,-9.5034,-0.5365,-0.2087,-0.6957,0.3478
1665,-0.1916,-9.5801,-0.4982,-0.1391,-0.5565,0.3478
1670,-0.1916,-9.5418,-0.4598,-0.0696,-0.487,0.2783
1675,-0.0383,-9.5801,-0.5365,0.0,-0.4174,0.2783
1680,-0.1916,-9.4268,-0.4598,0.1391,-0.4174,0.3478
1685,-0.1916,-9.5034,-0.4598,0.1391,-0.3478,0.2783
1690,-0.2299,-9.4651,-0.3449,0.2783,-0.4174,0.2783
1695,-0.1916,-9.5034,-0.3449,0.2783,-0.6957,0.2783
1700,-0.115,-9.5418,-0.5365,0.2783,-1.0435,0.2087
1705,-0.2299,-9.4651,-0.3449,0.0696,-1.4609,0.2783
1710,-0.1916,-9.3502,-0.4215,-0.1391,-1.8087,0.2087
1715,-0.2299,-9.3502,0.0,-0.2783,-2.0174,0.2087
1720,-0.1916,-9.4268,-0.4598,-0.487,-2.2261,0.2783
1725,-0.0766,-9.4268,-0.3066,-0.8348,-2.3652,0.2087
1730,-0.1533,-9.3885,-0.3066,-1.3913,-2.2261,0.2087
1735,-0.1533,-9.5034,-0.3066,-1.8783,-2.1565,0.1391
1740,-0.115,-9.4268,-0.3449,-2.2261,-2.087,0.0696
1745,-0.1533,-9.5418,-0.4598,-2.4348,-2.0174,0.0696
1750,0.0,-9.5034,-0.4215,-2.5739,-1.8087,0.1391
1755,-0.1533,-9.4651,-0.4598,-2.5739,-1.8783,0.2087
1760,-0.0766,-9.5418,-0.4598,-2.5043,-1.9478,0.2783
1765,-0.1533,-9.5034,-0.5748,-2.3652,-2.087,0.487
1770,-0.115,-9.695,-0.4215,-2.4348,-2.2261,0.487
1775,-0.1533,-9.4651,-0.4598,-2.4348,-2.2957,0.487
1780,-0.1533,-9.5418,-0.4598,-2.3652,-2.5739,0.6261
1785,-0.115,-9.5034,-0.3449,-2.2957,-2.7826,0.6957
1790,-0.2299,-9.4651,-0.3066,-2.087,-2.9217,0.6261
1795,-0.0766,-9.5801,-0.1916,-1.9478,-3.0609,0.6261
1800,-0.115,-9.4651,-0.4215,-1.8783,-3.2,0.6261
1805,-0.1916,-9.5034,-0.2299,-1.7391,-3.2,0.6261
1810,-0.0383,-9.6184,-0.1533,-1.8783,-3.2,0.6261
1815,-0.115,-9.5034,-0.4982,-2.0174,-3.2,0.5565
1820,-0.0766,-9.4268,-0.3066,-2.4348,-3.2,0.5565
1825,-0.1533,-9.4268,-0.4215,-2.6435,-3.2,0.487
1830,-0.2299,-9.4651,-0.4215,-2.9913,-3.2,0.487
1835,-0.3066,-9.4268,-0.3449,-3.2696,-3.2,0.5565
1840,-0.0766,-9.4651,-0.4215,-3.4783,-3.1304,0.6261
1845,-0.0766,-9.5801,-0.3449,-3.5478,-3.2696,0.6261
1850,-0.0766,-9.5418,-0.3832,-3.687,-3.1304,0.6261
1855,-0.2299,-9.5418,-0.2299,-3.7565,-3.1304,0.7652
1860,-0.0766,-9.5418,-0.3066,-3.8261,-3.0609,0.7652
1865,-0.1533,-9.4268,-0.2682,-3.6174,-3.0609,0.8348
1870,-0.0766,-9.5418,-0.4215,-3.687,-2.9913,0.7652
1875,0.0,-9.6184,-0.2682,-3.687,-2.9217,0.8348
1880,-0.115,-9.3885,-0.2682,-3.8261,-2.9217,0.9043
1885,-0.115,-9.5418,-0.4215,-4.1043,-3.1304,0.8348
1890,-0.115,-9.5418,-0.3066,-4.313,-3.0609,0.6957
1895,-0.0383,-9.4268,-0.2682,-4.3826,-2.9913,0.6261
1900,-0.1533,-9.5418,-0.3066,-4.5217,-3.0609,0.6261
1905,-0.115,-9.4651,-0.3449,-4.6609,-3.0609,0.4174
1910,-0.115,-9.6184,-0.3066,-4.6609,-3.0609,0.4174
1915,-0.0383,-9.5801,-0.3066,-4.5913,-2.8522,0.3478
1920,-0.1533,-9.5034,-0.2682,-4.3826,-2.713,0.2087
1925,-0.0383,-9.5034,-0.1916,-4.1739,-2.4348,0.2087
1930,-0.0766,-9.5034,-0.2299,-4.0348,-2.3652,0.2087
1935,-0.1916,-9.2735,-0.3449,-3.8261,-2.2261,0.2783
1940,-0.115,-9.5034,0.0,-3.4783,-2.0174,0.2783
1945,-0.0766,-9.4651,-0.1916,-3.2,-1.9478,0.4174
1950,-0.1916,-9.5034,-0.3449,-2.9913,-2.0174,0.487
1955,-0.115,-9.4268,-0.3066,-2.5739,-1.9478,0.487
1960,-0.0766,-9.4651,-0.3066,-2.4348,-2.0174,0.487
1965,-0.0766,-9.5034,-0.2299,-2.1565,-1.8087,0.487
1970,-0.1533,-9.5034,-0.3449,-2.2957,-1.5304,0.487
1975,-0.0766,-9.5418,-0.3832,-2.5043,-1.3217,0.4174
1980,-0.1916,-9.4651,-0.3066,-2.9913,-1.0435,0.3478
1985,0.0,-9.6184,-0.3066,-3.5478,-0.6957,0.0696
1990,-0.1916,-9.5801,-0.3832,-3.8957,-0.4174,0.0
1995,-0.0766,-9.4651,-0.2682,-4.3826,0.0696,-0.2087
2000,-0.0383,-9.5418,-0.3832,-4.4522,0.3478,-0.2783
2005,-0.115,-9.5034,-0.3449,-4.5913,0.487,-0.2087
2010,-0.0383,-9.5418,-0.2682,-4.9391,0.5565,-0.1391
2015,0.0,-9.5418,-0.3449,-5.0087,0.487,-0.1391
2020,-0.0766,-9.5418,-0.2299,-5.3565,0.2783,-0.0696
2025,-0.0766,-9.6567,0.0,-5.287,-0.0696,0.0
2030,-0.115,-9.5034,-0.3066,-5.0087,-0.1391,0.1391
2035,0.115,-9.6184,-0.3449,-4.313,-0.2087,0.2087
2040,-0.0766,-9.5418,-0.1533,-3.687,0.0,0.1391
2045,0.0383,-9.6184,-0.3832,-3.0609,0.2087,0.2783
2050,-0.0766,-9.4651,-0.6131,-2.4348,0.487,0.2087
2055,0.0383,-9.4651,-0.4598,-2.1565,0.7652,0.2087
2060,0.0,-9.5801,-0.3449,-2.087,0.9739,0.0696
2065,-0.1533,-9.4268,-0.2682,-2.1565,1.1826,-0.0696
2070,-0.115,-9.4651,-0.2682,-2.5739,1.113,0.0
2075,-0.1533,-9.4651,-0.3449,-2.9913,1.1826,0.0
2080,-0.0383,-9.5034,-0.0766,-3.4783,1.1826,0.0696
2085,-0.1916,-9.4268,-0.3832,-3.8261,1.1826,0.1391
2090,-0.115,-9.5418,-0.1916,-4.0348,0.9043,0.0696
2095,-0.2299,-9.4268,-0.0766,-3.7565,0.6261,0.0696
2100,-0.115,-9.5418,-0.1916,-3.4783,0.2087,0.1391
2105,0.0766,-9.695,-0.115,-2.9913,-0.3478,0.2087
2110,-0.115,-9.5034,-0.2299,-2.4348,-0.6957,0.2783
2115,-0.1533,-9.5418,-0.2682,-1.9478,-0.9043,0.3478
2120,-0.115,-9.5034,-0.3449,-1.6696,-0.9043,0.4174
2125,-0.0766,-9.5418,-0.1916,-1.3217,-0.6957,0.4174
2130,-0.0766,-9.3502,-0.1533,-1.3217,-0.4174,0.2783
2135,-0.115,-9.5801,-0.2299,-1.1826,0.0,0.2783
2140,-0.0383,-9.5034,-0.2682,-1.3913,0.3478,0.2087
2145,-0.0766,-9.5418,-0.3066,-1.6,0.6261,0.1391
2150,-0.0766,-9.4651,-0.2299,-1.8087,0.8348,0.0
2155,-0.0766,-9.5034,-0.2682,-1.8783,0.9043,0.0
2160,-0.0766,-9.5418,-0.3066,-2.087,0.9043,0.0
2165,-0.1533,-9.4651,-0.0766,-2.2261,0.8348,0.0696
2170,-0.1916,-9.4268,-0.2682,-2.1565,0.5565,0.0696
2175,-0.115,-9.4651,-0.2299,-2.2261,0.487,0.0696
2180,-0.1533,-9.5418,-0.1916,-2.2261,0.2783,0.0696
2185,-0.2682,-9.4651,-0.3066,-2.4348,0.0696,0.0696
2190,-0.115,-9.5034,-0.1916,-2.5739,-0.2087,-0.0696
2195,-0.0383,-9.5801,-0.1916,-2.713,-0.487,-0.1391
2200,-0.1916,-9.5034,-0.3832,-2.8522,-0.8348,-0.1391
2205,-0.2682,-9.4651,-0.3449,-2.8522,-0.9043,0.0
2210,-0.2299,-9.4651,-0.2299,-3.0609,-1.0435,-0.1391
2215,-0.3449,-9.4268,-0.0766,-3.2,-1.0435,0.0696
2220,-0.2299,-9.4651,-0.1916,-3.5478,-1.0435,0.0696
2225,-0.3832,-9.4651,-0.2682,-3.8957,-1.1826,0.0
2230,-0.3066,-9.4268,-0.115,-4.3826,-1.3913,0.0696
2235,-0.1916,-9.5418,-0.1916,-4.7304,-1.6696,0.0696
2240,-0.2299,-9.5034,-0.2299,-5.0087,-2.087,0.2783
2245,-0.1916,-9.5034,-0.1533,-4.9391,-2.4348,0.4174
2250,-0.3066,-9.5801,-0.1533,-4.9391,-2.5043,0.5565
2255,-0.1533,-9.7717,-0.1916,-4.8696,-2.5043,0.7652
2260,-0.3066,-9.5034,-0.1916,-4.6609,-2.8522,0.9043
2265,-0.3449,-9.4651,-0.2299,-4.6609,-2.9913,0.9739
2270,-0.4215,-9.4651,-0.2682,-4.6609,-3.3391,1.1826
2275,-0.4215,-9.4268,-0.3066,-4.8,-3.5478,1.3217
2280,-0.4982,-9.5801,-0.1916,-4.7304,-3.687,1.5304
2285,-0.3832,-9.4651,-0.2682,-4.7304,-3.687,1.6
2290,-0.4982,-9.4651,-0.115,-4.5217,-3.8261,1.9478
2295,-0.3449,-9.5801,-0.2682,-4.313,-3.8261,2.087
2300,-0.4215,-9.4651,-0.0766,-4.0348,-3.8957,2.2261
2305,-0.3832,-9.5418,-0.1533,-3.4783,-3.8261,2.2957
2310,-0.4215,-9.5418,-0.3449,-3.0609,-3.9652,2.2957
2315,-0.4982,-9.4651,-0.115,-2.5739,-4.1043,2.5043
2320,-0.5748,-9.5801,-0.3832,-2.1565,-4.313,2.5739
2325,-0.4598,-9.4651,-0.2299,-1.8087,-4.5217,2.6435
2330,-0.4982,-9.5034,-0.2682,-1.6696,-4.7304,2.7826
2335,-0.5365,-9.6184,-0.4215,-1.6,-4.9391,2.8522
2340,-0.4982,-9.5418,-0.3449,-1.2522,-5.1478,2.8522
2345,-0.5365,-9.5418,-0.4215,-0.8348,-5.287,2.9217
2350,-0.5748,-9.6567,-0.4598,-0.4174,-5.4261,3.0609
2355,-0.4598,-9.7334,-0.3832,0.0,-5.5652,3.1304
2360,-0.5748,-9.695,-0.4598,0.5565,-5.5652,3.1304
2365,-0.5365,-9.6567,-0.4215,0.9043,-5.7739,3.0609
2370,-0.3832,-9.5034,-0.3449,1.1826,-6.0522,3.1304
2375,-0.6131,-9.5418,-0.2682,1.3913,-6.4696,3.1304
2380,-0.6131,-9.6184,-0.3449,1.5304,-6.8174,3.3391
2385,-0.6514,-9.6184,-0.2299,1.8087,-7.0261,3.4087
2390,-0.6131,-9.4651,-0.2299,2.087,-7.0261,3.4783
2395,-0.6898,-9.5034,-0.2682,2.3652,-6.8174,3.6174
2400,-0.6514,-9.6567,-0.115,2.5739,-6.5391,3.6174
2405,-0.7281,-9.5801,-0.2682,2.9217,-6.1913,3.5478
2410,-0.7281,-9.6184,-0.3832,3.0609,-5.913,3.5478
2415,-0.6131,-9.7717,-0.1916,3.1304,-5.7739,3.687
2420,-0.5748,-9.695,-0.2682,3.2696,-5.7739,3.6174
2425,-0.6898,-9.6567,-0.3832,3.4087,-5.913,3.687
2430,-0.7664,-9.6567,-0.0766,3.6174,-6.2609,3.5478
2435,-0.7664,-9.6567,-0.3066,4.0348,-6.7478,3.5478
2440,-0.5748,-9.7334,-0.3066,4.6609,-7.2348,3.6174
2445,-0.7664,-9.7334,-0.1916,5.1478,-7.7217,3.687
2450,-0.8047,-9.6184,-0.3066,5.7043,-8.0696,3.8261
2455,-0.843,-9.6184,-0.1916,6.2609,-8.4174,3.8957
2460,-0.843,-9.5034,-0.0766,6.8174,-8.7652,3.9652
2465,-0.843,-9.6567,-0.0766,7.4435,-9.0435,3.9652
2470,-0.9963,-9.5034,-0.0766,7.8609,-9.3217,4.1739
2475,-0.8814,-9.5801,-0.2682,8.0,-9.4609,4.1043
2480,-0.7664,-9.6567,0.0,8.0696,-9.7391,4.0348
2485,-0.7664,-9.6184,-0.115,8.1391,-10.087,3.8957
2490,-0.958,-9.5418,-0.0383,8.2783,-10.5739,3.7565
2495,-0.9963,-9.4651,0.0,8.3478,-11.1304,3.6174
2500,-0.8814,-9.5034,-0.115,8.3478,-11.7565,3.687
2505,-0.8814,-9.3885,-0.1533,8.487,-12.313,3.4783
2510,-1.0346,-9.3885,-0.0766,8.3478,-13.0087,3.6174
2515,-0.8047,-9.5034,-0.1916,8.2087,-13.4957,3.6174
2520,-0.958,-9.3118,0.0383,8.0696,-13.7739,3.8261
2525,-0.8814,-9.3885,0.0383,8.0,-13.913,3.8957
2530,-0.7664,-9.4651,0.0766,7.9304,-14.1913,4.0348
2535,-0.6514,-9.4268,-0.1533,7.8609,-14.2609,4.0348
2540,-0.8047,-9.5034,0.0,7.7217,-14.3304,4.1043
2545,-0.7664,-9.5034,0.115,7.5826,-14.5391,3.9652
2550,-0.843,-9.4268,0.115,7.5826,-14.8174,3.9652
2555,-0.8047,-9.4268,0.2682,7.3739,-15.0957,3.8261
2560,-0.7664,-9.4651,0.1916,7.1652,-15.5826,3.6174
2565,-0.7281,-9.4651,0.2299,6.887,-16.2087,3.4783
2570,-0.6514,-9.695,0.1916,6.6087,-16.9043,3.2696
2575,-0.6514,-9.4268,0.3066,6.1913,-17.6696,3.0609
2580,-0.7281,-9.4268,0.1533,5.7043,-18.2957,2.7826
2585,-0.5748,-9.4268,-0.0383,5.287,-18.713,2.713
2590,-0.6898,-9.4651,0.1533,5.0783,-18.9913,2.5739
2595,-0.6898,-9.3885,0.0,4.8696,-18.9913,2.2261
2600,-0.6514,-9.4268,0.0766,4.5913,-18.9217,2.0174
2605,-0.5748,-9.4268,0.0383,4.313,-18.713,1.8087
2610,-0.5365,-9.3502,0.115,3.687,-18.3652,1.4609
2615,-0.6131,-9.2735,0.1916,2.7826,-17.9478,1.113
2620,-0.4982,-9.3502,0.115,1.6696,-17.6,0.7652
2625,-0.4598,-9.4268,0.0766,0.2087,-16.9739,0.3478
2630,-0.2682,-9.3885,0.115,-1.0435,-16.3478,-0.2783
2635,-0.3832,-9.4268,0.0383,-2.5043,-15.3739,-0.7652
2640,-0.0766,-9.5418,0.0766,-3.8261,-14.4696,-1.3913
2645,0.0,-9.3502,0.1916,-4.8696,-13.3565,-2.0174
2650,0.0766,-9.3502,0.0383,-5.7043,-12.2435,-2.6435
2655,0.3449,-9.3118,-0.0766,-6.4,-10.9217,-3.2
2660,0.3832,-9.2735,-0.115,-7.1652,-9.2522,-3.9652
2665,0.6131,-9.0436,-0.1533,-7.8609,-7.3043,-4.5217
2670,0.7664,-8.967,-0.4215,-8.6957,-4.8696,-4.8696
2675,1.0346,-8.6604,-0.2682,-9.6696,-2.2957,-5.0087
2680,1.1879,-8.6604,-0.3832,-11.0609,0.6957,-5.2174
2685,1.3029,-8.3921,-0.5748,-12.4522,3.8261,-5.2174
2690,1.4179,-8.2389,-0.6898,-14.4,7.1652,-5.2174
2695,1.6478,-7.9706,-0.5748,-16.4174,10.6435,-5.287
2700,1.7627,-8.0473,-0.6514,-18.5043,14.0522,-5.3565
2705,1.916,-8.0089,-0.4598,-20.4522,17.8087,-5.3565
2710,2.031,-7.9323,-0.4982,-21.8435,21.4261,-5.287
2715,2.2609,-7.9706,-0.3449,-22.8174,25.113,-4.9391
2720,2.3375,-8.1622,-0.2682,-23.1652,28.5217,-4.3826
2725,2.2609,-8.2005,0.0383,-23.0957,31.513,-4.1043
2730,1.9543,-8.2772,0.2299,-22.3304,34.1565,-3.7565
2735,1.916,-8.737,-0.115,-20.6609,36.2435,-3.0609
2740,1.8011,-8.967,0.1533,-18.6435,37.5652,-2.7826
2745,1.5711,-9.3118,0.2682,-16.3478,38.3304,-2.5739
2750,1.3029,-9.81,0.5365,-14.1913,38.3304,-2.5739
2755,0.9963,-9.925,0.4215,-12.4522,37.287,-2.713
2760,0.5748,-10.3465,0.5365,-11.4087,35.687,-2.9913
2765,0.3066,-10.4998,0.3449,-10.5739,33.9478,-3.4783
2770,-0.0766,-10.8063,0.4598,-10.6435,32.2087,-4.313
2775,-0.3449,-10.9213,0.1916,-11.4087,30.6783,-5.3565
2780,-0.3832,-11.0746,0.2299,-11.8261,29.4957,-6.3304
2785,-0.4982,-10.9213,-0.0383,-12.1739,28.8696,-7.3739
2790,-0.4982,-10.8063,0.0383,-11.9652,28.5913,-8.0696
2795,-0.3066,-10.4998,0.1916,-11.2696,28.3826,-8.5565
2800,-0.4215,-10.1549,0.1533,-10.087,28.2435,-8.6261
2805,-0.2682,-9.81,0.3832,-8.0696,28.0348,-8.2783
2810,-0.115,-9.7717,0.3832,-5.7043,27.7565,-8.2087
2815,-0.0383,-9.81,0.4982,-2.9913,27.687,-8.4174
2820,0.1916,-9.6567,0.4982,0.0696,27.4783,-8.5565
2825,0.115,-9.5034,0.9963,3.2696,27.2,-8.3478
2830,0.2682,-9.3885,0.958,6.5391,26.8522,-7.6522
2835,0.1916,-9.3885,1.2646,9.3913,26.4348,-7.0261
2840,-0.0383,-9.3502,1.1113,11.3391,25.8783,-6.1913
2845,-0.115,-9.3118,1.3412,12.5913,25.0435,-5.4261
2850,-0.1916,-9.4268,1.1113,12.9391,23.8609,-4.5913
2855,-0.1916,-9.3502,1.4562,12.313,22.1217,-3.8957
2860,-0.4982,-9.3118,1.3795,10.3652,20.2435,-3.2
2865,-0.4982,-9.3885,1.3412,8.2087,18.3652,-2.2957
2870,-0.6514,-9.3502,1.1879,5.9826,16.3478,-1.6
2875,-0.7281,-9.3502,1.1113,3.6174,14.4696,-1.3217
2880,-0.7664,-9.3885,1.073,0.8348,13.0783,-1.1826
2885,-0.843,-9.3885,1.0346,-1.9478,11.4783,-1.3217
2890,-0.958,-9.3885,0.7281,-4.313,10.087,-1.6
2895,-0.9963,-9.5801,0.958,-6.4696,8.9043,-1.9478
2900,-0.8814,-9.5034,0.7281,-7.6522,7.8609,-2.4348
2905,-0.8814,-9.3885,0.7664,-7.7217,6.9565,-2.713
2910,-0.8814,-9.4268,0.6514,-7.4435,6.0522,-2.713
2915,-0.7664,-9.3885,0.5748,-6.887,5.287,-2.7826
2920,-0.6898,-9.3885,0.6898,-6.1217,4.3826,-2.713
2925,-0.4598,-9.3502,0.7281,-4.9391,3.4783,-2.7826
2930,-0.3449,-9.3118,0.5365,-3.8261,2.3652,-2.6435
2935,-0.2299,-9.2352,0.6131,-2.9217,1.3217,-2.713
2940,0.0,-9.3118,0.5365,-2.087,0.3478,-2.8522
2945,-0.0766,-9.0819,0.5365,-1.6696,-0.3478,-3.2
2950,0.115,-9.0819,0.4598,-1.4609,-0.8348,-3.4783
2955,0.2299,-9.0436,0.5748,-1.7391,-1.5304,-3.9652
2960,0.115,-9.0436,0.4215,-2.713,-2.087,-4.3826
2965,0.1916,-9.0436,0.2682,-3.8261,-2.713,-4.6609
2970,0.2682,-9.0053,0.4982,-4.7304,-3.4087,-5.0087
2975,0.1916,-8.852,0.2682,-5.5652,-3.9652,-5.4261
2980,0.1916,-8.967,0.3449,-6.4,-4.5217,-5.8435
2985,0.0,-8.9286,0.3066,-7.0261,-5.0087,-6.1913
2990,0.0,-9.0053,0.115,-7.6522,-5.3565,-6.4696
2995,-0.2299,-8.8137,0.0383,-8.0,-5.7043,-6.6783
