timestamp,accX,accY,accZ,gyroX,gyroY,gyroZ
0,9.925,0.3832,-0.4982,-1.7391,2.3652,-0.2783
5,9.7717,0.4215,-0.6131,-2.1565,3.0609,0.0696
10,9.81,0.4215,-0.5748,-2.5043,3.4783,0.2783
15,9.7717,0.3449,-0.5748,-2.8522,3.687,0.3478
20,9.8483,0.3832,-0.5748,-3.3391,3.7565,0.2783
25,9.7334,0.3832,-0.4598,-3.9652,3.687,0.2087
30,9.7717,0.4215,-0.4982,-4.3826,3.6174,0.0696
35,9.7717,0.4982,-0.5365,-5.0087,3.6174,-0.2087
40,9.81,0.3449,-0.5748,-5.5652,3.3391,-0.3478
45,9.81,0.4215,-0.5748,-6.0522,3.2,-0.487
50,9.81,0.4215,-0.6131,-6.3304,3.1304,-0.5565
55,9.81,0.3066,-0.5748,-6.6087,2.9913,-0.6261
60,9.8483,0.4215,-0.5365,-6.8174,3.0609,-0.6261
65,9.925,0.4215,-0.5748,-6.7478,3.2696,-0.6261
70,9.8483,0.5365,-0.6131,-6.6087,3.6174,-0.6261
75,9.8866,0.5365,-0.4598,-6.4,3.9652,-0.4174
80,9.8866,0.4598,-0.5365,-6.1217,4.4522,-0.2087
85,9.925,0.4215,-0.7281,-5.7739,4.9391,0.1391
90,10.0399,0.3832,-0.4982,-5.3565,5.2174,0.3478
95,9.925,0.3449,-0.6131,-5.0783,5.4261,0.5565
100,10.0016,0.3832,-0.8047,-4.7304,5.6348,0.7652
105,9.8866,0.3449,-0.6131,-4.1043,5.5652,0.8348
110,9.8866,0.3066,-0.6898,-3.4783,5.6348,1.0435
115,9.9633,0.3066,-0.8047,-2.7826,5.7739,0.9043
120,10.0399,0.3066,-0.6514,-2.1565,6.0522,0.7652
125,9.925,0.4215,-0.7664,-1.3913,6.2609,0.6957
130,10.0399,0.4215,-0.6131,-0.5565,6.8174,0.5565
135,9.9633,0.4982,-0.7664,0.1391,7.3043,0.487
140,9.8866,0.4215,-0.7664,0.6957,7.7217,0.3478
145,9.8483,0.3832,-0.6898,1.113,7.7913,0.2783
150,9.8483,0.3066,-0.6514,1.4609,7.8609,0.3478
155,9.8483,0.4215,-0.7281,1.7391,7.7913,0.3478
160,9.81,0.4215,-0.7281,2.087,7.5826,0.3478
165,9.8866,0.3832,-0.6131,2.2957,7.3739,0.4174
170,9.7717,0.3449,-0.7664,2.6435,7.2348,0.487
175,9.8483,0.3832,-0.7281,2.8522,7.3043,0.487
180,9.925,0.3449,-0.7281,2.8522,7.5826,0.6261
185,9.81,0.3832,-0.6131,2.6435,7.9304,0.6261
190,9.8866,0.3449,-0.5748,2.4348,8.5565,0.6261
195,10.0016,0.4215,-0.5365,1.8087,9.113,0.7652
200,9.8866,0.3832,-0.2682,1.1826,9.6696,0.9043
205,9.8866,0.4215,-0.3449,0.487,10.0174,1.113
210,9.9633,0.3832,-0.4598,-0.0696,10.4348,1.3217
215,9.81,0.3449,-0.3832,-0.7652,10.4348,1.4609
220,9.8866,0.3832,-0.4598,-1.113,10.2261,1.6
225,9.81,0.3066,-0.4982,-1.1826,9.8783,1.5304
230,9.8483,0.3832,-0.3832,-1.1826,9.2522,1.5304
235,9.8483,0.3066,-0.4598,-0.9043,8.7652,1.5304
240,9.925,0.3066,-0.3832,-0.5565,8.2783,1.2522
245,9.8866,0.3066,-0.3832,-0.1391,7.7913,1.113
250,9.8866,0.3832,-0.3832,0.3478,7.6522,0.9739
255,9.8483,0.4215,-0.5748,0.7652,7.5826,1.0435
260,9.8866,0.3066,-0.4598,1.2522,7.5826,1.0435
265,9.81,0.3449,-0.3066,1.8087,7.4435,0.9739
270,9.8866,0.2682,-0.5748,2.2261,7.4435,1.0435
275,9.8866,0.3066,-0.4215,2.7826,7.5826,1.0435
280,9.8483,0.3066,-0.4982,3.2,7.7913,1.1826
285,9.81,0.4215,-0.6514,3.6174,8.1391,1.113
290,9.7717,0.3066,-0.5748,3.9652,8.6261,1.1826
295,9.8483,0.3449,-0.4598,4.1739,9.113,1.0435
300,9.81,0.4215,-0.5365,4.1043,9.6696,0.9739
305,9.81,0.3832,-0.3832,3.8261,10.0174,0.9043
310,9.7717,0.4598,-0.4598,3.4087,10.2261,0.9043
315,9.8866,0.3449,-0.3449,2.7826,10.3652,0.6957
320,9.8483,0.4598,-0.4982,2.2261,10.3652,0.6957
325,9.7717,0.4215,-0.3449,1.6,10.2261,0.6261
330,9.81,0.4598,-0.2299,1.0435,9.8783,0.6261
335,9.81,0.4215,-0.3066,0.7652,9.5304,0.6261
340,9.925,0.3449,-0.3066,0.5565,9.1826,0.487
345,9.81,0.4215,-0.2682,0.487,8.9739,0.4174
350,9.81,0.3066,-0.2682,0.6261,8.6261,0.3478
355,9.8866,0.3449,-0.3449,0.6957,8.5565,0.1391
360,9.8866,0.3449,-0.3832,0.9043,8.5565,-0.0696
365,9.8483,0.3066,-0.3066,0.9739,8.487,-0.1391
370,9.7717,0.3066,-0.2299,1.113,8.5565,-0.2087
375,9.925,0.3066,-0.2299,1.1826,8.6957,-0.1391
380,9.7717,0.2682,-0.2682,1.2522,8.7652,0.0696
385,9.81,0.3449,-0.2299,1.2522,8.7652,0.1391
390,9.8483,0.3066,-0.3066,1.3913,8.5565,0.3478
395,9.8483,0.2682,-0.3449,1.3913,8.4174,0.4174
400,9.7717,0.3066,-0.3066,1.5304,8.2783,0.7652
405,9.81,0.3066,-0.3066,1.7391,8.1391,0.8348
410,9.925,0.2299,-0.2299,2.087,8.1391,1.113
415,9.81,0.2299,-0.2682,2.5043,8.1391,1.1826
420,9.81,0.3066,-0.2682,2.9217,8.2087,1.113
425,9.8866,0.3066,-0.1916,3.4087,8.2783,1.113
430,9.8483,0.3449,-0.115,3.687,8.3478,0.9043
435,9.8866,0.2682,-0.1916,4.0348,8.487,0.6957
440,9.7334,0.4215,-0.3449,4.1739,8.4174,0.487
445,9.7334,0.3832,-0.3066,4.2435,8.487,0.2783
450,9.7717,0.3832,-0.3066,4.1043,8.2783,0.2783
455,9.7717,0.2682,-0.3066,3.7565,8.2783,0.1391
460,9.695,0.2682,-0.2682,3.4087,8.2783,0.0
465,9.81,0.3066,-0.3066,3.2,8.1391,-0.0696
470,9.7717,0.2299,-0.3066,2.9913,8.0,0.0
475,9.7334,0.3066,-0.3066,2.8522,7.9304,-0.0696
480,9.7334,0.3832,-0.2299,2.713,7.9304,0.0
485,9.81,0.3066,-0.3832,2.8522,7.7913,0.0696
490,9.6567,0.3066,-0.0766,2.7826,7.6522,0.0
495,9.9633,0.3066,-0.115,2.9913,7.5826,0.0
500,9.8483,0.3832,-0.2299,3.1304,7.4435,-0.1391
505,9.925,0.4215,-0.2299,3.2696,7.3739,-0.1391
510,9.925,0.3449,-0.3066,3.5478,7.3739,-0.0696
515,9.9633,0.3066,-0.3832,3.7565,7.4435,0.0696
520,10.0016,0.3449,-0.3449,3.9652,7.3043,0.2087
525,9.8866,0.3066,-0.1533,4.3826,7.1652,0.2783
530,9.8483,0.3832,-0.1533,4.9391,6.8174,0.5565
535,9.81,0.2682,-0.115,5.4261,6.5391,0.6261
540,9.8483,0.2299,-0.2299,5.913,6.4696,0.8348
545,9.7717,0.3066,-0.1916,6.3304,6.2609,0.9043
550,9.7334,0.1533,-0.2299,6.8174,6.1217,0.9043
555,9.7717,0.3449,-0.1916,7.4435,5.9826,0.6957
560,9.7717,0.3449,-0.2299,7.7217,5.9826,0.5565
565,9.81,0.3066,-0.3449,7.8609,5.913,0.487
570,9.81,0.3449,-0.2299,7.8609,5.8435,0.4174
575,9.925,0.3449,-0.2682,7.5826,5.9826,0.4174
580,9.8483,0.3832,-0.0766,7.0957,5.8435,0.4174
585,9.8866,0.4982,-0.115,6.4696,5.8435,0.5565
590,9.8866,0.4982,-0.1916,5.6348,5.7043,0.6957
595,9.8866,0.5365,0.0,4.8,5.4261,0.6957
600,9.8483,0.5365,-0.0383,3.9652,5.0087,0.8348
605,9.81,0.4215,-0.1533,3.0609,4.5913,0.9739
610,9.925,0.3066,-0.115,2.087,4.1043,0.9739
615,9.8866,0.3832,-0.1533,1.3217,3.5478,0.9739
620,9.8866,0.3066,-0.1533,0.6957,3.1304,0.9043
625,9.8483,0.3066,-0.1916,0.2783,2.9217,0.7652
630,9.9633,0.2299,-0.1533,0.0696,2.8522,0.6957
635,9.925,0.2299,-0.115,-0.0696,2.8522,0.6957
640,10.0782,0.0383,-0.2299,0.1391,2.7826,0.6957
645,9.8866,0.1533,-0.3066,0.6261,2.6435,0.8348
650,9.8483,0.2299,-0.2299,1.3217,2.5739,0.9739
655,9.8866,0.115,-0.3066,2.2261,2.5739,1.113
660,9.8483,0.0766,-0.1916,3.3391,2.6435,1.1826
665,9.8866,0.0,-0.3066,4.5217,2.6435,1.3913
670,9.7717,0.1916,-0.4598,5.8435,2.5739,1.2522
675,9.81,0.1533,-0.4598,6.9565,2.4348,1.0435
680,9.81,0.115,-0.5365,8.0,2.2957,0.7652
685,9.8483,0.3066,-0.5365,8.7652,2.1565,0.6261
690,9.925,0.3066,-0.4215,9.113,1.8783,0.4174
695,9.925,0.3066,-0.5365,9.2522,1.9478,0.1391
700,9.8866,0.4215,-0.3449,8.9043,2.0174,0.0
705,9.81,0.4215,-0.4598,8.1391,2.087,-0.1391
710,9.8483,0.3832,-0.4598,7.3043,2.2261,-0.2087
715,9.7717,0.3449,-0.3832,5.9826,2.5739,-0.2783
720,9.8483,0.3449,-0.3066,4.7304,2.9913,-0.487
725,9.81,0.3832,-0.3449,3.3391,3.3391,-0.5565
730,9.8866,0.3066,-0.2682,2.2261,3.7565,-0.3478
735,9.8483,0.4215,-0.3066,1.3913,4.1739,-0.2087
740,10.0399,0.3066,-0.2299,0.9739,4.3826,-0.0696
745,10.0016,0.3066,-0.3449,1.1826,4.3826,0.0
750,9.9633,0.4215,-0.3066,1.8783,4.3826,0.2087
755,9.8866,0.3449,-0.4598,2.8522,4.4522,0.487
760,9.8866,0.3832,-0.5748,3.9652,4.5217,0.7652
765,9.8866,0.2682,-0.5748,5.0783,4.8696,0.8348
770,9.7717,0.3066,-0.4982,5.9826,4.8696,0.9043
775,9.7717,0.2682,-0.4215,6.6087,5.0087,0.6957
780,9.7334,0.3449,-0.4982,6.887,5.1478,0.2783
785,9.7717,0.3832,-0.5365,6.6087,5.2174,-0.2087
790,9.695,0.4598,-0.4982,5.913,5.3565,-0.6261
795,9.7717,0.4598,-0.4982,4.5913,5.7043,-1.2522
800,9.7334,0.6514,-0.4598,3.0609,6.0522,-1.7391
805,9.7334,0.8047,-0.5365,1.0435,6.4696,-1.9478
810,9.81,0.7281,-0.3449,-0.6957,7.0957,-2.1565
815,9.695,0.6131,-0.3066,-2.5043,7.4435,-1.9478
820,9.8483,0.6898,-0.2299,-3.9652,7.6522,-1.6
825,9.925,0.5365,-0.2682,-5.4261,7.7217,-1.3217
830,9.8866,0.4215,-0.2299,-6.1217,7.4435,-1.0435
835,9.81,0.4982,-0.1916,-6.2609,7.0261,-1.0435
840,10.0399,0.3449,-0.2682,-5.7043,6.2609,-0.7652
845,10.1549,0.3449,-0.4215,-4.7304,5.6348,-0.6957
850,10.0016,0.2299,-0.2299,-3.3391,5.3565,-0.3478
855,10.2315,0.1916,-0.3832,-1.8087,5.1478,-0.1391
860,10.3465,0.0383,-0.3449,-0.1391,5.287,0.1391
865,10.1932,0.1533,-0.3832,1.5304,5.5652,0.4174
870,10.2315,0.0766,-0.3832,3.0609,5.7739,0.487
875,10.1549,0.0383,-0.3832,4.4522,6.3304,0.6957
880,10.1166,0.115,-0.3066,5.6348,6.6783,0.9043
885,10.0782,0.115,-0.4215,6.6783,7.1652,1.0435
890,10.0399,-0.0766,-0.3066,7.7217,7.7217,1.3217
895,9.9633,-0.0383,-0.4215,8.6261,8.2087,1.3913
900,9.81,0.0383,-0.2299,9.5304,8.5565,1.4609
905,9.8866,-0.0383,-0.2682,10.0174,8.8348,1.4609
910,9.81,0.115,-0.2682,10.3652,8.9043,1.5304
915,9.7717,0.3066,-0.1533,10.3652,8.9739,1.3217
920,9.81,0.1533,-0.2299,10.0174,9.0435,1.0435
925,9.7717,0.3066,-0.2682,9.3217,8.9739,0.7652
930,9.695,0.3066,-0.0383,8.5565,8.9739,0.4174
935,9.7717,0.3832,-0.1916,7.513,9.113,0.2087
940,9.7334,0.4598,-0.0766,6.4,9.113,0.0696
945,9.6567,0.4215,-0.1916,5.1478,9.1826,-0.2087
950,9.6184,0.4598,-0.1533,3.8957,8.9739,-0.2783
955,9.6184,0.4982,-0.0766,2.5043,8.8348,-0.2087
960,9.6567,0.3832,-0.3066,1.1826,8.6261,0.0696
965,9.695,0.3449,-0.1916,0.0,8.2087,0.2087
970,9.695,0.3066,-0.1916,-1.0435,8.0,0.4174
975,9.7717,0.3066,-0.1916,-2.0174,7.6522,0.5565
980,9.7334,0.4215,-0.3066,-2.713,7.513,0.487
985,9.81,0.3449,-0.2299,-3.2696,7.513,0.3478
990,9.7334,0.2682,-0.3449,-3.7565,7.513,0.1391
995,9.8483,0.3449,-0.3066,-4.0348,7.7913,-0.2087
1000,9.81,0.3066,-0.3066,-4.1739,8.0696,-0.4174
1005,10.0016,0.2682,-0.3449,-3.9652,8.487,-0.6957
1010,9.8866,0.3066,-0.4598,-3.6174,8.9739,-0.9739
1015,9.925,0.2682,-0.4215,-3.0609,9.5304,-0.9739
1020,9.925,0.3066,-0.4215,-2.3652,10.0174,-1.1826
1025,9.925,0.3066,-0.3066,-1.8087,10.4348,-1.3217
1030,9.925,0.3066,-0.4598,-1.113,10.8522,-1.3217
1035,9.9633,0.3066,-0.4982,-0.2783,11.2696,-1.3217
1040,9.925,0.3832,-0.3832,0.487,11.6174,-1.2522
1045,9.8483,0.3066,-0.3449,1.1826,11.8957,-1.113
1050,9.8483,0.3449,-0.4982,1.8783,12.1739,-0.8348
1055,9.9633,0.3449,-0.3832,2.6435,12.5913,-0.5565
1060,9.925,0.3066,-0.3066,3.0609,12.8696,-0.4174
1065,9.8483,0.4982,-0.2682,3.4783,13.1478,-0.1391
1070,9.8866,0.3449,-0.2682,3.6174,13.287,0.1391
1075,10.0399,0.4598,-0.2682,3.5478,13.4261,0.3478
1080,10.0782,0.4598,-0.115,3.3391,13.6348,0.487
1085,9.8866,0.4598,-0.2682,2.9217,13.8435,0.6957
1090,9.9633,0.4598,-0.0383,2.6435,13.913,0.9043
1095,10.0016,0.4598,-0.0766,2.1565,14.0522,1.0435
1100,9.9633,0.4598,-0.115,1.8087,14.0522,1.2522
1105,9.9633,0.3832,0.0766,1.4609,14.1217,1.1826
1110,9.8866,0.3832,-0.0383,1.0435,14.2609,1.2522
1115,9.7717,0.3449,0.0383,0.5565,14.1217,1.113
1120,9.81,0.3449,0.0383,0.1391,13.7739,1.113
1125,9.81,0.3832,0.115,-0.4174,13.3565,0.9739
1130,9.925,0.4215,-0.0383,-0.8348,13.0783,0.7652
1135,9.925,0.3832,0.0383,-1.113,12.9391,0.6957
1140,9.81,0.3449,0.0766,-1.1826,12.8,0.5565
1145,9.8483,0.3449,0.2299,-1.2522,12.5217,0.487
1150,9.7717,0.3066,0.2299,-1.3913,12.2435,0.4174
1155,9.7334,0.2682,0.2299,-1.3913,12.0348,0.4174
1160,9.81,0.1533,0.1533,-1.4609,11.8261,0.487
1165,9.81,0.2682,0.1533,-1.6,11.687,0.4174
1170,9.7717,0.1916,0.3832,-1.7391,11.4783,0.3478
1175,9.7717,0.115,0.1916,-1.8087,11.3391,0.1391
1180,9.5801,0.5748,0.1916,-1.9478,11.0609,-0.0696
1185,9.8483,0.3066,0.2682,-2.087,10.6435,-0.2783
1190,9.7717,0.3066,0.3449,-2.3652,10.1565,-0.4174
1195,9.7334,0.6514,0.1533,-2.9913,9.7391,-0.6261
1200,9.7717,0.3832,0.3066,-3.6174,9.1826,-0.7652
1205,9.3118,0.4215,0.2682,-4.7304,8.487,-0.9043
1210,9.81,0.4215,0.0383,-5.7739,8.0696,-0.7652
1215,9.6567,0.5365,0.0766,-6.9565,7.513,-0.6957
1220,9.3885,0.3832,0.4982,-8.0696,7.0261,-0.7652
1225,9.9633,0.1916,0.4598,-9.0435,6.8174,-0.7652
1230,9.695,0.5365,0.3832,-9.5304,6.6087,-0.7652
1235,9.695,0.1916,0.1533,-9.6696,6.6783,-0.6957
1240,10.2698,-0.0383,0.2682,-9.6696,6.887,-0.5565
1245,9.8483,0.5748,0.0383,-9.3217,7.1652,-0.4174
1250,9.81,-0.3066,1.0346,-8.8348,7.4435,-0.4174
1255,9.5801,0.1533,0.3832,-8.2087,7.7217,-0.5565
1260,10.1166,0.4215,-0.0383,-7.3739,8.1391,-0.6261
1265,9.81,-0.4982,0.4982,-6.4,8.487,-0.487
1270,10.0016,-0.2299,0.2682,-5.287,8.9043,-0.4174
1275,9.8483,-0.0766,0.2682,-4.1739,9.113,-0.3478
1280,9.8483,0.115,0.0383,-2.9913,9.1826,-0.4174
1285,9.9633,0.0766,0.0766,-1.9478,9.0435,-0.3478
1290,9.5801,0.2299,0.3066,-0.9739,8.9739,-0.3478
1295,10.0399,0.1533,0.2682,-0.0696,8.6957,-0.5565
1300,9.9633,0.1916,0.0,0.6957,8.5565,-0.6261
1305,10.0016,0.2299,0.1533,1.1826,8.4174,-0.7652
1310,9.8483,0.3449,-0.0383,1.6,8.487,-0.9043
1315,9.8866,0.3066,0.0,1.8783,8.7652,-1.0435
1320,10.0016,0.2682,-0.0766,1.9478,9.1826,-1.2522
1325,9.8483,0.3066,-0.115,1.8783,9.6,-1.3913
1330,9.925,0.3449,0.115,1.6696,10.087,-1.3217
1335,10.0016,0.0383,0.0766,1.5304,10.3652,-1.2522
1340,9.81,0.115,0.1533,1.3913,10.713,-0.9043
1345,9.81,0.2682,0.0766,1.2522,10.8522,-0.6261
1350,9.8866,0.1533,0.115,1.0435,10.9217,-0.487
1355,9.925,0.3066,-0.1916,1.1826,10.9913,-0.3478
1360,9.8483,0.4598,0.1533,1.5304,11.1304,-0.1391
1365,9.8483,0.115,0.0766,1.9478,11.2696,-0.1391
1370,10.1549,0.115,-0.115,2.4348,11.4783,-0.2783
1375,9.6567,0.2299,0.1533,3.1304,11.687,-0.487
1380,9.8483,-0.0383,0.5748,3.687,11.9652,-0.487
1385,10.0016,1.0346,0.0,4.0348,12.1043,-0.5565
1390,9.6567,0.5365,0.2299,4.3826,12.1043,-0.7652
1395,9.7334,0.4982,0.5748,4.2435,12.0348,-0.8348
1400,9.81,0.4598,0.0383,3.8261,11.8957,-0.9043
1405,10.0016,0.6898,0.115,3.0609,11.6174,-0.8348
1410,9.925,0.7281,0.1916,2.0174,11.4087,-0.6261
1415,9.81,1.073,0.3449,0.6957,11.0609,-0.487
1420,9.6567,0.4598,0.3066,-0.7652,10.3652,-0.2087
1425,9.925,0.6514,0.4598,-2.0174,10.0174,0.0696
1430,10.3848,0.6514,0.2682,-3.4087,9.6,0.4174
1435,9.7717,0.6131,0.5748,-4.8,9.3217,0.6957
1440,9.6567,0.5365,0.6898,-6.2609,9.113,0.7652
1445,9.7334,0.4982,0.6131,-7.4435,9.0435,0.9043
1450,10.3082,0.4215,0.2682,-8.6957,9.0435,0.9043
1455,9.8483,0.3449,0.3066,-9.7391,9.113,0.6957
1460,9.6567,0.5365,0.3832,-10.7826,9.113,0.5565
1465,10.1166,0.5365,0.3832,-11.5478,9.1826,0.3478
1470,9.7717,0.3832,0.3066,-11.9652,9.3217,0.2783
1475,10.0399,0.2299,0.4982,-12.0348,9.3913,0.1391
1480,10.0782,0.3066,0.3066,-11.9652,9.3217,0.2087
1485,9.8483,0.3832,0.2299,-11.687,9.1826,0.3478
1490,9.8483,0.2682,0.2682,-11.1304,9.2522,0.4174
1495,9.81,0.2299,0.2682,-10.3652,8.9043,0.487
1500,9.81,0.115,0.1916,-9.3913,8.9043,0.487
1505,9.7334,0.0383,0.4598,-8.3478,8.8348,0.487
1510,9.5034,0.115,0.3449,-7.2348,8.7652,0.3478
1515,9.695,0.3066,0.0766,-6.1217,8.7652,0.2087
1520,9.8483,0.1533,0.3066,-4.8696,8.8348,0.0
1525,10.2698,0.0383,0.115,-4.1043,9.113,-0.2087
1530,9.8483,0.5748,0.4215,-3.4783,9.3217,-0.487
1535,9.4651,-0.5748,0.6898,-3.0609,9.6,-0.6957
1540,10.2698,0.1533,0.1916,-2.713,9.8087,-0.7652
1545,9.9633,0.4215,-0.115,-2.5043,10.0174,-0.9739
1550,9.9633,0.0383,0.3449,-2.3652,10.1565,-0.7652
1555,9.8483,0.1533,0.4215,-2.2957,10.2261,-0.5565
1560,9.5801,0.3066,0.3449,-2.1565,10.4348,-0.3478
1565,9.8866,0.0383,0.0,-1.8087,10.6435,0.0
1570,9.925,-0.0766,0.3832,-1.1826,10.8522,0.2783
1575,9.4268,0.3449,0.3066,-0.2783,10.8522,0.9739
1580,9.7717,0.4215,0.3449,0.6261,11.0609,1.8087
1585,9.5418,0.9197,-0.1916,1.6,11.1304,2.4348
1590,9.7717,0.2299,0.7281,2.1565,11.1304,2.9913
1595,9.6567,0.958,-0.0766,2.087,10.9913,3.2696
1600,9.5034,0.6898,0.1916,1.5304,10.7826,3.5478
1605,9.6184,0.6898,0.3449,0.4174,10.6435,3.7565
1610,9.5418,0.4982,0.2299,-1.1826,10.2957,3.8261
1615,9.4268,0.5748,0.3066,-3.2696,9.8087,3.7565
1620,9.6567,0.9963,-0.1533,-5.7739,9.4609,3.7565
1625,9.4651,0.3832,0.2682,-8.4174,9.113,3.6174
1630,9.5418,0.8047,0.6898,-10.9913,8.6957,3.4783
1635,9.695,0.4215,0.5748,-13.6348,8.5565,3.3391
1640,9.6567,0.3832,0.4982,-15.9304,8.1391,3.2696
1645,9.6567,0.3449,0.7664,-17.8087,8.1391,3.2
1650,9.7334,0.2299,0.5365,-19.3391,8.0696,3.1304
1655,9.81,0.2682,0.4598,-20.3826,8.1391,3.2
1660,9.7334,0.3832,0.7664,-20.9391,8.487,3.2
1665,9.6184,0.6131,0.1916,-21.0087,8.7652,3.2
1670,9.7334,0.3066,0.6131,-20.6609,8.8348,3.2
1675,9.6184,-0.0766,0.958,-19.9652,8.7652,3.2
1680,9.695,0.0766,1.0346,-18.713,8.2087,3.1304
1685,9.5418,0.4215,0.843,-17.2522,7.513,2.9913
1690,9.4651,0.4215,0.8047,-15.5826,6.6783,2.9217
1695,9.6567,0.4215,0.5748,-13.913,5.7739,2.9217
1700,9.3885,0.0383,0.4215,-12.313,5.1478,3.1304
1705,9.8483,0.4598,0.5365,-11.0609,4.7304,2.9913
1710,9.8483,0.3066,0.8047,-9.8783,4.6609,2.713
1715,9.81,0.6131,0.7664,-8.8348,4.7304,2.5043
1720,9.81,0.3832,0.3449,-8.1391,4.6609,2.2957
1725,9.9633,0.843,0.3449,-7.3739,4.313,2.1565
1730,9.8866,0.2299,0.3832,-6.6087,3.5478,2.0174
1735,9.9633,0.0383,-0.3066,-5.913,2.5739,1.9478
1740,10.0399,0.2299,0.1916,-5.287,1.6,2.0174
1745,9.9633,0.0766,0.2299,-4.7304,0.6957,1.9478
1750,10.1166,0.2299,-0.0383,-4.1043,0.0696,1.8087
1755,10.1932,-0.0383,0.1916,-3.3391,-0.2087,1.8783
1760,10.0016,0.115,0.3449,-2.3652,0.0,1.8783
1765,9.8866,0.1533,0.115,-1.3217,0.2783,1.8087
1770,9.8866,-0.1533,0.4215,-0.4174,1.0435,1.6696
1775,10.1549,0.0,0.6131,0.6261,1.8783,1.4609
1780,9.4268,0.0,-0.1533,1.5304,2.9217,1.2522
1785,9.8866,-0.4598,0.115,2.2957,4.1739,1.1826
1790,10.0016,0.0,0.4215,2.7826,5.287,0.9739
1795,9.81,0.0383,0.2682,3.2696,6.4,0.6261
1800,9.81,0.0766,0.3066,3.4087,7.4435,0.4174
1805,9.81,0.1916,0.3449,3.5478,8.3478,0.4174
1810,9.81,0.115,0.3832,3.4087,9.0435,0.3478
1815,9.8483,0.1533,0.5365,3.3391,9.6,0.3478
1820,9.8483,0.1916,0.1533,3.2,9.8087,0.3478
1825,9.925,0.0383,0.4215,3.0609,9.8087,0.2783
1830,9.81,0.3449,0.958,2.7826,9.8087,0.3478
1835,9.925,0.115,0.2299,2.5043,9.5304,0.2783
1840,9.5034,0.4215,0.0383,2.3652,9.3217,0.3478
1845,9.8483,0.2299,0.3066,2.087,9.1826,0.2783
1850,9.6567,-0.5365,0.843,1.8087,9.113,0.0696
1855,10.3082,-0.3449,0.5365,1.8087,8.9043,-0.0696
1860,9.7334,-0.115,0.7664,1.7391,8.8348,-0.3478
1865,9.6184,-0.0383,0.7281,1.6696,8.6261,-0.5565
1870,9.8483,0.2682,0.7281,1.5304,8.2783,-0.6261
1875,9.7717,0.115,0.4598,1.3217,8.0,-0.6957
1880,9.7717,0.2299,0.6131,0.9739,7.7217,-0.9739
1885,9.4268,0.0383,1.2646,0.7652,7.3739,-1.113
1890,9.7334,0.4598,0.9963,0.3478,7.0957,-1.2522
1895,9.6567,-0.1916,0.958,-0.0696,6.9565,-1.1826
1900,9.925,-0.0383,0.5365,-0.3478,6.6783,-1.1826
1905,9.925,0.115,0.4982,-0.6261,6.4,-1.2522
1910,9.4651,0.2299,0.5365,-0.9043,6.2609,-1.3217
1915,10.1932,0.3449,0.6131,-1.0435,6.1217,-1.2522
1920,9.5418,-0.1533,0.4598,-1.0435,5.913,-1.2522
1925,9.9633,0.1916,0.3832,-0.9043,5.4957,-1.2522
1930,9.6184,0.3832,0.9197,-0.5565,4.9391,-1.113
1935,9.6567,0.2682,0.6131,-0.2783,4.4522,-0.9739
1940,9.9633,-0.0766,0.6131,0.0,4.1043,-0.8348
1945,9.9633,0.1916,0.4215,0.3478,3.9652,-0.6957
1950,9.8483,0.0383,0.8047,0.6261,3.687,-0.6957
1955,9.81,0.2299,0.6514,0.9739,3.4783,-0.6261
1960,9.7717,0.2299,0.4982,1.1826,3.4087,-0.6957
1965,9.8483,0.2682,0.5365,1.4609,3.4783,-0.6957
1970,9.7717,0.2682,0.6131,1.7391,3.3391,-0.8348
1975,9.6567,0.3832,0.6131,1.9478,3.4783,-0.8348
1980,9.81,0.2299,0.5365,2.1565,3.5478,-0.9043
1985,9.695,0.2299,0.5748,2.1565,3.6174,-0.9739
1990,9.6567,0.3066,1.073,1.7391,3.4783,-1.2522
1995,9.8483,0.6131,0.0766,1.0435,3.5478,-1.3913
2000,9.9633,0.4982,0.843,0.4174,3.7565,-1.3217
2005,9.9633,0.1533,0.4982,-0.4174,3.8261,-1.1826
2010,10.1549,0.3066,0.8814,-1.4609,4.1043,-1.0435
2015,9.4268,0.8047,0.1916,-2.3652,4.2435,-0.9043
2020,9.925,0.2299,0.5748,-3.0609,4.2435,-0.7652
2025,9.81,0.0,0.7281,-3.7565,4.2435,-0.4174
2030,9.8483,-0.1916,0.3832,-3.9652,4.1043,-0.3478
2035,9.3502,0.0,0.8047,-3.8261,3.9652,-0.2087
2040,9.8866,0.115,0.8814,-3.4783,3.6174,-0.2783
2045,10.0399,-0.115,0.3066,-2.7826,3.3391,-0.4174
2050,9.8866,0.0766,1.073,-1.8087,3.2,-0.487
2055,10.1549,-0.0766,0.3449,-1.0435,2.713,-0.9739
2060,9.6567,0.2682,0.2299,-0.3478,2.2957,-1.4609
2065,9.6184,0.115,0.5365,0.3478,2.087,-1.5304
2070,9.7717,0.0383,0.3066,1.113,1.7391,-1.8087
2075,9.7334,0.0383,0.5365,1.6696,1.6696,-1.8783
2080,10.0399,0.2299,0.4215,2.2261,1.6,-1.8087
2085,9.695,0.3066,0.3449,2.6435,1.6696,-1.9478
2090,10.0782,0.2682,0.0766,3.0609,1.6696,-1.9478
2095,9.925,-0.2682,0.4982,3.4783,1.7391,-2.087
2100,9.4651,0.1533,0.5365,3.7565,1.8087,-2.087
2105,9.8483,0.115,0.4598,3.7565,1.8087,-2.0174
2110,9.8483,0.3066,0.4598,3.687,1.9478,-1.9478
2115,9.81,0.2299,0.4598,3.4783,2.087,-1.8087
2120,9.81,0.2682,0.4215,3.2,2.2957,-1.8087
2125,9.8483,-0.0383,0.4215,2.3652,2.5043,-1.6
2130,9.81,0.3066,0.5748,2.0174,2.5043,-1.4609
2135,9.7717,0.3066,0.6131,1.5304,2.6435,-1.3217
2140,9.925,0.1916,0.4598,1.2522,2.6435,-1.2522
2145,9.81,0.3066,0.6514,0.9043,2.5043,-1.2522
2150,9.81,0.1916,0.4982,0.6957,2.3652,-1.1826
2155,9.81,0.0766,0.5365,0.5565,2.1565,-1.113
2160,9.925,0.0766,0.4982,0.4174,1.9478,-1.1826
2165,9.81,0.0766,0.4215,0.3478,1.8087,-1.2522
2170,9.7717,0.2682,0.7281,0.5565,1.6696,-1.3217
2175,9.8483,0.0766,0.4215,0.7652,1.6696,-1.3913
2180,9.81,0.2682,0.5365,1.113,1.4609,-1.5304
2185,9.81,0.2682,0.4215,1.3217,1.4609,-1.5304
2190,9.81,0.2682,0.4598,1.6,1.3913,-1.7391
2195,9.8483,0.4215,0.5748,1.8087,1.1826,-1.8087
2200,9.7717,0.1916,0.3832,1.6,0.9739,-1.8783
2205,9.7717,0.4215,0.4982,1.3913,0.9043,-1.8087
2210,9.695,0.4215,0.3832,0.9739,0.6261,-1.9478
2215,9.7334,0.4982,0.4598,0.487,0.4174,-1.9478
2220,9.7334,0.3449,0.3066,-0.2087,0.2783,-2.0174
2225,9.7717,0.3449,0.4215,-0.9739,0.2087,-1.9478
2230,9.81,0.3832,0.2299,-1.6,0.1391,-1.9478
2235,9.8483,0.3449,0.5365,-2.3652,0.2783,-1.9478
2240,9.8483,0.4215,0.3449,-2.9913,0.2783,-1.9478
2245,9.7334,0.3832,0.5365,-3.4783,0.3478,-1.8783
2250,9.925,0.3832,0.4598,-3.9652,0.6261,-1.8783
2255,9.8483,0.3832,0.3832,-4.1739,0.8348,-1.8087
2260,9.925,0.3066,0.2299,-4.4522,1.0435,-1.8087
2265,9.8866,0.3449,0.2299,-4.5913,1.3913,-1.6696
2270,10.0016,0.3449,0.2682,-4.5913,1.6696,-1.5304
2275,9.925,0.3449,0.3832,-4.5217,1.7391,-1.3217
2280,10.0399,0.3066,0.3066,-4.313,1.8087,-1.113
2285,9.8866,0.3066,0.3066,-3.9652,1.8087,-0.9739
2290,9.7334,0.3066,0.0766,-3.4783,1.7391,-0.9739
2295,10.0016,0.3066,0.2682,-2.9217,1.6,-0.8348
2300,9.8866,0.3066,0.2299,-2.3652,1.6,-0.7652
2305,9.9633,0.3066,0.1533,-1.7391,1.4609,-0.7652
2310,9.8483,0.2299,0.3832,-1.113,1.6,-0.8348
2315,9.8866,0.3066,0.1916,-0.487,1.6696,-0.8348
2320,9.7717,0.2682,0.2682,0.0,1.8087,-0.6261
2325,9.925,0.3066,0.2299,0.3478,2.0174,-0.5565
2330,9.8483,0.3066,0.1916,0.6957,2.2957,-0.6261
2335,10.3082,0.4982,0.3832,0.9043,2.5043,-0.6261
2340,9.7717,0.2299,0.3066,0.9739,2.5043,-0.5565
2345,9.8866,0.3449,0.2299,0.9739,2.5739,-0.5565
2350,9.8483,0.2682,0.1916,1.113,2.5739,-0.6261
2355,9.925,0.2682,0.4982,1.2522,2.5043,-0.5565
2360,9.9633,0.3066,0.115,1.3217,2.2957,-0.6261
2365,9.81,0.2299,0.2299,1.3913,2.1565,-0.6261
2370,9.695,0.3066,0.2682,1.4609,2.087,-0.6261
2375,9.7334,0.3066,0.3449,1.5304,2.087,-0.7652
2380,9.8483,0.3066,0.3449,1.6,2.0174,-0.9043
2385,9.7334,0.3449,0.3449,1.6,2.087,-0.9043
2390,9.6567,0.3832,0.3449,1.4609,2.1565,-1.0435
2395,9.81,0.2299,0.3449,1.113,2.2261,-1.1826
2400,9.81,0.2682,0.3449,0.7652,2.4348,-1.2522
2405,9.8866,0.3066,0.0,0.5565,2.6435,-1.113
2410,9.8483,0.3066,0.3832,0.2087,2.7826,-1.113
2415,9.925,0.2299,0.3449,-0.3478,3.0609,-1.113
2420,9.925,0.3066,0.4215,-0.7652,2.9913,-0.9739
2425,9.8483,0.2682,0.4598,-1.0435,2.713,-0.9043
2430,9.7334,0.1916,0.1916,-1.1826,2.5739,-0.6957
2435,9.925,0.1533,0.3449,-1.1826,2.2261,-0.5565
2440,9.8866,0.1916,0.3066,-0.9739,1.9478,-0.5565
2445,9.8483,0.2299,0.3449,-0.6261,1.6696,-0.487
2450,9.8866,0.115,0.3832,-0.2783,1.4609,-0.6957
2455,9.8483,0.2299,0.3066,0.2087,1.3913,-0.8348
2460,9.7717,0.3066,0.4215,0.5565,1.2522,-0.9043
2465,9.8483,0.2682,0.3449,0.8348,1.2522,-1.0435
2470,9.8483,0.2682,0.2299,1.0435,1.113,-1.113
2475,9.8866,0.3066,0.3066,1.2522,1.2522,-1.1826
2480,9.8866,0.3066,0.1533,1.2522,1.2522,-1.3217
2485,9.8866,0.3066,0.3832,1.113,1.3913,-1.2522
2490,9.8483,0.3449,0.3449,0.9739,1.6,-1.1826
2495,9.925,0.3066,0.2299,0.6957,1.7391,-1.1826
2500,9.8483,0.2299,0.3449,0.4174,1.8783,-1.113
2505,10.0016,0.3832,0.2682,0.0696,1.9478,-0.9043
2510,9.8483,0.3449,0.2682,-0.2783,2.087,-0.7652
2515,9.7334,0.2682,0.1916,-0.6957,2.1565,-0.7652
2520,9.81,0.3832,0.0383,-0.8348,2.0174,-0.6261
2525,9.8483,0.3449,0.2682,-1.0435,1.9478,-0.5565
2530,9.81,0.3449,0.0383,-1.1826,2.0174,-0.6261
2535,9.81,0.3449,0.3066,-1.113,2.2261,-0.6957
2540,9.8866,0.3066,0.1916,-1.1826,2.4348,-0.7652
2545,9.81,0.3832,0.115,-0.9739,2.6435,-0.7652
2550,9.81,0.3066,0.3066,-0.8348,2.9217,-0.7652
2555,9.8483,0.3449,-0.0383,-0.6957,3.0609,-0.6957
2560,9.81,0.2682,0.1916,-0.4174,3.2,-0.5565
2565,10.0016,0.3066,0.1533,-0.2087,2.9217,-0.487
2570,9.81,0.3066,0.115,0.0,2.9913,-0.3478
2575,9.81,0.3449,0.1916,0.2783,2.8522,-0.2783
2580,9.925,0.3449,0.2299,0.6957,2.9217,-0.2087
2585,9.8483,0.4215,0.2299,0.9739,3.1304,-0.2087
2590,9.7717,0.3832,0.1916,1.0435,3.3391,-0.2783
2595,9.9633,0.3449,0.1533,0.9043,3.6174,-0.2783
2600,9.925,0.3449,0.1533,0.487,4.0348,-0.4174
2605,9.81,0.3832,0.3066,0.2783,4.2435,-0.487
2610,9.8866,0.3449,0.3066,-0.0696,4.0348,-0.4174
2615,9.81,0.3449,0.1916,-0.3478,3.8957,-0.4174
2620,9.8866,0.3832,0.1916,-0.6957,3.4087,-0.3478
2625,9.925,0.2682,0.0383,-0.6957,2.713,-0.2087
2630,9.8483,0.3066,0.2299,-0.5565,2.0174,-0.0696
2635,9.8866,0.3066,0.115,-0.2087,1.3217,-0.1391
2640,9.925,0.3066,-0.0383,0.2783,0.7652,-0.1391
2645,9.9633,0.0766,0.115,0.9739,0.5565,-0.1391
2650,9.8866,0.1533,0.0,1.6,0.6261,-0.2087
2655,9.8483,0.2299,0.0,2.3652,0.9043,-0.2783
2660,9.9633,0.2299,0.0,3.0609,1.1826,-0.3478
2665,9.925,0.1533,0.115,3.7565,1.8783,-0.3478
2670,9.925,0.3066,0.1916,4.5217,2.713,-0.487
2675,9.81,0.3066,0.0383,5.0783,3.3391,-0.4174
2680,9.81,0.2299,0.0766,5.3565,3.9652,-0.2783
2685,9.8866,0.3832,0.0766,5.6348,4.5217,-0.2783
2690,9.8483,0.3066,0.115,5.6348,4.9391,-0.0696
2695,9.8866,0.3449,-0.0766,5.287,5.0783,-0.1391
2700,9.8483,0.3449,0.1916,4.8,5.2174,-0.0696
2705,9.8866,0.3066,0.1916,4.1739,5.4261,0.0696
2710,9.8483,0.3832,0.1533,3.687,5.4957,0.1391
2715,9.8483,0.3449,0.1533,2.9217,5.6348,0.2087
2720,9.81,0.3066,0.1916,2.3652,5.7739,0.2783
2725,9.81,0.3066,0.3066,2.0174,6.0522,0.3478
2730,9.8483,0.3449,0.1916,1.6,6.2609,0.2783
2735,9.8866,0.2682,0.115,1.5304,6.5391,0.3478
2740,9.81,0.3066,0.115,1.3913,6.6087,0.3478
2745,9.81,0.2299,0.115,1.3913,6.887,0.3478
2750,9.8483,0.3449,0.115,1.4609,7.0261,0.3478
2755,9.8866,0.2682,0.1916,1.4609,7.3043,0.2783
2760,9.81,0.3066,0.1916,1.6,7.4435,0.2087
2765,9.81,0.3449,0.1916,1.5304,7.5826,0.1391
2770,9.8866,0.3832,0.2299,1.4609,7.7217,0.1391
2775,9.8483,0.3066,0.2299,1.2522,7.7913,0.1391
2780,9.8866,0.3066,0.1533,1.113,7.9304,0.2087
2785,9.8483,0.3066,0.1533,0.9739,8.0,0.2783
2790,9.81,0.3832,-0.0383,0.8348,8.0,0.2783
2795,9.8483,0.3066,0.115,0.6957,8.0,0.3478
2800,9.8483,0.3066,0.2299,0.5565,8.0,0.4174
2805,9.925,0.3066,0.1533,0.487,8.1391,0.4174
2810,9.8483,0.3449,0.1533,0.3478,8.3478,0.4174
2815,9.8483,0.2682,0.1916,0.2783,8.6261,0.3478
2820,9.8483,0.3066,0.2299,0.1391,8.9043,0.4174
2825,9.8866,0.3066,0.2299,0.1391,9.113,0.4174
2830,9.8866,0.2682,0.2682,0.0696,9.3913,0.487
2835,9.8483,0.3066,0.2682,0.3478,9.6,0.487
2840,9.8483,0.2682,0.1916,0.4174,9.6,0.487
2845,9.8866,0.3066,0.2682,0.5565,9.8783,0.5565
2850,9.8483,0.3066,0.2299,0.7652,10.0174,0.6261
2855,9.8483,0.2682,0.2682,0.9043,10.2957,0.6957
2860,9.925,0.2299,0.3832,1.113,10.4348,0.8348
2865,9.81,0.3449,0.3449,1.1826,10.5739,0.8348
2870,9.8866,0.3066,0.3066,1.2522,10.5739,0.9043
2875,9.8483,0.3066,0.2682,1.1826,10.5043,0.9739
2880,9.8483,0.3449,0.1916,1.1826,10.5739,1.113
2885,9.925,0.2299,0.1533,1.0435,10.5739,1.1826
2890,9.8483,0.2299,0.3066,0.9739,10.6435,1.1826
2895,9.81,0.3066,0.3832,0.9043,10.9217,1.1826
2900,9.8483,0.4215,0.3066,0.7652,11.0609,1.0435
2905,9.8866,0.3066,0.2299,0.6957,11.3391,0.9739
2910,9.8483,0.2299,0.3449,0.487,11.5478,0.8348
2915,9.8866,0.3066,0.3449,0.2783,11.4783,0.7652
2920,9.8866,0.3066,0.2682,-0.0696,11.2696,0.7652
2925,9.925,0.3066,0.3066,-0.3478,11.0609,0.6261
2930,9.7334,0.3449,0.3066,-0.5565,10.7826,0.6261
2935,9.8483,0.3449,0.1916,-0.8348,10.5043,0.487
2940,9.81,0.2299,0.3832,-1.1826,10.3652,0.487
2945,9.81,0.1533,0.4598,-1.3217,10.4348,0.487
2950,9.8483,0.3066,0.1916,-1.5304,10.4348,0.487
2955,9.81,0.2682,0.2299,-1.7391,10.5043,0.487
2960,9.8483,0.3066,0.4215,-1.8087,10.4348,0.487
2965,9.8483,0.3066,0.4215,-1.8087,10.5043,0.5565
2970,9.81,0.2682,0.4215,-1.7391,10.6435,0.5565
2975,9.81,0.2682,0.2682,-1.6,10.6435,0.5565
2980,9.7717,0.1916,0.4215,-1.6,10.8522,0.5565
2985,9.8866,0.3066,0.4215,-1.4609,10.9913,0.487
2990,9.7717,0.3066,0.4215,-1.2522,11.1304,0.5565
2995,9.81,0.3449,0.2299,-1.1826,11.2696,0.5565
