timestamp,accX,accY,accZ,gyroX,gyroY,gyroZ
0,-3.5255,-11.4578,2.1459,-4.8,29.3565,-3.7565
5,-3.947,-11.726,2.3375,-2.5043,26.5739,-0.6261
10,-4.2919,-11.8793,2.6824,-0.1391,25.6696,3.8261
15,-4.7134,-11.6877,2.874,2.713,26.5739,8.487
20,-4.5218,-11.6877,2.7974,6.3304,27.5478,14.1913
25,-4.2536,-11.8027,2.6058,9.8087,28.1739,18.9217
30,-3.6021,-12.1475,2.5675,12.0348,29.0783,23.0957
35,-2.7591,-12.3391,2.5291,13.3565,30.7478,26.0174
40,-2.3759,-12.799,2.7207,14.4,32.1391,27.6174
45,-1.6861,-12.9906,2.6824,16.6261,31.0261,29.4261
50,-1.4179,-13.0289,2.3375,19.0609,27.687,30.4
55,-0.958,-12.9139,1.5711,20.7304,24.1391,30.887
60,-0.7664,-12.5691,1.1113,20.7304,21.9826,30.3304
65,-0.6131,-11.9943,0.4598,19.8957,21.8435,28.6609
70,-0.6514,-11.1895,0.1533,19.2,23.1652,26.4348
75,-0.8047,-10.6147,-0.1533,18.6435,25.3913,24.8348
80,-1.073,-9.9633,-0.5365,17.6,27.1304,23.5826
85,-1.4179,-9.7334,-1.073,14.8174,28.1043,22.6087
90,-1.8011,-9.8483,-1.8394,9.9478,29.4261,21.7043
95,-1.9927,-9.925,-2.4908,4.1739,30.887,21.3565
100,-2.3375,-10.0782,-2.7207,-1.2522,31.7217,20.9391
105,-2.9123,-10.4231,-2.9123,-4.5217,31.0957,20.9391
110,-3.4871,-10.4614,-3.2572,-4.8696,28.8,21.5652
115,-4.1769,-10.3082,-3.6787,-3.2696,25.0435,22.5391
120,-4.7517,-9.8483,-4.4068,-1.3217,19.9652,23.8609
125,-4.8667,-9.3502,-4.9816,-0.9043,14.0522,26.2261
130,-4.6751,-8.967,-5.8247,-3.2696,8.8348,29.7043
135,-3.7937,-8.8137,-6.0929,-8.7652,5.3565,33.7391
140,-2.6441,-8.7754,-5.7864,-15.0261,4.5217,37.913
145,-1.8011,-8.967,-4.79,-19.4087,6.0522,41.0435
150,-0.8814,-9.1586,-3.7171,-20.2435,9.113,42.2957
155,-0.3449,-9.2735,-2.6058,-18.3652,12.6609,40.8348
160,0.2299,-9.6184,-1.8011,-14.887,15.9304,37.287
165,0.7281,-9.925,-1.1113,-10.5043,17.9478,31.4435
170,1.073,-9.9633,-0.9197,-4.8,17.6,23.5826
175,1.5711,-10.3082,-0.8814,2.7826,15.2348,15.3043
180,2.031,-10.3465,-1.3412,10.9217,12.4522,7.513
185,2.2609,-10.5764,-1.6478,17.8087,10.713,1.1826
190,2.3375,-10.4998,-1.7627,23.2348,10.4348,-4.313
195,2.031,-10.6914,-1.8011,27.8957,11.0609,-9.0435
200,1.4945,-10.8063,-1.8011,31.7217,11.6174,-13.2174
205,0.6514,-10.653,-1.5711,34.9217,11.4087,-16.7652
210,-0.0766,-10.3082,-1.4562,36.8696,10.1565,-19.5478
215,-0.8047,-10.1549,-1.1879,37.8435,8.1391,-21.7043
220,-1.3412,-9.7334,-1.3412,37.4261,5.913,-23.3739
225,-2.1076,-9.3885,-1.1879,35.6174,3.7565,-25.0435
230,-2.5675,-8.8903,-0.843,33.3217,1.6,-26.9217
235,-2.9123,-8.5071,-0.7281,31.7913,-0.9739,-29.3565
240,-3.2572,-8.2005,-0.9963,30.6783,-3.5478,-30.9565
245,-3.5255,-8.0856,-1.2263,27.8957,-5.8435,-31.6522
250,-3.6021,-8.0473,-1.1879,22.2609,-8.2783,-31.7913
255,-3.1806,-8.0089,-1.0346,16.1391,-11.0609,-32.3478
260,-3.0273,-7.894,-0.958,11.4783,-13.7739,-33.113
265,-2.874,-7.8173,-0.6898,8.487,-16.2783,-33.8087
270,-2.3759,-7.6641,-0.7281,7.1652,-18.7826,-34.5739
275,-2.0693,-7.6257,-0.843,6.5391,-21.6348,-34.8522
280,-1.7244,-7.5874,-0.9963,6.0522,-24.6261,-34.9913
285,-1.2263,-7.5108,-1.073,5.0783,-27.3391,-35.1304
290,-0.9197,-7.3575,-1.1496,3.8261,-29.7739,-35.3391
295,-0.5365,-7.2809,-1.1879,3.3391,-31.513,-35.4783
300,-0.4215,-7.3575,-1.2263,2.2261,-32.5565,-35.6174
305,-0.3066,-7.3192,-1.3795,0.1391,-33.3217,-35.2
310,-0.3066,-7.3575,-1.2646,-3.2,-34.3652,-34.0174
315,-0.2682,-7.5108,-1.3029,-8.1391,-35.687,-32.2087
320,-0.4215,-7.5491,-1.1879,-13.7739,-36.9391,-28.8
325,-0.4598,-7.8173,-0.9963,-19.5478,-37.7739,-25.6
330,-0.3832,-8.1622,-0.5748,-24.6261,-38.4696,-22.6783
335,-0.5365,-8.5071,-0.2299,-27.9652,-39.1652,-19.8261
340,-0.3449,-8.737,0.0,-29.6348,-39.513,-17.0435
345,-0.2299,-9.2352,0.0766,-29.287,-39.6522,-14.4696
350,-0.115,-9.4268,-0.0383,-27.8261,-39.3739,-12.3826
355,-0.0383,-9.7717,0.115,-25.4609,-38.8174,-10.7826
360,0.115,-9.9633,0.0766,-22.3304,-38.1913,-9.6696
365,0.2299,-10.0016,0.1533,-18.713,-37.5652,-8.6957
370,0.4598,-10.0016,0.2682,-14.7478,-36.8696,-8.2783
375,0.6514,-10.0782,0.115,-10.7826,-35.8261,-8.1391
380,0.6131,-9.925,0.0,-7.0957,-34.2957,-8.2783
385,0.6898,-9.6184,0.0,-3.5478,-32.6261,-8.9043
390,0.6131,-9.3118,-0.2682,-0.6261,-30.7478,-9.6696
395,0.7281,-9.0819,0.0383,1.5304,-28.5217,-10.4348
400,0.6514,-8.6604,0.0383,3.2696,-25.8783,-11.4783
405,0.5748,-8.5838,0.1916,4.1739,-22.8174,-12.1043
410,0.3832,-8.6987,-0.0383,2.9913,-19.6174,-11.9652
415,0.1533,-8.5838,0.115,0.0,-16.6261,-10.5043
420,-0.0766,-8.852,0.0766,-3.687,-14.3304,-8.6957
425,-0.1533,-8.852,0.2299,-7.4435,-12.5217,-7.3043
430,-0.2682,-8.8903,0.4982,-9.3217,-11.2696,-6.4
435,-0.4215,-9.0053,0.6514,-8.7652,-10.1565,-5.4957
440,-0.3832,-9.0053,0.7664,-6.9565,-9.3217,-4.9391
445,-0.4982,-8.7754,0.7664,-4.6609,-8.5565,-4.5913
450,-0.4215,-8.5071,0.6898,-2.1565,-8.0696,-3.9652
455,-0.4982,-8.3921,0.4982,0.0,-7.7913,-3.1304
460,-0.4982,-8.0473,0.3832,0.3478,-7.6522,-1.6
465,-0.4215,-7.894,0.4598,-0.7652,-7.8609,0.0696
470,-0.3832,-7.9323,0.4598,-2.7826,-8.4174,1.9478
475,-0.4598,-7.9323,0.4598,-5.0087,-9.2522,3.6174
480,-0.5365,-8.0089,0.6898,-7.1652,-10.5043,5.3565
485,-0.6514,-8.2772,0.843,-8.8348,-12.2435,7.0957
490,-0.6898,-8.5071,1.073,-10.0174,-14.4,8.6957
495,-0.9197,-8.9286,1.3412,-9.8087,-17.0435,10.087
500,-0.843,-9.3118,1.6478,-8.4174,-20.1739,11.0609
505,-0.958,-9.6184,1.6478,-5.3565,-23.5826,11.5478
510,-1.0346,-9.925,1.8011,-1.0435,-26.713,11.9652
515,-1.1496,-10.1549,1.9927,4.0348,-29.4957,11.8261
520,-1.2263,-10.4231,1.9927,9.9478,-32.0696,11.1304
525,-1.1113,-10.653,1.8011,15.4435,-34.713,10.9913
530,-1.073,-10.768,1.6478,20.2435,-37.0783,10.713
535,-1.1496,-10.8063,1.3795,24.0696,-39.0957,9.8783
540,-1.1496,-10.768,0.958,26.1565,-40.8348,9.3217
545,-1.1496,-10.6914,0.4982,26.713,-41.8087,8.6261
550,-1.1113,-10.6147,0.0383,26.0174,-41.7391,7.7217
555,-1.0346,-10.5381,-0.1916,24.1391,-40.2783,6.7478
560,-1.073,-10.5764,-0.2682,21.0783,-38.0522,5.913
565,-1.1113,-10.5764,0.0766,17.2522,-36.8696,6.3304
570,-0.958,-10.4998,0.4598,13.7739,-37.2174,6.9565
575,-0.2299,-10.6147,0.7281,11.4783,-37.5652,7.0261
580,0.2682,-10.7297,1.0346,9.6,-36.3826,5.913
585,0.6514,-10.9596,1.4945,7.513,-34.3652,4.2435
590,1.0346,-11.4195,2.1459,4.8,-33.1826,2.087
595,1.6861,-12.1092,2.7207,1.5304,-33.5304,-0.4174
600,2.2226,-12.4158,2.7591,-1.3913,-35.1304,-3.687
605,2.7207,-12.8373,2.7207,-3.2,-36.3826,-7.9304
610,2.989,-13.3355,2.2609,-4.8696,-36.4522,-12.7304
615,2.6441,-13.757,2.1459,-6.6783,-35.5478,-17.5304
620,2.3759,-13.9869,1.7244,-5.8435,-33.8783,-21.4957
625,2.0693,-13.9869,1.2646,-2.2957,-31.7913,-25.113
630,1.3795,-13.9103,0.3832,0.6957,-28.8,-26.5739
635,0.7281,-13.872,-0.1916,1.3913,-24.9739,-27.2
640,0.0766,-13.757,-0.5748,0.7652,-19.8957,-26.713
645,-0.1533,-13.5271,-0.4598,1.5304,-15.5826,-25.3217
650,-0.4598,-13.0289,-0.5365,4.0348,-12.2435,-23.1652
655,-0.7281,-12.1475,-0.6514,6.9565,-10.5739,-21.1478
660,-0.5365,-11.0746,-0.8814,9.5304,-10.3652,-18.5043
665,-0.1916,-9.9633,-1.7627,10.5739,-10.8522,-16.6957
670,0.0766,-9.5418,-2.1076,8.7652,-11.2,-15.5826
675,0.6898,-8.967,-2.8357,4.1043,-10.1565,-14.4696
680,1.1113,-9.0819,-3.2955,-2.1565,-7.3043,-14.7478
685,1.3412,-9.1586,-3.4105,-8.3478,-3.1304,-15.4435
690,1.2646,-9.3502,-3.3722,-12.5217,1.4609,-17.0435
695,1.0346,-9.6184,-3.2572,-14.1913,5.2174,-20.313
700,0.9197,-9.5418,-3.2189,-13.6348,8.3478,-23.9304
705,0.9963,-9.3502,-3.6787,-12.0348,12.6609,-27.1304
710,1.1496,-8.852,-4.1386,-11.2,18.2957,-29.913
715,0.6898,-8.2389,-4.6751,-12.2435,24.1391,-32.4174
720,0.2299,-7.9323,-4.9433,-15.8609,28.5217,-33.8087
725,-0.6131,-7.779,-4.905,-21.9826,29.4957,-34.1565
730,-1.3029,-7.9323,-4.2152,-28.8,27.4087,-34.0174
735,-1.8011,-8.1622,-3.1423,-34.2957,24.2783,-33.2522
740,-2.3375,-8.5071,-2.4525,-37.3565,21.4261,-31.2348
745,-2.6824,-8.967,-1.3795,-37.287,18.9913,-28.1043
750,-3.1423,-9.0819,-0.8814,-33.3217,16.6957,-24.6957
755,-3.5638,-9.3118,-0.8047,-26.8522,14.2609,-20.313
760,-4.3302,-9.3118,-1.1496,-19.5478,11.5478,-14.7478
765,-4.5218,-9.1202,-1.5328,-13.2174,8.3478,-8.3478
770,-4.5984,-9.3502,-1.8011,-8.9739,5.3565,-2.087
775,-4.2536,-9.5418,-1.7627,-6.1913,3.0609,3.0609
780,-3.832,-9.8866,-1.8394,-4.1043,1.2522,7.3739
785,-3.1806,-10.0016,-1.5328,-1.6,0.0696,10.5043
790,-2.6058,-10.1932,-1.3412,1.8783,-0.4174,12.8
795,-2.0693,-10.5764,-1.2263,5.287,-0.7652,13.913
800,-1.5328,-10.9213,-1.3412,7.8609,-0.6957,13.913
805,-1.1113,-10.8446,-1.1113,9.7391,-0.4174,13.4957
810,-0.4982,-11.1895,-1.2646,12.1043,0.1391,13.1478
815,-0.1916,-11.0746,-1.3412,13.913,1.4609,13.287
820,0.0,-10.768,-1.4179,15.8609,3.5478,14.2609
825,0.4982,-10.3465,-1.4945,18.9913,6.1913,16.0
830,0.6514,-9.7334,-1.9543,21.5652,9.1826,17.6
835,0.843,-9.1969,-2.1076,21.5652,12.5913,18.8522
840,1.1496,-8.6987,-2.4142,18.3652,16.2783,20.0348
845,1.0346,-8.2389,-2.3375,12.1043,19.7565,21.287
850,0.9197,-8.1622,-2.031,4.6609,23.0957,22.3304
855,0.6514,-8.1622,-1.6861,-1.8783,26.3652,23.0261
860,0.4598,-8.3538,-1.3795,-6.1913,28.8,23.7217
865,0.0383,-8.4305,-0.9197,-7.9304,30.2609,25.0435
870,-0.2299,-8.5071,-0.6131,-7.6522,31.4435,26.5739
875,-0.4982,-8.6604,-0.4982,-5.7739,33.0435,28.1739
880,-0.7664,-8.6987,-0.5748,-2.8522,34.9217,29.8435
885,-0.7664,-8.6987,-0.4598,0.487,36.9391,31.3739
890,-1.0346,-8.4688,-0.5365,4.2435,38.6783,33.1826
895,-0.9197,-8.3155,-0.5748,7.6522,40.487,35.1304
900,-0.8047,-8.0473,-0.4598,10.3652,42.1565,36.5217
905,-0.8047,-7.779,-0.6514,11.8957,43.7565,37.2174
910,-0.6514,-7.5491,-0.7664,12.3826,45.6348,37.6348
915,-0.6514,-7.5108,-0.9197,11.6174,47.6522,37.9826
920,-0.6131,-7.5874,-0.8814,8.6957,48.9043,38.2609
925,-0.3832,-7.7407,-0.843,3.8957,49.6696,37.913
930,-0.6898,-7.8557,-0.958,-1.3217,50.3652,37.1478
935,-0.843,-8.2005,-0.6514,-6.2609,51.3391,36.8696
940,-0.958,-8.5454,-0.3449,-10.0174,51.9652,37.0783
945,-1.1496,-8.8903,-0.6898,-12.313,52.1739,36.9391
950,-1.4179,-8.8903,-0.3066,-13.4261,51.8957,36.3826
955,-1.5328,-9.0436,-0.0766,-12.6609,51.4783,35.7565
960,-1.6478,-8.8137,0.0383,-10.1565,51.5478,35.2
965,-1.8777,-8.6604,0.0383,-7.1652,51.7565,34.5739
970,-1.9543,-8.5454,0.0766,-4.2435,51.8261,33.3913
975,-2.0693,-8.3155,0.0766,-1.6696,51.5478,32.487
980,-2.1459,-8.1622,0.1533,-0.0696,51.2,31.1652
985,-2.1843,-8.0473,-0.0383,0.5565,50.9217,29.7043
990,-2.2609,-8.0089,0.0383,-0.1391,50.5043,28.1043
995,-2.2226,-8.1622,0.115,-1.1826,50.1565,26.2261
1000,-1.9543,-8.4688,0.115,-2.713,49.5304,24.0696
1005,-2.031,-8.5838,0.3066,-4.2435,48.9043,21.3565
1010,-1.8011,-8.8137,0.3832,-5.4957,48.2087,18.3652
1015,-1.8394,-9.0436,0.4215,-5.5652,47.7913,15.4435
1020,-1.6861,-9.3502,0.4215,-4.4522,47.3043,12.4522
1025,-1.7244,-9.5418,0.3449,-2.3652,46.9565,9.9478
1030,-1.5711,-9.5418,0.4598,0.6261,46.6087,7.4435
1035,-1.4562,-9.695,0.4215,4.8696,46.1217,5.3565
1040,-1.3795,-9.6184,0.4215,9.3217,45.6348,3.4783
1045,-1.2263,-9.6184,0.3449,12.4522,45.4957,2.4348
1050,-1.3412,-9.6184,0.3066,13.7043,45.287,1.113
1055,-1.3412,-9.4651,0.3066,13.6348,44.7304,0.5565
1060,-1.4179,-9.4268,0.3832,12.8696,43.4087,0.487
1065,-1.4945,-9.3885,0.3832,12.3826,41.2522,0.9739
1070,-1.6478,-9.1969,0.3832,12.5217,38.4,1.4609
1075,-1.7627,-9.1202,0.4215,13.6348,34.8522,2.087
1080,-1.9927,-8.9286,0.4215,15.2348,31.3043,2.713
1085,-2.2609,-8.8137,0.4598,17.5304,27.3391,3.2
1090,-2.2609,-8.4688,0.3449,19.8957,23.3043,2.713
1095,-2.2609,-8.4305,0.1916,21.5652,19.4783,1.6696
1100,-2.1843,-8.3155,0.115,21.7043,16.7652,0.1391
1105,-2.3375,-8.2005,-0.2299,19.9652,14.9565,-1.5304
1110,-2.2992,-8.1622,-0.2299,16.487,14.1217,-3.8261
1115,-2.1843,-8.3538,-0.2682,11.687,13.913,-6.3304
1120,-2.2609,-8.6221,-0.1916,6.2609,14.1217,-9.0435
1125,-2.1076,-8.9286,-0.1533,0.4174,14.3304,-12.1739
1130,-2.1076,-9.4651,-0.115,-5.4261,14.6783,-15.3739
1135,-2.031,-9.9633,0.115,-10.713,15.0261,-18.4348
1140,-1.9927,-10.4998,0.4215,-14.7478,15.4435,-21.287
1145,-1.916,-10.7297,0.6514,-17.2522,16.1391,-23.6522
1150,-1.916,-11.0363,0.7281,-18.2957,16.6957,-25.6
1155,-1.6095,-11.2662,0.9197,-18.1565,17.2522,-27.2
1160,-1.4562,-11.3428,0.8814,-17.9478,17.8087,-28.1739
1165,-1.4179,-11.2662,0.843,-18.4348,18.3652,-28.2435
1170,-1.2263,-11.2662,0.8814,-19.5478,18.4348,-28.0348
1175,-1.073,-11.1129,0.843,-20.8696,18.087,-27.0609
1180,-0.843,-10.768,0.8814,-22.4,17.9478,-25.3913
1185,-0.4982,-10.5764,0.8814,-24.0,17.7391,-23.0957
1190,-0.1916,-10.4614,1.1496,-25.9478,17.8783,-20.3826
1195,-0.115,-10.4231,0.958,-27.8957,18.1565,-17.9478
1200,-0.0383,-10.3082,0.843,-29.4957,18.3652,-16.0696
1205,-0.0766,-10.3848,0.6514,-30.8174,18.6435,-14.4696
1210,0.0,-10.4998,0.3832,-32.0,18.9217,-14.1217
1215,-0.1533,-10.6147,0.2682,-33.3217,19.4087,-14.5391
1220,-0.1533,-10.768,0.2682,-34.5043,20.3826,-15.513
1225,-0.1916,-10.6914,-0.0766,-35.3391,21.287,-15.7913
1230,-0.2682,-11.0746,-0.2299,-35.3391,21.8435,-15.8609
1235,-0.7281,-11.1895,-0.5748,-34.713,22.3304,-15.3043
1240,-1.1113,-11.4578,-0.8047,-32.6261,22.7478,-13.3565
1245,-1.7627,-11.5727,-0.8814,-30.6783,22.6087,-14.5391
1250,-1.8777,-11.5727,-0.9197,-27.2,21.4957,-14.6783
1255,-1.8011,-11.4195,-1.3029,-22.9565,20.2435,-13.7739
1260,-2.1459,-11.3428,-1.5328,-19.1304,20.1739,-13.4261
1265,-2.4908,-11.1895,-1.6861,-16.0,19.5478,-12.9391
1270,-2.6441,-10.8063,-2.1843,-13.1478,18.6435,-12.1739
1275,-2.6824,-10.4614,-2.3759,-10.6435,17.8783,-11.0609
1280,-2.7974,-9.9633,-2.7974,-8.6957,16.6957,-9.7391
1285,-2.6824,-9.5034,-3.4871,-8.2087,16.1391,-7.9304
1290,-2.6824,-9.1969,-3.5255,-9.0435,15.7913,-6.1913
1295,-2.6058,-8.737,-3.6021,-10.3652,15.5826,-4.313
1300,-2.4142,-8.2389,-3.6787,-12.0348,15.1652,-2.5043
1305,-1.9543,-7.6257,-3.6021,-13.4261,14.7478,-1.0435
1310,-1.3412,-7.1276,-3.4105,-13.9826,15.2348,-0.1391
1315,-0.8814,-6.7061,-3.0273,-13.913,17.113,0.3478
1320,-0.3449,-5.978,-2.3375,-13.0087,20.4522,1.3913
1325,-0.0383,-5.5948,-1.5711,-10.8522,23.9304,2.5739
1330,0.1533,-5.1732,-1.073,-7.1652,26.2261,3.5478
1335,0.115,-5.2116,-0.9963,-2.7826,26.9217,3.8957
1340,0.2299,-5.0966,-0.7664,1.113,26.2957,3.4783
1345,0.0383,-5.1732,-0.8047,3.8261,24.2783,2.5043
1350,-0.0766,-5.0966,-1.0346,5.4261,21.4957,1.8783
1355,-0.3832,-5.5564,-1.2263,6.2609,18.9913,1.6696
1360,-0.6898,-5.8247,-1.2646,6.3304,17.1826,1.6
1365,-1.0346,-6.5911,-1.0346,6.4,14.9565,1.5304
1370,-1.4179,-7.1276,-1.3029,7.2348,11.4783,1.4609
1375,-1.7627,-7.779,-1.3029,8.9043,7.3043,1.5304
1380,-1.9543,-8.6604,-1.9543,10.5739,3.4783,1.6
1385,-2.1459,-9.3502,-2.031,11.687,1.2522,0.2783
1390,-2.2992,-10.0016,-2.2226,12.7304,0.8348,-2.087
1395,-2.6441,-10.7297,-2.2992,13.287,0.9739,-4.7304
1400,-3.1806,-11.4578,-2.1459,14.8174,0.5565,-6.6783
1405,-3.8704,-12.0709,-1.6861,17.6,-1.8783,-9.2522
1410,-4.6751,-12.1859,-1.6861,20.2435,-6.6087,-13.5652
1415,-5.1349,-12.0326,-1.2646,22.8174,-12.5217,-17.1826
1420,-4.8284,-11.4961,-0.9197,27.0609,-18.8522,-19.1304
1425,-4.1003,-10.883,-1.3412,34.0174,-27.6174,-19.5478
1430,-4.2919,-8.967,-2.0693,43.4783,-42.9217,-17.6
1435,-4.6751,-7.0126,-1.6095,53.3565,-61.0783,-9.0435
1440,-5.4798,-10.1549,-1.916,55.1652,-74.3652,1.8087
1445,-9.3502,-11.726,-0.6898,19.3391,-82.713,-16.0696
1450,-10.4614,-13.4504,2.2992,-24.5565,-81.7391,-39.8609
1455,-9.5801,-15.0216,3.4871,-44.5217,-81.4609,-52.1043
1460,-7.1659,-16.4011,2.6441,-39.7217,-89.2522,-60.4522
1465,-5.4415,-16.2095,0.5365,-20.6609,-106.8522,-69.0783
1470,-2.874,-15.3664,-0.4982,-2.8522,-130.1565,-77.3565
1475,-0.6514,-14.4468,-0.3449,5.0783,-145.9478,-82.2261
1480,0.115,-14.0252,0.3832,4.4522,-148.7304,-85.1478
1485,-0.5748,-13.2205,0.7664,0.9739,-143.3739,-85.8435
1490,-1.6095,-13.1055,1.073,-1.6,-133.2174,-82.9913
1495,-1.9927,-13.1055,1.916,-2.8522,-118.3304,-77.287
1500,-0.7281,-13.2588,2.7591,-3.3391,-104.6261,-71.5826
1505,0.958,-13.2588,2.7207,-4.5217,-96.6957,-66.7826
1510,2.2226,-13.1439,1.6478,-6.3304,-92.2435,-63.7217
1515,2.989,-13.3355,0.1533,-7.513,-89.8087,-60.9391
1520,3.5255,-13.0289,-0.9197,-10.3652,-89.6696,-58.4348
1525,4.1769,-13.2205,-1.1496,-14.1913,-87.7913,-54.9565
1530,4.3302,-13.4121,-0.7664,-18.4348,-81.4609,-51.6174
1535,4.0236,-13.9486,-0.115,-21.2174,-71.3739,-48.487
1540,3.0656,-14.7533,0.3832,-20.6609,-64.0,-45.1478
1545,1.8777,-15.5964,0.3066,-15.5826,-58.6435,-41.3913
1550,1.1496,-16.0562,-0.4215,-3.4087,-54.5391,-37.8435
1555,0.1916,-15.9796,-1.1113,8.9043,-50.9913,-34.713
1560,-0.7664,-15.2515,-1.2263,17.3913,-46.3304,-30.1217
1565,-1.6095,-13.9869,-0.6514,24.0,-44.7304,-26.087
1570,-2.4525,-12.1092,-0.3066,32.1391,-46.3304,-23.3739
1575,-2.5675,-10.6914,-0.1916,39.1652,-49.7391,-20.2435
1580,-2.7207,-9.0053,-0.0383,40.7652,-54.4,-17.1826
1585,-2.5291,-7.6641,-0.3066,34.9217,-60.2435,-15.8609
1590,-1.9543,-6.7827,-0.5365,24.0,-66.087,-14.1217
1595,-1.2263,-5.5948,-0.7281,13.0087,-71.4435,-14.8174
1600,-0.6514,-4.8284,-1.073,5.0087,-76.1739,-12.7304
1605,0.0383,-3.7937,-1.4945,1.2522,-79.9304,-12.313
1610,0.958,-2.6441,-1.4562,0.0696,-84.313,-10.0174
1615,1.7627,-1.9543,-1.4562,1.8783,-87.9304,-9.6
1620,2.2226,-1.1496,-1.6095,4.1043,-91.5478,-12.8
1625,2.4525,-0.8047,-1.6861,4.4522,-95.2348,-15.5826
1630,2.3759,-0.4598,-1.5711,1.2522,-97.6,-19.4087
1635,2.6824,-0.843,-1.5328,-6.0522,-97.6696,-21.6348
1640,2.874,-1.3795,-1.4562,-15.513,-94.5391,-22.0522
1645,3.1039,-1.916,-1.4179,-23.0261,-88.2087,-22.7478
1650,3.2189,-2.4908,-1.3795,-27.2696,-79.513,-23.9304
1655,3.4105,-3.1423,-1.5328,-29.287,-70.0522,-24.9043
1660,2.9123,-3.4871,-1.3412,-29.7739,-61.0783,-25.3913
1665,2.5291,-3.6787,-1.1879,-27.4087,-53.6348,-24.9043
1670,2.1076,-3.5638,-0.843,-23.7217,-47.6522,-23.8609
1675,1.8011,-3.5255,-0.3066,-19.8957,-42.5739,-22.6783
1680,1.3412,-3.4871,0.0383,-15.513,-37.4261,-21.2174
1685,1.1879,-3.4105,0.4598,-10.5043,-32.487,-19.5478
1690,1.3795,-3.1806,1.0346,-5.1478,-28.1739,-17.9478
1695,1.9543,-2.874,0.958,2.3652,-24.4174,-16.0
1700,2.4525,-2.989,0.8047,12.4522,-20.2435,-14.1217
1705,2.9123,-2.7591,0.8047,22.2609,-15.9304,-11.4087
1710,2.874,-2.6058,0.958,30.0522,-12.4522,-7.8609
1715,2.2992,-2.4908,1.4945,35.8957,-9.4609,-3.8957
1720,2.2609,-2.6824,1.7627,40.5565,-8.1391,-0.2783
1725,1.916,-2.7591,2.4525,45.4261,-9.113,3.5478
1730,1.4179,-2.8357,3.0656,51.1304,-11.5478,7.2348
1735,0.7281,-2.9123,3.7937,57.7391,-14.5391,11.2
1740,-0.1533,-2.6824,4.7517,65.5304,-17.8783,15.4435
1745,-0.8814,-2.4908,5.4415,74.1565,-21.2174,19.687
1750,-1.5328,-2.1076,6.2845,82.4348,-24.487,24.1391
1755,-1.9543,-1.3029,7.0509,90.6435,-27.8957,30.1913
1760,-1.5711,-0.7281,6.7827,98.2261,-31.1652,37.4957
1765,-0.958,-0.1533,5.6331,103.7217,-35.0609,44.7304
1770,0.1533,0.3449,1.3029,106.5043,-37.4957,50.9913
1775,1.8394,1.1496,-5.4415,104.5565,-33.1826,57.3217
1780,3.2955,2.874,-13.4504,89.0435,-22.5391,62.0522
1785,4.7517,4.4452,-23.8352,45.1478,-12.7304,61.3565
1790,5.2882,3.3339,-35.3696,-33.7391,-0.6261,53.2174
1795,7.9323,-1.8394,-50.5445,-129.113,25.3217,40.6957
1800,16.3628,-10.7297,-60.6994,-204.6609,62.2609,26.1565
1805,30.3114,-27.9355,-69.513,-260.8696,96.6957,-14.7478
1810,19.8882,-52.4605,-4.7517,-387.4087,162.7826,-128.6957
1815,-2.2609,-84.5346,50.6978,-444.4522,156.3826,-323.2696
1820,-34.9098,-112.4318,59.6264,-239.0261,-49.4609,-555.8957
1825,-13.4504,-48.5902,3.3339,55.7913,-75.5478,-613.8435
1830,2.3375,-14.9066,-24.41,279.0261,154.5043,-358.4
1835,2.9507,-0.0383,-32.5723,381.287,365.2174,-122.5043
1840,-4.3302,3.7171,-31.0011,350.6087,380.6609,-27.2696
1845,-18.8536,5.7097,-21.3827,222.7478,223.3043,20.4522
1850,-28.2421,4.0236,-9.7717,19.6174,67.6174,93.287
1855,-24.9848,-1.7627,-1.1113,-97.8783,8.0696,177.8783
1860,-20.0415,-5.7097,3.5638,-150.6087,-6.887,231.1652
1865,-12.0326,-9.1202,5.8247,-151.0261,-36.6609,244.9391
1870,-3.6021,-11.726,3.7554,-103.0957,-74.1565,232.0696
1875,3.3722,-13.2205,1.0346,-30.8174,-91.4087,193.8783
1880,7.6641,-15.788,-3.1039,28.3826,-77.1478,138.5043
1885,8.3538,-16.8993,-6.3995,36.3826,-33.3913,75.3391
1890,6.1313,-18.0872,-4.4452,-8.0696,14.6783,13.1478
1895,7.3192,-18.6237,0.0383,-52.5217,36.1739,-29.7739
1900,11.8793,-18.5854,1.2646,-65.113,32.6957,-52.7304
1905,15.0216,-17.2441,0.5748,-50.9913,29.2174,-59.687
1910,14.9832,-15.5197,0.0766,-21.3565,38.5391,-51.1304
1915,10.653,-11.8793,-0.9963,16.6261,58.0174,-31.7217
1920,5.02,-6.5528,-3.7937,51.687,81.0435,-0.8348
1925,1.4179,-2.031,-6.3229,62.4696,105.5304,30.6087
1930,-0.7664,0.6514,-7.1659,43.2696,121.4609,53.0783
1935,-2.5675,1.8011,-7.1276,2.9913,126.1217,64.8348
1940,-4.2152,1.2263,-6.0929,-45.4261,124.5217,73.1826
1945,-4.8284,-1.2646,-4.6368,-92.3826,118.5391,81.3217
1950,-4.4452,-4.9433,-2.4525,-132.0348,109.1478,87.3739
1955,-4.1769,-7.894,-0.7281,-157.287,96.8348,86.8174
1960,-3.3722,-12.1475,1.1879,-167.1652,83.5478,82.1565
1965,-2.4142,-16.2095,2.4142,-165.2174,71.9304,77.4957
1970,-1.7627,-18.5854,3.3722,-151.0261,64.2783,72.5565
1975,-1.9543,-19.5817,3.3722,-125.6348,59.8261,66.0174
1980,-2.3759,-19.2368,3.1039,-95.3043,57.3913,56.6957
1985,-2.874,-18.0489,2.7974,-63.1652,57.113,48.487
1990,-3.3722,-16.4777,2.3375,-32.5565,58.2261,43.687
1995,-3.6021,-14.9066,1.8011,-9.7391,58.9913,42.7826
2000,-3.9087,-12.8756,1.1879,4.3826,58.6435,44.5913
2005,-3.7937,-11.4961,0.6131,10.713,56.0696,47.513
2010,-3.3722,-9.6567,-0.115,9.8087,50.6435,50.3652
2015,-3.5255,-8.0856,-0.6131,3.7565,43.4783,50.8522
2020,-3.4488,-7.1276,-0.9197,-5.8435,35.4087,49.9478
2025,-2.7207,-7.0126,-0.9963,-17.1826,26.7826,46.5391
2030,-1.8394,-7.0893,-1.1496,-29.3565,18.713,40.6261
2035,-0.3066,-7.3575,-0.958,-40.487,13.1478,34.8522
2040,0.6898,-7.8173,-0.7281,-47.7913,10.9913,30.6087
2045,1.1113,-8.5071,-0.3066,-50.5043,11.6174,28.8696
2050,1.5711,-8.852,-0.115,-49.8087,13.6348,29.0087
2055,1.5711,-9.0436,0.2682,-46.8174,16.2783,31.0261
2060,1.5328,-9.2352,0.3066,-40.8348,18.9217,34.2957
2065,1.3029,-9.0053,0.4982,-32.6261,21.287,37.3565
2070,0.8047,-8.5454,0.4215,-23.0957,23.4435,39.7913
2075,0.6514,-8.3538,0.3066,-14.1913,25.3217,41.3217
2080,0.0766,-8.1239,0.5365,-7.5826,26.713,40.6957
2085,-0.2299,-8.0089,0.7664,-3.5478,27.9652,38.1913
2090,-0.3832,-8.2772,1.3029,-0.4174,29.6348,34.8522
2095,-0.4598,-8.6221,1.8394,2.9913,31.2348,31.1652
2100,-0.4598,-9.0053,2.2992,7.0261,32.9043,27.8957
2105,-0.7281,-9.2352,2.7974,11.8261,34.9217,25.113
2110,-1.4179,-9.695,3.2572,17.1826,36.8696,23.6522
2115,-2.1843,-10.1166,3.6021,23.0261,37.7739,23.4435
2120,-3.1039,-10.3848,3.6404,29.0087,36.4522,24.5565
2125,-3.832,-10.7297,3.4871,35.1304,33.2522,26.713
2130,-4.0236,-11.1512,3.1423,41.3913,28.1739,29.8435
2135,-4.1769,-11.5344,2.7974,48.1391,24.6261,33.4609
2140,-3.6021,-11.4578,2.5291,57.8087,23.513,36.4522
2145,-2.5291,-11.4578,2.3759,67.9652,25.7391,37.7739
2150,-1.6095,-10.768,2.1843,79.3043,31.0261,36.6609
2155,-0.2299,-9.7334,2.0693,90.5739,38.4,33.6
2160,0.8047,-8.6604,1.5328,100.3826,46.1913,28.9391
2165,1.3412,-7.3958,0.7281,107.2696,53.2174,24.487
2170,1.3029,-6.3612,0.1916,111.7913,57.6,21.3565
2175,1.073,-5.2116,-1.0346,112.6261,58.6435,19.2
2180,0.7664,-4.4835,-2.1076,109.0783,57.7391,16.9739
2185,0.4598,-3.7171,-2.6824,100.5913,56.9043,14.4
2190,0.3066,-3.6787,-2.989,87.0261,57.8087,10.9913
2195,0.0,-3.8704,-2.989,70.1217,60.7304,7.7217
2200,-0.7664,-4.4068,-3.3339,53.1478,63.5826,6.4
2205,-2.6058,-4.5984,-4.7134,38.6087,59.687,5.6348
2210,-4.79,-4.4835,-7.0893,25.2522,44.2435,9.6
2215,-5.8247,-4.2919,-11.9176,6.7478,18.2957,19.687
2220,-6.3995,-4.1386,-16.9376,-26.9217,-9.8783,34.4348
2225,-6.5145,-5.7864,-23.2604,-79.513,-27.8261,53.0087
2230,-6.5911,-10.653,-25.2148,-135.5826,-26.2957,74.713
2235,-9.3502,-16.8609,-20.0798,-172.4522,-8.3478,100.8
2240,-14.715,-21.536,-10.9596,-174.8174,-0.2087,122.2957
2245,-16.5927,-23.7586,-4.2919,-140.0348,-24.8348,133.3565
2250,-13.9103,-24.7932,0.6898,-82.087,-68.7304,128.7652
2255,-7.5108,-24.1035,2.5675,-26.5043,-105.8783,108.9391
2260,-2.2226,-22.3407,2.6824,18.3652,-122.9217,80.0
2265,0.3449,-20.8079,1.4179,55.7913,-124.8,48.6261
2270,1.7627,-18.4321,-0.9963,84.3826,-121.8783,18.4348
2275,2.2609,-16.4011,-2.7207,103.3043,-115.8957,-8.0696
2280,2.6441,-14.2935,-3.6404,114.2261,-108.0348,-30.8174
2285,3.0656,-12.3008,-3.947,119.1652,-99.2696,-50.1565
2290,3.832,-10.8446,-4.0236,117.2174,-89.1826,-65.2522
2295,5.2499,-9.0436,-3.6404,109.0783,-77.3565,-76.5913
2300,6.3612,-7.2809,-3.2572,97.0435,-63.0957,-83.8957
2305,7.0126,-6.2462,-2.6058,82.8522,-45.9826,-88.0696
2310,6.3995,-5.3648,-2.2992,69.7043,-27.8261,-89.6
2315,5.5564,-4.7134,-2.2226,59.2,-10.9913,-87.3043
2320,3.947,-4.2536,-2.6824,51.1304,2.2957,-82.7826
2325,2.4908,-3.947,-3.2189,43.6174,10.9217,-77.0783
2330,1.073,-3.8704,-3.4105,35.8261,15.7913,-69.8435
2335,-0.0766,-4.2536,-2.7974,28.8696,19.4087,-60.1739
2340,-1.0346,-4.5984,-1.8394,22.9565,22.8174,-48.2087
2345,-2.4908,-5.1732,-1.1496,19.2696,22.7478,-36.1043
2350,-3.6021,-5.5564,-0.8047,17.6696,17.8087,-24.6261
2355,-4.1386,-6.2079,-0.3832,18.3652,9.9478,-14.5391
2360,-4.0236,-6.936,-0.843,21.7043,1.113,-6.1913
2365,-3.5255,-7.3958,-1.0346,24.2783,-7.2348,1.0435
2370,-2.5291,-7.894,-1.2646,25.6,-14.4,6.5391
2375,-1.4179,-8.2772,-1.2263,27.8957,-18.9217,8.9739
2380,-0.4215,-8.3921,-2.031,32.1391,-21.287,7.1652
2385,0.0766,-8.1239,-2.5291,34.087,-22.9565,2.5739
2390,0.4982,-7.8173,-3.2189,30.5391,-24.5565,-3.0609
2395,0.9197,-7.5874,-3.5255,23.1652,-25.3217,-8.487
2400,1.2646,-7.3958,-3.4105,14.4696,-24.6957,-13.7739
2405,1.3795,-7.1659,-3.1806,6.1913,-22.7478,-18.8522
2410,1.4179,-7.0509,-3.0656,-1.6696,-20.2435,-24.7652
2415,1.3795,-7.2809,-2.4908,-8.6261,-17.6,-29.2174
2420,1.4945,-7.6257,-2.0693,-13.3565,-14.7478,-32.2087
2425,1.2263,-7.779,-1.5328,-14.5391,-10.1565,-33.8783
2430,0.8047,-8.0473,-1.3029,-11.4087,-5.913,-33.8087
2435,0.6514,-8.1239,-1.1879,-3.5478,-1.9478,-31.9304
2440,0.6131,-8.2005,-1.1113,4.2435,1.6,-28.4522
2445,0.3066,-8.1622,-1.0346,12.1739,4.5913,-24.3478
2450,-0.0383,-8.2772,-0.9197,19.3391,6.2609,-19.4087
2455,-0.0766,-8.5071,-1.0346,25.3913,6.0522,-13.913
2460,-0.1916,-8.4688,-1.1879,28.7304,4.4522,-9.2522
2465,-0.4215,-8.6987,-1.3412,28.9391,1.8087,-5.8435
2470,-0.4215,-8.8903,-1.2646,26.1565,-1.1826,-3.687
2475,-0.4982,-8.9286,-1.4179,22.4696,-3.9652,-2.6435
2480,-0.3449,-8.967,-1.4562,18.9913,-5.7739,-2.3652
2485,-0.0766,-9.2735,-1.4562,14.6783,-6.7478,-2.5043
2490,0.0383,-9.3118,-1.8011,9.9478,-6.8174,-3.5478
2495,0.3832,-9.4268,-1.7244,5.3565,-6.4,-5.4957
2500,0.6131,-9.6567,-1.3029,1.8783,-5.7739,-7.7217
2505,0.8047,-9.5418,-1.0346,1.7391,-5.5652,-9.2522
2510,0.9197,-9.6184,-1.0346,4.9391,-5.4957,-9.9478
2515,0.9197,-9.5418,-0.7281,9.3913,-5.2174,-10.0174
2520,0.958,-9.3502,-0.5748,13.6348,-4.5913,-9.7391
2525,0.9963,-9.0819,-0.3066,17.7391,-3.8261,-8.9043
2530,0.8814,-8.737,0.0383,22.1217,-3.2,-7.4435
2535,0.958,-8.3155,-0.0766,26.2957,-2.7826,-5.7739
2540,0.9963,-8.0856,0.3066,29.4957,-2.8522,-3.8957
2545,0.9197,-7.6257,0.4598,32.1391,-3.1304,-1.9478
2550,0.8814,-7.4725,0.4982,33.6696,-3.3391,-0.6957
2555,0.6898,-7.4725,0.6898,34.5739,-3.4087,0.487
2560,0.2299,-7.3575,0.8814,34.713,-3.4087,1.8783
2565,-0.0766,-7.5108,1.1496,34.9217,-3.687,3.2
2570,-0.3066,-7.7407,1.1113,34.7826,-4.2435,5.0087
2575,-0.7281,-8.0856,1.4562,34.6435,-5.0783,7.1652
2580,-0.8814,-8.6221,1.5711,34.5739,-5.6348,9.3913
2585,-1.0346,-9.2735,1.5711,34.2957,-5.913,11.8261
2590,-0.958,-9.8866,1.5711,34.6435,-5.5652,14.0522
2595,-0.843,-10.3082,1.8011,36.0348,-4.8,15.513
2600,-0.843,-10.8063,1.8777,37.9826,-3.8957,16.2087
2605,-0.4982,-11.1129,1.7244,40.9043,-3.0609,16.0696
2610,-0.1533,-11.1512,1.6095,44.8,-2.2957,15.3739
2615,0.4598,-10.883,1.6478,49.6696,-1.6,14.0522
2620,1.0346,-10.5381,0.6898,55.4435,-0.9739,12.7304
2625,1.5711,-10.3848,0.1916,58.3652,-0.1391,10.7826
2630,2.0693,-10.0782,-0.3832,55.513,0.8348,8.3478
2635,1.9543,-9.8866,-0.7664,48.9043,1.1826,5.7043
2640,2.0693,-9.81,-0.8047,41.3913,0.6957,3.0609
2645,1.8011,-9.5801,-0.4215,34.2261,-0.0696,0.4174
2650,1.7627,-9.7334,-0.5365,28.313,-0.6957,-1.8783
2655,1.5711,-9.7334,-0.1533,23.5826,-0.7652,-4.313
2660,1.4562,-9.925,-0.0383,18.6435,-1.3913,-7.0957
2665,1.6478,-10.2315,0.3832,13.287,-2.3652,-9.9478
2670,1.6861,-10.5381,0.7281,9.3217,-3.5478,-12.5217
2675,1.8011,-10.768,1.6478,8.0696,-4.313,-14.7478
2680,1.6095,-11.0363,2.4142,9.2522,-5.0087,-16.6957
2685,1.6478,-11.2279,2.7974,11.6174,-5.1478,-19.0609
2690,1.6861,-11.3428,3.2572,14.3304,-4.8696,-20.9391
2695,1.3795,-11.2662,3.5638,17.3913,-4.8696,-21.4957
2700,1.4945,-11.3428,3.6021,20.2435,-5.4261,-20.9391
2705,1.6478,-11.1512,3.0656,22.1913,-6.2609,-19.8261
2710,1.3795,-10.768,2.4142,21.7739,-6.8174,-17.8087
2715,1.3029,-10.1549,1.7627,18.3652,-7.513,-15.7217
2720,1.1879,-9.9633,1.3795,12.4522,-8.1391,-12.9391
2725,0.9963,-9.8866,1.0346,5.6348,-8.0,-10.7826
2730,0.5748,-9.81,0.9197,-0.2087,-7.513,-9.3913
2735,0.4215,-9.925,0.6131,-3.9652,-7.513,-8.6261
2740,-0.0766,-10.0016,0.3832,-6.7478,-8.1391,-8.6261
2745,0.115,-10.1549,-0.0383,-8.4174,-9.113,-9.113
2750,0.1916,-10.3465,-0.6514,-10.5739,-9.8087,-10.2957
2755,0.4598,-10.883,-1.5711,-13.2174,-9.7391,-11.6174
2760,0.7664,-11.3428,-2.1843,-16.1391,-8.2087,-13.7739
2765,0.8814,-11.4578,-3.1423,-18.2957,-4.9391,-16.4174
2770,0.9197,-11.6494,-3.8704,-20.1043,-0.5565,-19.3391
2775,0.8814,-11.9559,-4.5984,-21.9826,4.0348,-22.5391
2780,0.5748,-12.0709,-5.0966,-23.0957,8.3478,-25.8783
2785,0.4215,-12.3391,-5.2116,-22.7478,11.7565,-30.1913
2790,0.0766,-12.3775,-5.4415,-22.2609,14.4696,-35.8957
2795,-0.0766,-12.4158,-5.3648,-23.1652,16.9043,-42.8522
2800,-0.0383,-12.3008,-5.3648,-24.6957,19.1304,-49.9478
2805,-0.2682,-11.9943,-4.9433,-24.3478,21.3565,-56.4174
2810,-0.9963,-11.7643,-4.4068,-21.0783,23.1652,-60.9391
2815,-1.7244,-11.5727,-3.4871,-15.3043,23.5826,-62.4696
2820,-2.6441,-11.3045,-2.4142,-6.5391,21.5652,-60.9391
2825,-3.3722,-11.0363,-1.6478,2.7826,17.4609,-55.5826
2830,-3.6021,-10.4998,-1.5711,10.5739,12.8696,-47.2348
2835,-3.9853,-9.7334,-1.6095,16.2783,9.7391,-38.4
2840,-4.3302,-9.2735,-1.7627,19.8261,8.6957,-29.0087
2845,-4.9433,-8.5838,-2.1459,21.7739,8.3478,-19.1304
2850,-5.2882,-8.2005,-2.1459,22.7478,7.6522,-8.5565
2855,-5.1349,-8.0856,-2.2226,23.0957,6.1913,2.2261
2860,-4.8667,-8.0856,-2.1076,22.8174,3.8261,12.2435
2865,-4.5984,-8.2772,-1.8011,21.3565,0.8348,20.1739
2870,-4.062,-8.6221,-1.5328,18.9217,-2.4348,25.8783
2875,-3.6404,-9.1969,-0.958,16.8348,-5.6348,28.9391
2880,-2.8357,-10.1932,-1.1113,15.7913,-8.2783,29.4957
2885,-2.6058,-10.3082,-0.5748,15.3739,-10.3652,28.3826
2890,-1.916,-10.8063,-0.2299,16.3478,-11.6174,26.5043
2895,-1.0346,-11.1895,-0.1533,20.5217,-11.4087,25.1826
2900,-0.3449,-11.0746,-0.3449,27.5478,-9.8783,24.2087
2905,0.2682,-10.6147,-0.6131,35.8261,-7.3043,23.7913
2910,0.6898,-10.3465,-1.0346,42.1565,-4.1739,23.7217
2915,1.1496,-9.695,-1.1113,44.2435,-0.0696,24.2783
2920,1.4179,-9.0436,-1.4179,42.4348,4.3826,25.1826
2925,1.3029,-8.4305,-1.5328,36.5913,8.487,26.087
2930,1.073,-8.0089,-1.5328,27.5478,11.6174,27.2
2935,0.5748,-7.6257,-1.4179,17.6,13.1478,27.9652
2940,0.0383,-7.4725,-1.1496,8.487,13.0783,29.0783
2945,-0.5365,-7.4341,-0.843,1.7391,12.3826,29.913
2950,-1.0346,-7.5108,-0.3832,-1.2522,10.4348,30.887
2955,-1.1496,-7.6641,-0.1533,-1.113,8.2087,31.513
2960,-1.4179,-7.5491,0.0383,0.8348,6.9565,31.5826
2965,-1.4562,-7.5491,0.2682,3.687,6.6087,31.3739
2970,-1.6478,-7.2425,0.1916,7.0957,6.6087,31.513
2975,-1.8394,-7.0126,-0.3066,10.0174,6.2609,31.7913
2980,-1.8394,-6.936,-0.5365,10.7826,5.9826,32.3478
2985,-1.7244,-6.936,-0.7281,8.1391,6.1217,32.6957
2990,-1.9543,-6.8977,-0.8814,3.1304,6.5391,32.2087
2995,-1.9543,-7.1659,-0.843,-2.4348,6.6087,31.0957
