timestamp,accX,accY,accZ,gyroX,gyroY,gyroZ
0,-0.843,-2.4142,9.8483,-14.4,4.8,-1.8783
5,-0.8047,-2.4525,9.8483,-15.6522,4.6609,-1.8783
10,-0.7664,-2.4142,9.7717,-16.8348,4.3826,-1.8087
15,-0.7281,-2.4525,9.81,-18.0174,4.1739,-1.8087
20,-0.7664,-2.5291,9.81,-19.3391,3.9652,-1.6696
25,-0.6131,-2.4908,9.8483,-20.5217,3.4087,-1.5304
30,-0.6898,-2.5675,9.7334,-21.4261,2.9217,-1.4609
35,-0.5365,-2.7207,9.81,-22.3304,2.2957,-1.3217
40,-0.5365,-2.6058,9.6567,-23.0261,1.8783,-1.3217
45,-0.6898,-2.6441,9.7717,-23.5826,1.4609,-1.1826
50,-0.6131,-2.6441,9.695,-23.9304,1.0435,-1.2522
55,-0.6898,-2.6441,9.695,-24.1391,0.7652,-1.3217
60,-0.5748,-2.6058,9.6567,-24.1391,0.6261,-1.5304
65,-0.6514,-2.8357,9.7334,-24.0,0.6261,-1.6
70,-0.6898,-2.7591,9.7334,-23.7217,0.5565,-1.8783
75,-0.5365,-2.9123,9.6567,-23.1652,0.7652,-2.0174
80,-0.7281,-2.874,9.695,-22.3304,1.0435,-2.2957
85,-0.7281,-2.7591,9.7334,-21.3565,1.3913,-2.6435
90,-0.5365,-2.8357,9.7334,-20.2435,1.7391,-2.9913
95,-0.5365,-2.874,9.81,-19.1304,2.2261,-3.4087
100,-0.4982,-2.874,9.81,-18.087,2.5739,-3.8261
105,-0.4982,-2.874,9.695,-17.113,2.8522,-4.1043
110,-0.3832,-2.9507,9.6567,-16.487,3.4087,-4.7304
115,-0.3832,-2.9507,9.6184,-15.9304,3.9652,-5.1478
120,-0.3832,-3.0273,9.5418,-15.513,4.4522,-5.7043
125,-0.4215,-2.9123,9.7334,-15.0957,4.8696,-5.9826
130,-0.3449,-2.989,9.6567,-14.8174,5.1478,-6.5391
135,-0.3066,-2.8357,9.4651,-14.5391,5.3565,-6.6783
140,-0.2682,-3.1423,9.7334,-14.4696,5.5652,-6.887
145,-0.2299,-3.0273,9.695,-14.4696,5.7043,-7.1652
150,-0.1916,-3.1423,9.6184,-14.2609,5.7043,-7.2348
155,-0.115,-3.1423,9.81,-13.8435,5.5652,-7.2348
160,-0.115,-3.1423,9.7334,-13.4261,5.2174,-7.0957
165,-0.1533,-3.2189,9.6184,-12.6609,4.9391,-7.0261
170,-0.1916,-3.1039,9.81,-11.8957,4.5913,-6.6087
175,-0.1533,-3.1039,9.7717,-10.9217,4.1739,-6.6783
180,-0.1916,-3.1423,9.925,-9.8087,3.5478,-6.4
185,-0.1533,-2.9123,9.695,-8.6957,3.0609,-6.0522
190,-0.2682,-3.0273,9.7334,-7.7913,2.3652,-5.7043
195,-0.115,-3.1039,9.7717,-7.0957,1.9478,-5.287
200,-0.115,-3.0273,9.5418,-6.5391,1.3217,-5.2174
205,-0.1916,-3.0273,9.7717,-6.3304,0.9739,-4.9391
210,-0.1916,-3.0273,9.7334,-6.1217,0.6261,-4.6609
215,-0.1916,-2.9507,9.6567,-6.1217,0.2087,-4.5217
220,-0.1916,-2.7591,9.6184,-6.4,-0.0696,-4.313
225,-0.0383,-2.7974,9.695,-6.8174,-0.2087,-4.1739
230,-0.0766,-2.8357,9.5418,-7.4435,-0.2783,-4.1043
235,0.0383,-2.7974,9.7717,-7.8609,-0.2783,-4.1739
240,-0.115,-2.8357,9.695,-8.2087,-0.3478,-4.1739
245,-0.0383,-2.7974,9.5801,-8.4174,-0.3478,-4.1739
250,0.2299,-2.7974,9.81,-8.7652,-0.2783,-4.1739
255,0.0383,-2.7207,9.6567,-8.8348,-0.1391,-4.4522
260,0.115,-2.7207,9.7717,-8.7652,0.0,-4.3826
265,0.1533,-2.7974,9.7334,-8.6261,0.0696,-4.4522
270,0.1533,-2.9123,9.7334,-8.3478,0.3478,-4.4522
275,0.1533,-2.8357,9.7334,-8.0,0.5565,-4.5217
280,0.0383,-2.8357,9.81,-7.5826,0.9043,-4.6609
285,0.0383,-2.8357,9.7717,-7.0957,1.113,-4.6609
290,0.0383,-2.8357,9.6567,-6.8174,1.4609,-4.5217
295,0.0766,-2.8357,9.7717,-6.8174,1.6696,-4.3826
300,0.115,-2.8357,9.7334,-7.2348,1.8783,-4.1043
305,-0.0383,-2.9123,9.6567,-7.9304,1.8783,-4.1043
310,-0.0766,-2.9123,9.6567,-8.6957,1.8783,-3.8957
315,-0.0766,-3.0273,9.695,-9.7391,1.7391,-3.7565
320,-0.0766,-3.0273,9.695,-10.713,1.8087,-3.687
325,-0.1916,-2.989,9.7717,-11.687,1.6,-3.5478
330,-0.1916,-2.989,9.5801,-12.5913,1.4609,-3.4087
335,-0.2299,-3.1039,9.6184,-13.0783,1.3913,-3.2
340,-0.1916,-3.2572,9.6184,-13.4957,1.2522,-3.0609
345,-0.2299,-3.2572,9.6567,-13.5652,1.2522,-2.8522
350,-0.3449,-3.2955,9.7334,-13.5652,1.2522,-2.6435
355,-0.2682,-3.3339,9.7717,-13.4261,1.0435,-2.2957
360,-0.0383,-3.2955,9.695,-13.1478,1.0435,-2.087
365,-0.3066,-3.4871,9.6567,-12.8696,0.9043,-1.6696
370,-0.3832,-3.3339,9.5801,-12.5913,0.9043,-1.3217
375,-0.3449,-3.4871,9.5034,-12.3826,0.7652,-0.8348
380,-0.3832,-3.4105,9.6184,-12.1739,0.6957,-0.5565
385,-0.3066,-3.5638,9.6184,-11.9652,0.6957,-0.1391
390,-0.3832,-3.5638,9.5418,-11.8957,0.3478,0.2783
395,-0.4215,-3.4871,9.6184,-11.8261,-0.0696,0.487
400,-0.2682,-3.6404,9.695,-11.3391,-0.2783,0.8348
405,-0.4215,-3.5638,9.6567,-10.9217,-0.5565,1.1826
410,-0.4215,-3.4871,9.7717,-10.2261,-0.8348,1.6
415,-0.4598,-3.5255,9.5801,-9.3913,-0.9739,1.8087
420,-0.2682,-3.6021,9.6567,-8.4174,-1.2522,1.9478
425,-0.2682,-3.4871,9.6184,-7.513,-1.2522,2.087
430,-0.4598,-3.4871,9.695,-6.7478,-1.3913,2.1565
435,-0.4215,-3.5255,9.5418,-5.7739,-1.2522,2.4348
440,-0.4598,-3.4871,9.5418,-5.0087,-1.3217,2.4348
445,-0.3449,-3.3722,9.5801,-4.313,-1.2522,2.3652
450,-0.3832,-3.4105,9.6184,-3.7565,-1.0435,2.4348
455,-0.4598,-3.4871,9.5034,-3.3391,-0.8348,2.5043
460,-0.3832,-3.4871,9.695,-3.1304,-0.6261,2.2957
465,-0.4215,-3.2955,9.4651,-2.9217,-0.2783,2.0174
470,-0.3832,-3.4488,9.6184,-2.8522,0.0,1.9478
475,-0.3449,-3.3339,9.5034,-2.7826,0.487,1.8087
480,-0.4215,-3.2955,9.7334,-2.713,0.8348,1.6696
485,-0.4598,-3.3722,9.5801,-2.7826,1.2522,1.5304
490,-0.3066,-3.3722,9.5418,-2.7826,1.6696,1.2522
495,-0.4982,-3.2572,9.6184,-2.9913,2.1565,0.9043
500,-0.3449,-3.3339,9.4651,-3.0609,2.713,0.6261
505,-0.4215,-3.2955,9.5801,-2.9913,3.2,0.487
510,-0.4982,-3.3339,9.5801,-3.0609,3.7565,0.2783
515,-0.4215,-3.2189,9.4268,-3.2,4.313,-0.0696
520,-0.4215,-3.4105,9.5034,-3.1304,4.8696,-0.3478
525,-0.3832,-3.4105,9.5418,-3.1304,5.2174,-0.5565
530,-0.3832,-3.4105,9.5418,-3.2696,5.5652,-0.7652
535,-0.2299,-3.3339,9.695,-3.3391,5.9826,-0.9043
540,-0.3449,-3.4105,9.5418,-3.4087,6.2609,-1.1826
545,-0.3066,-3.3722,9.6567,-3.4783,6.6087,-1.3217
550,-0.3449,-3.3722,9.5034,-3.4087,6.887,-1.4609
555,-0.2299,-3.3339,9.5418,-3.4087,7.0957,-1.6696
560,-0.4598,-3.3339,9.5801,-3.4087,7.3739,-1.9478
565,-0.1916,-3.5638,9.5034,-3.4087,7.4435,-2.0174
570,-0.2682,-3.3722,9.5418,-3.4087,7.5826,-2.1565
575,-0.3066,-3.3722,9.6567,-3.3391,7.7217,-2.2261
580,-0.1533,-3.4105,9.5034,-3.2696,7.6522,-2.3652
585,-0.2682,-3.4105,9.5801,-3.2696,7.6522,-2.3652
590,-0.115,-3.4871,9.5801,-3.2696,7.6522,-2.4348
595,-0.1533,-3.2955,9.5418,-3.2696,7.5826,-2.3652
600,-0.115,-3.4105,9.5034,-3.2,7.3739,-2.2261
605,-0.1533,-3.4105,9.4651,-3.3391,7.3043,-2.087
610,-0.2299,-3.3339,9.5801,-3.4087,7.1652,-2.087
615,-0.1533,-3.2572,9.6184,-3.4783,6.887,-1.8087
620,-0.0383,-3.4488,9.5801,-3.6174,6.7478,-1.6696
625,-0.0766,-3.2955,9.5801,-3.8957,6.4,-1.5304
630,0.0383,-3.3339,9.5801,-4.1043,6.1913,-1.3913
635,-0.0383,-3.3339,9.6567,-4.5217,5.9826,-1.113
640,-0.0766,-3.3722,9.6184,-4.8,5.7739,-0.9043
645,0.0383,-3.4105,9.5418,-5.0783,5.6348,-0.6957
650,0.0,-3.3722,9.5418,-5.4261,5.3565,-0.6261
655,0.0,-3.4105,9.6184,-5.8435,5.0783,-0.3478
660,0.0383,-3.4105,9.6184,-6.1217,5.0087,-0.2087
665,-0.0383,-3.4871,9.6184,-6.3304,4.6609,-0.2087
670,0.0383,-3.3339,9.5418,-6.5391,4.3826,0.0
675,0.0,-3.4488,9.4651,-6.5391,4.1739,0.2783
680,-0.115,-3.5638,9.5418,-6.6783,4.1043,0.3478
685,0.115,-3.6787,9.5418,-6.6783,3.9652,0.4174
690,0.0383,-3.4105,9.5418,-6.6087,3.8957,0.487
695,0.0,-3.4488,9.7334,-6.6087,3.7565,0.487
700,-0.0383,-3.6404,9.5418,-6.6087,3.6174,0.6261
705,-0.1533,-3.5255,9.5801,-6.6783,3.5478,0.6957
710,-0.1533,-3.4871,9.5801,-6.7478,3.4087,0.6261
715,-0.0383,-3.5255,9.5418,-6.8174,3.2696,0.6957
720,-0.1916,-3.5255,9.5801,-6.8174,3.1304,0.6957
725,-0.0766,-3.6404,9.5034,-7.0261,3.0609,0.5565
730,-0.115,-3.6021,9.5801,-6.9565,3.0609,0.5565
735,-0.115,-3.6404,9.5801,-6.887,3.0609,0.5565
740,0.0383,-3.6404,9.6184,-6.7478,3.1304,0.4174
745,-0.115,-3.5638,9.5418,-6.6087,3.2,0.2087
750,-0.1916,-3.5255,9.6184,-6.3304,3.4087,0.0696
755,-0.115,-3.6787,9.4651,-6.1217,3.4783,-0.2783
760,-0.2682,-3.5255,9.6567,-5.913,3.5478,-0.2087
765,-0.0766,-3.6787,9.5034,-5.7739,3.8261,-0.2783
770,-0.2299,-3.5638,9.5418,-5.5652,3.9652,-0.4174
775,-0.2682,-3.6404,9.4268,-5.3565,4.0348,-0.6261
780,-0.1533,-3.7171,9.5801,-5.2174,4.313,-0.6957
785,-0.115,-3.7171,9.3885,-4.8696,4.4522,-0.7652
790,-0.2682,-3.7171,9.6184,-4.5217,4.8,-0.9739
795,-0.115,-3.7171,9.3502,-4.1043,5.1478,-1.1826
800,-0.1916,-3.6787,9.4651,-3.8957,5.3565,-1.1826
805,-0.1916,-3.6021,9.3885,-3.7565,5.6348,-1.3217
810,-0.1916,-3.6021,9.4651,-3.7565,6.0522,-1.3217
815,-0.1533,-3.5255,9.3885,-3.7565,6.3304,-1.3217
820,-0.1916,-3.6021,9.3885,-3.9652,6.6087,-1.3217
825,-0.2682,-3.5638,9.4651,-4.1739,6.7478,-1.3913
830,-0.2682,-3.5255,9.4651,-4.3826,6.8174,-1.1826
835,-0.2299,-3.4871,9.4651,-4.6609,6.8174,-0.9739
840,-0.1916,-3.5638,9.4651,-4.8696,6.7478,-0.7652
845,-0.2682,-3.3722,9.4268,-5.2174,6.4696,-0.7652
850,-0.3449,-3.4871,9.3885,-5.6348,6.3304,-0.9043
855,-0.4215,-3.4871,9.4268,-5.9826,6.0522,-0.9043
860,-0.4215,-3.3339,9.5034,-6.2609,5.6348,-0.9043
865,-0.2682,-3.5638,9.5034,-6.5391,5.1478,-0.9043
870,-0.3066,-3.6021,9.4651,-6.6783,4.7304,-0.8348
875,-0.2682,-3.6404,9.6184,-6.7478,4.1739,-1.0435
880,-0.3449,-3.6021,9.6567,-6.6087,3.6174,-1.113
885,-0.3449,-3.7171,9.5801,-6.4696,3.2,-1.2522
890,-0.4215,-3.6404,9.6184,-6.1913,2.7826,-1.4609
895,-0.3066,-3.7554,9.4268,-5.913,2.6435,-1.6
900,-0.3066,-3.7554,9.5801,-5.4261,2.4348,-1.6696
905,-0.1916,-3.6787,9.5034,-5.1478,2.2957,-1.8087
910,-0.3066,-3.9087,9.5418,-4.6609,2.1565,-2.0174
915,-0.3066,-3.832,9.5418,-4.2435,2.1565,-2.0174
920,-0.1916,-3.947,9.5418,-3.7565,2.2261,-2.087
925,-0.2299,-4.062,9.4268,-3.3391,2.2957,-2.0174
930,-0.1533,-3.947,9.4651,-2.9913,2.3652,-1.9478
935,-0.1916,-3.9087,9.4651,-2.3652,2.6435,-2.0174
940,-0.115,-3.947,9.3885,-1.8783,2.7826,-1.6696
945,-0.1533,-3.9853,9.2352,-1.2522,2.9217,-1.5304
950,0.115,-4.062,9.4651,-0.6957,3.0609,-1.3217
955,0.0,-3.9087,9.5418,0.0,3.1304,-0.9739
960,-0.0383,-3.947,9.4651,0.8348,3.1304,-0.6957
965,0.0766,-3.9087,9.4268,1.6696,3.2696,-0.4174
970,0.0383,-3.8704,9.4651,2.5739,3.4783,-0.1391
975,0.0,-3.7937,9.4651,3.3391,3.3391,0.1391
980,0.1533,-3.7554,9.4268,3.9652,3.1304,0.6261
985,0.1533,-3.7554,9.3885,4.313,3.1304,0.9043
990,0.1533,-3.7171,9.4268,4.313,2.9913,1.1826
995,0.1533,-3.6787,9.5034,4.2435,2.9217,1.4609
1000,0.1533,-3.6404,9.4651,4.0348,2.8522,1.6696
1005,0.0383,-3.4871,9.5034,3.6174,2.6435,1.9478
1010,0.1916,-3.5638,9.3885,3.2,2.5043,2.2261
1015,0.2299,-3.6787,9.4268,2.9217,2.4348,2.2261
1020,0.1533,-3.5638,9.4268,2.713,2.2261,2.5043
1025,0.1533,-3.6021,9.3885,2.5739,2.0174,2.5739
1030,0.115,-3.6404,9.3885,2.5043,1.9478,2.713
1035,0.0383,-3.6404,9.5034,2.5043,1.8783,2.8522
1040,0.0,-3.6021,9.3885,2.4348,1.6696,2.9913
1045,0.115,-3.7937,9.5034,2.5043,1.4609,2.9913
1050,0.0383,-3.7171,9.3885,2.5739,1.3217,3.1304
1055,0.0,-3.7171,9.3885,2.6435,1.1826,3.1304
1060,-0.1533,-3.7554,9.5034,2.713,1.0435,3.0609
1065,-0.115,-3.7171,9.6184,2.8522,1.0435,3.0609
1070,-0.1533,-3.7171,9.3885,3.1304,1.113,3.1304
1075,-0.0766,-3.7937,9.5418,3.4087,1.2522,2.9913
1080,-0.1916,-3.7171,9.5034,3.687,1.4609,2.9913
1085,-0.2299,-3.6787,9.4651,4.0348,1.7391,2.9217
1090,-0.2682,-3.6787,9.4268,4.313,1.7391,2.713
1095,-0.1916,-3.6787,9.4268,4.3826,2.087,2.5739
1100,-0.2299,-3.5255,9.6567,4.5217,2.4348,2.2957
1105,-0.3066,-3.6404,9.5418,4.7304,2.713,2.2261
1110,-0.3066,-3.6787,9.4268,4.8696,2.9913,2.087
1115,-0.1916,-3.5638,9.4651,5.0783,3.4087,1.7391
1120,-0.2682,-3.6021,9.4268,5.1478,3.8957,1.6
1125,-0.3066,-3.6021,9.6184,5.0087,4.2435,1.4609
1130,-0.4215,-3.6021,9.4651,4.7304,4.8696,1.3913
1135,-0.5365,-3.5638,9.4651,4.4522,5.3565,1.0435
1140,-0.3832,-3.7171,9.4651,4.0348,5.9826,1.0435
1145,-0.3832,-3.6021,9.5418,3.6174,6.6087,0.6957
1150,-0.2682,-3.6787,9.5034,3.2696,7.0261,0.487
1155,-0.3832,-3.4488,9.4651,2.9217,7.513,0.3478
1160,-0.2682,-3.6787,9.5801,2.5739,7.9304,0.2783
1165,-0.3066,-3.6021,9.5418,2.1565,8.1391,0.2087
1170,-0.1533,-3.7171,9.5034,1.8087,8.3478,0.1391
1175,-0.2682,-3.5638,9.5418,1.4609,8.5565,0.1391
1180,-0.1916,-3.5638,9.4268,1.1826,8.6261,-0.0696
1185,-0.2299,-3.5255,9.4651,0.9043,8.6261,-0.1391
1190,-0.1916,-3.5255,9.5801,0.7652,8.6957,-0.2087
1195,-0.2682,-3.4871,9.5418,0.6957,8.7652,-0.2783
1200,-0.1916,-3.5255,9.4268,0.6957,8.6957,-0.3478
1205,-0.0383,-3.7171,9.6184,0.7652,8.4174,-0.4174
1210,-0.1533,-3.6787,9.5418,1.0435,8.2783,-0.5565
1215,-0.1533,-3.5255,9.5801,1.3217,7.8609,-0.7652
1220,-0.0766,-3.5255,9.5801,1.6696,7.513,-0.9739
1225,-0.115,-3.5638,9.5801,2.087,7.1652,-1.113
1230,-0.1916,-3.2189,9.6567,2.2957,7.0261,-1.2522
1235,0.0,-3.5638,9.695,2.4348,6.8174,-1.4609
1240,-0.115,-3.6021,9.3118,2.713,6.6783,-1.8087
1245,-0.0383,-3.5255,9.4651,2.9217,6.6087,-1.9478
1250,0.1533,-3.5255,9.7334,2.8522,6.7478,-2.087
1255,0.0,-3.6787,9.8866,2.7826,6.8174,-2.2261
1260,0.115,-3.7937,9.925,2.6435,6.887,-2.3652
1265,0.1533,-3.3722,9.3885,2.4348,6.8174,-2.5043
1270,0.115,-3.7554,9.1969,2.3652,6.887,-2.5043
1275,0.1533,-3.3339,9.6567,2.087,6.8174,-2.5739
1280,-0.0766,-3.5638,9.4651,1.7391,6.7478,-2.5043
1285,0.0766,-3.4105,9.6567,1.3217,6.8174,-2.4348
1290,0.115,-3.4871,9.5418,0.9043,6.887,-2.4348
1295,0.1533,-3.4488,9.6184,0.4174,6.887,-2.4348
1300,0.1533,-3.4105,9.6567,0.0,6.9565,-2.2261
1305,0.1533,-3.6021,9.8483,-0.2087,7.0261,-2.087
1310,0.0,-3.7554,10.2698,-0.2783,7.0957,-1.8783
1315,0.1916,-3.4105,9.1586,-0.487,7.3043,-1.7391
1320,0.3066,-3.5638,9.925,-0.487,7.3739,-1.5304
1325,-0.1533,-3.6404,10.1166,-0.7652,7.6522,-1.3217
1330,-0.1916,-3.2955,9.9633,-0.9043,7.8609,-1.2522
1335,0.2299,-3.1806,9.925,-1.1826,8.0696,-1.1826
1340,0.115,-3.5255,8.8903,-1.4609,8.2087,-1.1826
1345,0.0,-3.4871,9.3885,-1.6,8.487,-1.1826
1350,0.1916,-3.2189,9.1202,-1.6696,8.7652,-1.3913
1355,0.1533,-3.2955,9.6184,-1.6696,9.113,-1.5304
1360,-0.0766,-3.5255,9.6567,-1.6,9.4609,-1.8087
1365,-0.0383,-3.4871,9.6567,-1.3217,9.6696,-2.087
1370,0.0383,-3.3722,9.5801,-0.9739,9.8087,-2.4348
1375,0.0,-3.4488,9.5801,-0.8348,9.7391,-2.9217
1380,-0.2299,-2.7591,9.4651,-1.113,9.8783,-3.2696
1385,-0.1533,-3.0656,9.7334,-1.6,10.2957,-3.5478
1390,-0.3066,-3.1806,9.1586,-1.8783,10.8522,-3.6174
1395,-0.2299,-3.5255,9.2352,-1.4609,11.3391,-3.8957
1400,-0.8047,-3.2189,9.8866,-0.5565,11.4087,-4.313
1405,-0.1916,-3.0656,9.2735,0.487,11.1304,-4.5217
1410,0.0,-2.989,9.5801,1.113,10.9913,-4.5217
1415,-0.4598,-3.5255,10.2315,1.6696,10.8522,-4.5913
1420,-0.2299,-2.9507,10.1166,2.2261,10.9913,-4.5217
1425,-0.2299,-4.0236,9.4651,2.9217,11.2696,-4.5913
1430,-0.3449,-3.6021,9.4651,3.6174,11.687,-4.5913
1435,-0.2682,-3.4871,9.695,4.1043,12.1043,-4.8
1440,-0.1533,-3.5255,9.695,4.5913,12.5913,-4.9391
1445,-0.3449,-3.5638,9.695,4.4522,13.0087,-5.0783
1450,-0.3066,-3.4105,9.6567,4.1739,13.287,-5.2174
1455,-0.7281,-3.4871,9.5034,3.5478,13.5652,-5.4261
1460,-0.115,-3.832,9.5418,2.6435,13.7043,-5.7739
1465,-0.8047,-3.7937,9.6184,1.7391,13.6348,-5.9826
1470,-0.0383,-3.3722,9.5418,0.5565,13.4957,-6.3304
1475,-0.3066,-3.947,9.2352,-0.6261,13.287,-6.5391
1480,-1.2263,-3.5638,9.7334,-1.6,13.0783,-6.7478
1485,-0.0766,-3.5638,10.2315,-2.5043,12.7304,-6.8174
1490,-0.4982,-3.7171,9.6184,-3.4783,12.8696,-7.1652
1495,-0.3449,-2.9507,9.4651,-4.2435,12.9391,-7.3043
1500,-0.4982,-3.8704,8.9286,-4.6609,13.0783,-7.2348
1505,-0.4598,-3.4871,9.2352,-4.8696,13.2174,-7.0957
1510,-0.5748,-3.4871,9.5034,-4.9391,13.3565,-6.9565
1515,-0.5748,-3.5255,9.4651,-4.8696,13.3565,-6.6783
1520,-0.4598,-3.4871,9.5418,-4.5217,13.4261,-6.3304
1525,-0.5365,-3.4871,9.3885,-3.8957,13.4261,-5.913
1530,-0.5748,-3.7937,9.81,-3.3391,13.287,-5.7043
1535,-0.3066,-3.4105,9.8866,-2.6435,13.2174,-5.0783
1540,-0.9963,-3.9853,9.695,-1.8783,13.1478,-4.4522
1545,-0.115,-3.4488,9.81,-1.113,12.8,-3.9652
1550,-0.7664,-2.989,9.7717,-0.5565,12.4522,-3.4087
1555,-0.0383,-3.0656,9.5418,-0.0696,12.1043,-2.8522
1560,-0.6514,-3.4871,9.2352,0.2783,11.6174,-2.3652
1565,-0.4982,-3.6021,9.3885,0.487,10.9913,-1.6696
1570,-0.3449,-3.5255,9.6184,0.6261,10.3652,-1.113
1575,-0.4598,-3.4105,9.7717,0.8348,9.7391,-0.6261
1580,-0.3832,-3.6021,9.5801,0.9043,9.113,0.0
1585,-0.4598,-3.1423,9.3885,0.8348,8.487,0.5565
1590,-0.4215,-3.3722,9.5418,0.6957,7.7217,0.9739
1595,-0.3449,-3.3339,9.6184,0.5565,7.0957,1.4609
1600,-0.2682,-3.3722,9.5034,0.3478,6.5391,1.9478
1605,-0.3832,-3.2955,9.3885,0.2087,6.0522,2.3652
1610,-0.6514,-3.5638,9.81,0.1391,5.3565,2.9913
1615,-0.5365,-3.4105,9.2352,0.0,5.0087,3.4087
1620,-0.3449,-3.5255,9.6567,-0.4174,4.5913,3.8261
1625,-0.6898,-3.2955,9.5801,-0.9043,4.0348,4.2435
1630,-0.3449,-3.5638,9.6567,-1.3913,3.5478,4.313
1635,-0.6131,-3.5255,9.1969,-1.7391,3.2,4.4522
1640,-0.6898,-3.5638,9.5801,-1.8783,2.9913,4.4522
1645,-0.3449,-3.6404,9.6184,-1.7391,2.5043,4.313
1650,-0.3066,-3.5255,9.7717,-1.3913,2.2957,4.2435
1655,-0.2682,-3.7171,9.2352,-0.9739,2.087,4.2435
1660,-0.5365,-3.3722,9.4651,-0.487,2.0174,4.2435
1665,-0.4598,-3.4871,9.3502,0.0,1.9478,4.2435
1670,-0.5748,-3.4488,9.5418,0.4174,1.8783,4.1739
1675,-0.4598,-3.5255,9.3885,0.5565,1.9478,3.9652
1680,-0.4598,-3.4105,9.5801,0.8348,2.1565,3.8957
1685,-0.6514,-3.4105,9.695,1.3217,2.1565,3.8261
1690,-0.4982,-3.4488,9.6567,1.5304,2.4348,3.7565
1695,-0.7664,-3.6021,9.6567,2.0174,2.6435,3.6174
1700,-0.5748,-3.3722,9.4268,2.2957,2.7826,3.5478
1705,-0.5365,-3.5255,9.5034,2.5043,2.9913,3.4087
1710,-0.4215,-3.4488,9.4268,2.7826,3.1304,3.1304
1715,-0.5748,-3.4488,9.5801,2.9913,3.4783,2.9913
1720,-0.4982,-3.4871,9.4651,3.2696,3.6174,2.8522
1725,-0.6898,-3.4105,9.5418,3.4783,3.8957,2.713
1730,-0.5748,-3.3722,9.5418,3.687,4.1043,2.5739
1735,-0.5748,-3.3722,9.4651,3.8261,4.3826,2.2957
1740,-0.5748,-3.3339,9.5418,3.8957,4.5217,2.0174
1745,-0.5748,-3.4488,9.3885,3.8957,4.7304,1.8783
1750,-0.4982,-3.5255,9.1586,3.8957,4.9391,1.8087
1755,-0.5365,-3.3722,9.695,3.7565,5.0783,1.6
1760,-0.4982,-3.4488,9.6184,3.6174,5.1478,1.3913
1765,-0.5365,-3.3339,9.5034,3.4087,5.2174,1.3217
1770,-0.4598,-3.4105,9.5801,3.2696,5.287,1.1826
1775,-0.5365,-3.3339,9.5034,3.2696,5.2174,0.9739
1780,-0.6131,-3.4488,9.7334,3.1304,5.2174,0.7652
1785,-0.5365,-3.5255,9.6184,3.0609,5.2174,0.6957
1790,-0.4598,-3.3722,9.5418,3.1304,5.287,0.5565
1795,-0.3832,-2.9123,10.1549,3.2,5.2174,0.5565
1800,-0.4982,-3.5255,9.5801,3.2696,5.2174,0.4174
1805,-0.4598,-3.4871,9.6184,3.2696,5.2174,0.2087
1810,-0.5365,-3.4105,9.6567,3.2696,5.3565,0.0696
1815,-0.3449,-3.4488,9.7334,3.2696,5.4261,-0.1391
1820,-0.4598,-3.3722,9.5801,3.3391,5.4957,-0.2087
1825,-0.4598,-3.4488,9.5418,3.3391,5.6348,-0.4174
1830,-0.4215,-3.4871,9.4268,3.3391,5.4957,-0.487
1835,-0.3832,-3.4871,9.695,3.3391,5.6348,-0.487
1840,-0.3832,-3.3339,9.5801,3.4087,5.5652,-0.6261
1845,-0.3066,-3.4105,9.5801,3.4783,5.4957,-0.6957
1850,-0.4598,-3.4488,9.695,3.5478,5.4261,-0.6957
1855,-0.4215,-3.4488,9.5418,3.6174,5.3565,-0.6957
1860,-0.4598,-3.2955,9.6184,3.687,5.2174,-0.5565
1865,-0.4598,-3.3722,9.5034,3.7565,5.2174,-0.487
1870,-0.3832,-3.3339,9.5034,3.7565,5.0087,-0.5565
1875,-0.2682,-3.4488,9.6184,3.7565,4.9391,-0.3478
1880,-0.3832,-3.3339,9.5801,3.8261,4.7304,-0.2087
1885,-0.3449,-3.4871,9.2735,3.9652,4.5913,0.0
1890,-0.4598,-3.3722,9.6184,4.1043,4.3826,0.0
1895,-0.4598,-3.3339,9.6567,4.2435,4.1739,0.2087
1900,-0.3449,-3.4488,9.5801,4.313,4.0348,0.2783
1905,-0.3832,-3.2955,9.5034,4.5217,3.8957,0.2783
1910,-0.4215,-3.4488,9.5034,4.5217,3.687,0.3478
1915,-0.4598,-3.3339,9.5801,4.5913,3.4087,0.487
1920,-0.4598,-3.2955,9.5801,4.5217,3.3391,0.487
1925,-0.4598,-3.2572,9.5034,4.3826,3.2,0.4174
1930,-0.3832,-3.3339,9.6567,4.2435,3.0609,0.2783
1935,-0.2682,-3.1806,9.4651,4.1043,3.0609,0.3478
1940,-0.3832,-3.2572,9.6184,4.0348,3.1304,0.2783
1945,-0.3832,-3.3339,9.7334,4.0348,3.1304,0.2783
1950,-0.3832,-3.3339,9.6184,4.2435,3.1304,0.0696
1955,-0.4215,-3.2572,9.695,4.3826,3.2,0.0696
1960,-0.4215,-3.1806,9.5801,4.5217,3.3391,-0.1391
1965,-0.3832,-3.2572,9.6567,4.6609,3.3391,-0.1391
1970,-0.5365,-3.2189,9.5034,4.6609,3.4087,-0.1391
1975,-0.4982,-3.2189,9.5801,4.7304,3.2,-0.3478
1980,-0.3449,-3.2572,9.6184,4.6609,3.2,-0.4174
1985,-0.3449,-3.2572,9.695,4.6609,3.1304,-0.4174
1990,-0.4598,-3.1423,9.6184,4.6609,2.9913,-0.487
1995,-0.2299,-3.1423,9.6184,4.5913,3.0609,-0.4174
2000,-0.4215,-3.2189,9.5801,4.5217,2.9913,-0.4174
2005,-0.3449,-3.1806,9.6184,4.4522,2.8522,-0.3478
2010,-0.3832,-3.2189,9.5801,4.4522,2.7826,-0.2783
2015,-0.3832,-3.1423,9.5801,4.4522,2.6435,-0.1391
2020,-0.4598,-3.1423,9.695,4.2435,2.6435,-0.0696
2025,-0.3449,-3.1806,9.6567,3.8261,2.5739,0.0696
2030,-0.3449,-3.1806,9.6184,3.4087,2.5043,0.2783
2035,-0.4215,-3.1039,9.5418,3.0609,2.5043,0.3478
2040,-0.3832,-3.1423,9.695,2.5043,2.3652,0.3478
2045,-0.5748,-3.1039,9.5034,1.9478,2.4348,0.487
2050,-0.3832,-3.1423,9.6567,1.3217,2.5043,0.5565
2055,-0.4982,-3.0656,9.6567,0.9043,2.5043,0.487
2060,-0.4215,-3.1039,9.6184,0.4174,2.5043,0.5565
2065,-0.4598,-3.0656,9.5418,0.0,2.5043,0.5565
2070,-0.4982,-3.0273,9.6184,-0.3478,2.6435,0.6261
2075,-0.4982,-2.989,9.7334,-0.7652,2.7826,0.487
2080,-0.5365,-3.1423,9.7334,-0.7652,3.1304,0.4174
2085,-0.4215,-3.0656,9.7717,-0.7652,3.4783,0.4174
2090,-0.4215,-3.2189,9.8483,-0.7652,3.687,0.3478
2095,-0.4982,-3.1039,9.8866,-0.8348,3.9652,0.2783
2100,-0.3449,-3.1423,9.695,-0.8348,4.2435,0.1391
2105,-0.3449,-3.1806,9.7717,-0.9043,4.4522,0.0696
2110,-0.3066,-3.1806,9.7717,-1.0435,4.6609,0.0
2115,-0.4215,-3.1806,9.7717,-1.2522,4.8696,-0.1391
2120,-0.3066,-3.2189,9.7717,-1.5304,5.0087,-0.3478
2125,-0.3832,-3.2189,9.695,-1.9478,4.9391,-0.4174
2130,-0.2299,-3.1423,9.7334,-2.2957,4.9391,-0.487
2135,-0.3449,-3.1423,9.81,-2.7826,5.0783,-0.6261
2140,-0.1916,-3.2955,9.7334,-3.2,4.8696,-0.5565
2145,-0.3449,-3.2189,9.7334,-3.6174,4.8696,-0.6261
2150,-0.3066,-3.1806,9.8866,-4.0348,4.8,-0.6261
2155,-0.2682,-3.1806,9.81,-4.4522,4.7304,-0.6261
2160,-0.1916,-3.3339,9.8866,-4.6609,4.5913,-0.5565
2165,-0.2682,-3.1806,9.695,-4.8696,4.5913,-0.487
2170,-0.2682,-3.3339,9.7717,-4.8696,4.5217,-0.5565
2175,-0.1916,-3.3339,9.7717,-4.9391,4.3826,-0.5565
2180,-0.1533,-3.2955,9.7334,-5.0087,4.313,-0.5565
2185,-0.3066,-3.2955,9.6567,-5.0087,4.1739,-0.6261
2190,-0.3449,-3.2189,9.8483,-4.8696,4.313,-0.6261
2195,-0.2682,-3.3722,9.7717,-4.9391,4.313,-0.5565
2200,-0.4215,-3.1806,9.5801,-5.0783,4.4522,-0.6261
2205,-0.3832,-3.3339,9.695,-5.1478,4.5217,-0.6261
2210,-0.3832,-3.4488,9.5034,-5.3565,4.6609,-0.6261
2215,-0.3449,-3.2572,9.5801,-5.3565,4.7304,-0.6957
2220,-0.3449,-3.2572,9.6184,-5.5652,4.7304,-0.6957
2225,-0.4215,-3.2955,9.6567,-5.4957,4.8,-0.6957
2230,-0.4598,-3.2955,9.4651,-5.5652,4.8696,-0.8348
2235,-0.3449,-3.3339,9.6184,-5.4261,4.9391,-0.9739
2240,-0.3066,-3.3339,9.5801,-5.2174,4.9391,-1.0435
2245,-0.2299,-3.2572,9.695,-5.0087,5.0087,-1.113
2250,-0.3066,-3.3722,9.6184,-4.8,5.0087,-1.113
2255,-0.2682,-3.1423,9.5418,-4.6609,5.0783,-0.9739
2260,-0.2299,-3.2189,9.6184,-4.5217,5.0087,-0.8348
2265,-0.1916,-3.2955,9.5801,-4.4522,5.0087,-0.8348
2270,-0.3066,-3.1806,9.7334,-4.313,5.0087,-0.6957
2275,-0.3832,-3.2189,9.6567,-4.5217,4.8696,-0.487
2280,-0.2682,-3.2189,9.7334,-4.8,4.9391,-0.6261
2285,-0.3066,-3.0656,9.6184,-5.3565,5.0087,-0.6957
2290,-0.3449,-3.1423,9.8483,-6.1913,4.9391,-0.6261
2295,-0.3832,-3.1039,9.7334,-7.2348,4.8696,-0.7652
2300,-0.3066,-3.1423,9.6184,-8.0696,4.8,-0.7652
2305,-0.3832,-3.1806,9.81,-8.6957,4.5217,-0.8348
2310,-0.4598,-3.0656,9.5418,-8.8348,4.313,-0.7652
2315,-0.4215,-3.2189,9.7717,-8.6261,3.8957,-0.9043
2320,-0.8047,-3.2189,9.5034,-8.4174,3.7565,-0.9739
2325,-0.3832,-3.2955,9.6184,-8.3478,3.4783,-1.0435
2330,-0.3449,-3.1423,9.5418,-8.6261,3.4087,-1.1826
2335,-0.3449,-3.2572,9.3885,-9.2522,3.4087,-1.3217
2340,-0.3066,-3.1423,9.695,-10.2957,3.4783,-1.4609
2345,-0.4215,-3.1423,9.6184,-11.7565,3.687,-1.8087
2350,-0.4982,-3.2189,9.5801,-13.7739,3.7565,-1.9478
2355,-0.3449,-3.2189,9.695,-15.8609,3.8957,-2.0174
2360,-0.4215,-3.2572,9.7717,-17.8783,4.1043,-2.1565
2365,-0.4215,-3.2572,9.695,-19.7565,4.2435,-2.3652
2370,-0.3449,-3.1423,9.81,-21.287,4.5913,-2.7826
2375,-0.2682,-3.0273,9.81,-22.3304,4.8,-3.8261
2380,-0.4598,-2.8357,9.7717,-23.3043,5.2174,-4.8
2385,-0.4598,-2.8357,9.81,-24.5565,5.5652,-5.5652
2390,-0.4598,-2.6824,9.695,-26.8522,5.913,-6.2609
2395,-0.3449,-2.6441,9.7717,-29.7739,6.2609,-7.0957
2400,-0.3449,-2.5675,9.695,-32.8348,6.3304,-8.3478
2405,-0.4215,-2.7591,9.81,-35.9652,6.4,-9.3913
2410,-0.3066,-2.7591,9.7334,-39.513,6.1913,-9.8783
2415,-0.5748,-2.7207,9.5418,-42.8522,6.0522,-10.5043
2420,-0.3832,-2.7207,9.3885,-46.2609,5.7739,-11.0609
2425,-0.4598,-2.874,9.2735,-50.3652,5.7043,-11.2696
2430,-0.5365,-3.0656,8.8903,-55.0261,5.6348,-11.5478
2435,-0.3832,-3.3722,8.8903,-60.1739,5.4957,-11.8261
2440,-0.3449,-3.6787,8.8903,-65.3217,5.4957,-11.6174
2445,-0.3832,-3.832,9.0436,-69.913,5.4261,-11.4783
2450,-0.3066,-3.8704,9.0053,-73.1826,5.4957,-11.8261
2455,-0.3449,-3.9853,9.1202,-75.3391,5.5652,-12.0348
2460,-0.4982,-4.1003,9.0436,-76.4522,5.6348,-12.0348
2465,-0.4215,-4.1386,9.0436,-76.9391,5.7739,-11.5478
2470,-0.1916,-4.2536,9.1586,-77.0087,5.913,-11.4087
2475,-0.4598,-4.3302,9.0053,-76.7304,5.8435,-11.5478
2480,-0.4215,-4.5601,8.967,-76.1043,5.8435,-10.9217
2485,-0.4598,-4.6751,9.0053,-74.5739,5.5652,-10.5739
2490,-0.3066,-4.7134,8.967,-72.6957,5.4957,-10.087
2495,-0.3449,-4.5601,9.1969,-69.9826,5.5652,-9.6
2500,-0.3066,-4.5984,9.1586,-66.5043,5.913,-9.0435
2505,-0.4982,-4.8284,9.1969,-62.7478,6.1913,-8.3478
2510,-0.4215,-4.79,9.0819,-59.2696,6.3304,-7.513
2515,-0.3832,-4.9816,9.0436,-56.2087,6.3304,-7.0261
2520,-0.6514,-4.8284,8.967,-53.5652,6.3304,-6.887
2525,-0.3832,-4.905,8.852,-51.7565,6.1913,-6.0522
2530,-0.3832,-4.905,9.0819,-49.8783,5.7739,-5.5652
2535,-0.5365,-4.7517,8.8137,-47.8609,5.287,-5.1478
2540,-0.4215,-4.79,8.8137,-45.913,4.8,-4.4522
2545,-0.3832,-4.905,9.0053,-44.2435,4.313,-3.9652
2550,-0.2299,-4.905,8.8137,-42.7826,4.1739,-3.6174
2555,-0.3832,-4.7134,8.8137,-41.5304,3.7565,-3.687
2560,-0.3066,-4.7517,8.7754,-40.2783,3.3391,-4.0348
2565,-0.4598,-4.5601,8.737,-39.5826,2.9913,-4.8
2570,-0.1916,-4.7517,8.5838,-39.0261,2.2261,-4.9391
2575,-0.2682,-4.5601,8.737,-38.6783,1.8087,-5.6348
2580,-0.5365,-4.2536,8.967,-38.3304,1.4609,-6.3304
2585,-0.0766,-4.3302,8.6221,-37.4261,1.3217,-6.4
2590,-0.4215,-4.1769,8.7754,-36.6609,1.113,-7.4435
2595,-0.3066,-4.2152,8.5838,-36.1043,0.9043,-7.3739
2600,-0.2299,-4.1769,8.6987,-35.687,0.8348,-7.3739
2605,-0.3449,-4.1386,8.5454,-35.5478,0.8348,-7.5826
2610,-0.2682,-4.062,8.6987,-35.687,0.8348,-7.7217
2615,0.115,-4.2536,8.6987,-36.1043,0.4174,-7.7217
2620,-0.2299,-4.2536,8.6604,-36.5913,0.0696,-8.2783
2625,-0.1916,-4.3302,8.6221,-36.8,0.0696,-8.487
2630,-0.2682,-4.4068,8.8137,-37.8435,-0.0696,-8.8348
2635,-0.4982,-4.4835,8.6221,-38.4,-0.1391,-9.0435
2640,-0.1916,-4.8667,8.737,-38.3304,-0.3478,-9.3217
2645,-0.2299,-4.6751,8.6604,-38.4,-0.4174,-9.5304
2650,-0.2682,-4.8284,8.737,-38.1913,-0.4174,-9.2522
2655,0.1533,-4.79,8.737,-37.7739,-0.3478,-8.8348
2660,-0.115,-4.5601,8.8903,-37.287,-0.3478,-9.4609
2665,-0.5748,-4.79,8.5071,-35.3391,-0.0696,-9.8087
2670,0.115,-4.9816,8.4305,-35.4783,0.0,-10.3652
2675,-0.0383,-4.5218,8.4688,-38.9565,-0.4174,-10.713
2680,-0.1533,-3.8704,8.6987,-41.5304,-0.5565,-10.6435
2685,0.2299,-4.6751,8.0089,-40.2087,-0.0696,-9.8783
2690,-0.3066,-4.8284,7.8173,-44.1739,-0.1391,-12.8
2695,-0.4215,-3.9853,8.852,-50.713,-0.7652,-13.0783
2700,0.0766,-4.7134,8.0856,-51.8261,-1.0435,-11.7565
2705,-0.1916,-4.9816,7.6257,-54.4696,-1.2522,-13.4957
2710,-0.6514,-3.947,8.8137,-62.8174,-2.1565,-14.2609
2715,-0.3066,-4.5984,7.6641,-65.6,-2.8522,-14.2609
2720,0.0766,-5.2116,7.5108,-68.1043,-2.9217,-14.0522
2725,0.1533,-4.905,7.894,-75.8957,-3.2,-14.887
2730,-1.8011,-3.6787,9.0819,-83.687,-3.4783,-15.7217
2735,1.1879,-4.6368,8.8137,-86.4,-3.2696,-11.1304
2740,0.1533,-5.2882,8.0856,-88.4174,-2.8522,-11.9652
2745,0.8814,-5.0583,8.9286,-93.7739,-2.5043,-12.1739
2750,0.3832,-5.5564,8.5454,-99.3391,-2.4348,-13.4261
2755,0.3066,-5.3648,9.5034,-105.5304,-2.4348,-13.5652
2760,0.3832,-5.9013,9.0819,-109.0087,-2.2261,-13.7043
2765,0.9197,-6.5911,9.1969,-114.6435,-1.8087,-12.9391
2770,0.843,-6.5528,9.5801,-121.3217,-1.6696,-11.2
2775,1.6478,-6.3995,10.1166,-126.6087,-1.3217,-9.6696
2780,0.4598,-6.9743,9.3118,-130.087,-0.9043,-10.2957
2785,0.7664,-6.936,9.5034,-133.7739,-0.5565,-8.2087
2790,0.6898,-7.5874,8.7754,-135.513,-0.1391,-5.9826
2795,0.1916,-7.3192,8.852,-137.8783,0.2087,-2.4348
2800,-0.5365,-7.2425,8.5454,-138.6435,0.2087,1.6
2805,-0.2682,-7.4725,8.0089,-140.0348,0.1391,6.1913
2810,-0.3832,-7.3192,8.4688,-144.2783,-0.6261,10.5739
2815,-1.6478,-7.779,7.5491,-146.2957,-1.6,12.1739
2820,-1.4945,-8.3538,7.6641,-150.5391,-2.5043,14.4696
2825,-2.0693,-8.7754,7.6257,-154.2261,-3.2696,14.1217
2830,-2.1076,-9.2352,7.779,-156.3826,-3.8957,13.5652
2835,-1.5328,-10.1549,7.779,-156.6609,-4.2435,13.913
2840,-1.1496,-11.1512,7.894,-155.2696,-3.687,14.2609
2845,-0.958,-11.0746,8.6987,-152.2783,-2.8522,13.9826
2850,-0.7664,-12.0326,8.2772,-142.1217,-0.6957,14.0522
2855,0.1533,-13.3355,7.5108,-131.2,1.4609,12.7304
2860,-0.0383,-12.9523,8.2772,-123.2,2.713,9.113
2865,-0.2682,-12.8756,7.9706,-109.4261,4.2435,5.7739
2870,0.8814,-14.2552,5.978,-91.687,5.8435,4.8696
2875,1.3795,-13.4504,6.0546,-88.2087,5.4957,0.7652
2880,0.1533,-12.3008,6.5911,-85.913,5.5652,-5.7043
2885,0.6514,-12.8373,5.9396,-80.9739,6.2609,-7.9304
2890,0.4215,-12.6457,6.0546,-78.0522,7.0261,-9.4609
2895,-0.4982,-10.4231,7.5108,-75.0609,7.9304,-11.687
2900,0.6131,-11.3428,7.1659,-64.9043,9.0435,-8.0
2905,1.3795,-13.9486,4.6368,-64.4174,8.0,-7.8609
2910,-0.2299,-12.1092,7.3192,-74.1565,6.5391,-12.2435
2915,-0.2299,-12.1859,7.4725,-72.2783,4.8696,-12.1043
2920,-0.1916,-12.3391,7.0126,-66.8522,3.2696,-10.6435
2925,1.1113,-11.9176,7.3958,-62.2609,2.1565,-8.0696
2930,-2.4908,-11.7643,6.6294,-57.3913,1.7391,-11.1304
2935,0.958,-7.2809,10.5764,-53.9826,2.9217,-1.7391
2940,0.9197,-15.4048,1.4945,-39.1652,4.4522,0.8348
2945,-0.1533,-12.5691,6.0163,-61.287,3.687,-4.9391
2950,0.2682,-12.3775,6.3612,-72.0696,2.3652,-5.8435
2955,0.3832,-12.5307,5.978,-72.0,2.2957,-5.913
2960,0.3832,-12.6074,5.6331,-69.7739,2.3652,-5.6348
2965,1.1496,-12.9139,5.1349,-67.9652,2.7826,-4.1043
2970,0.5748,-12.7607,5.3648,-67.687,2.9913,-3.0609
2975,0.5365,-12.684,5.2882,-67.8957,2.1565,-1.8087
2980,0.6514,-12.6457,5.0583,-68.0348,0.9043,0.0
2985,0.843,-12.8373,4.8667,-68.2435,-0.6957,3.1304
2990,0.3832,-12.5691,5.0583,-69.4957,-2.0174,5.0783
2995,0.3449,-12.2625,5.2116,-70.6087,-3.7565,7.1652
