timestamp,accX,accY,accZ,gyroX,gyroY,gyroZ
0,2.9507,3.2189,1.6095,85.4957,47.1652,-11.5478
5,1.6861,4.4068,0.8047,83.4087,52.6609,-18.2957
10,0.6898,4.8667,0.6131,76.6609,56.6261,-26.087
15,-0.6514,5.1349,0.6898,67.2,58.5739,-32.2087
20,-1.7244,5.02,0.3066,57.113,58.713,-34.5043
25,-2.4525,4.2152,0.0766,47.0261,55.3043,-33.3913
30,-2.7974,3.1806,-0.1533,37.5652,47.0261,-29.287
35,-2.6824,1.7627,-0.4982,29.2174,35.5478,-23.3043
40,-1.9927,0.4598,-0.4982,23.6522,24.487,-18.2261
45,-1.2263,-0.6131,-0.1533,20.8,17.9478,-15.513
50,-1.0346,-1.4179,0.2682,22.1913,17.2522,-15.2348
55,-2.2992,-2.3375,-1.3412,28.0348,21.1478,-16.8348
60,-3.5255,-2.8357,-0.4215,36.5217,24.8348,-17.0435
65,-3.832,-2.9507,-1.3795,49.6696,21.0087,-13.913
70,-3.0656,-3.4488,-2.2609,62.4,4.6609,-9.113
75,-1.3412,-4.062,-3.5638,74.2957,-21.2174,-5.0783
80,0.3449,-4.2152,-5.5564,78.2609,-44.2435,-3.4783
85,0.3449,-5.0583,-5.9396,63.513,-44.6609,-3.6174
90,-1.1879,-6.7061,-5.5948,28.5217,-22.7478,-2.9217
95,-3.1423,-8.7754,-2.1076,-18.087,-1.5304,1.9478
100,-4.5601,-11.3811,2.3759,-61.1478,-2.713,13.913
105,-4.3302,-13.9486,5.3265,-87.8609,-33.2522,30.1913
110,-2.989,-16.4394,6.5911,-94.5391,-70.7478,40.487
115,-0.3449,-18.3171,4.4835,-84.313,-88.4174,41.1826
120,-0.3449,-18.7003,-0.5748,-70.0522,-85.6348,37.287
125,-1.4945,-18.8536,-5.4798,-64.4174,-81.0435,39.4435
130,-2.031,-19.5817,-7.6641,-69.2174,-75.3391,50.8522
135,-0.1533,-20.5397,-3.4488,-73.2522,-53.8435,59.8261
140,3.6787,-20.0415,3.4871,-60.5217,-17.0435,54.8174
145,6.4761,-18.777,8.852,-36.5913,8.3478,37.7739
150,7.0509,-18.1255,10.768,-10.713,0.9043,24.2783
155,7.3575,-18.3554,9.6567,15.7217,-22.1217,16.7652
160,8.1239,-18.3554,7.779,37.2174,-32.7652,7.0261
165,8.2005,-17.9722,5.1732,50.5739,-24.5565,-3.3391
170,7.2809,-17.7423,2.5291,53.7739,-7.6522,-10.9217
175,6.5528,-18.0872,0.3449,48.1391,3.5478,-16.5565
180,6.5145,-18.5854,-0.3832,42.0174,6.4,-22.7478
185,6.3612,-18.777,-0.8047,41.2522,9.6,-30.2609
190,5.5948,-18.2788,-0.7281,46.4696,16.0,-35.4087
195,4.8667,-17.4741,-0.8047,58.1565,22.6783,-36.4522
200,3.7554,-16.1329,-1.073,73.6,27.6174,-37.1478
205,2.3375,-14.4084,-1.4562,88.3478,31.9304,-38.9565
210,1.3412,-13.0672,-0.6131,97.6696,36.4522,-39.7217
215,0.3066,-11.5727,0.6898,105.0435,37.5652,-40.9739
220,-0.3832,-8.5454,0.0383,115.3391,35.687,-40.0696
225,-1.0346,-6.2462,-2.3759,122.8522,36.1043,-30.7478
230,-1.5711,-5.5948,-4.062,109.4261,40.0,-22.3304
235,-3.1423,-6.1313,-3.0273,72.8348,36.1043,-24.8348
240,-3.7554,-6.6677,-0.0383,36.6609,21.5652,-30.7478
245,-3.4105,-6.821,2.1459,26.713,6.6783,-33.7391
250,-2.989,-6.1313,2.989,46.8174,1.6,-34.9913
255,-1.8777,-5.02,1.6861,82.3652,6.5391,-33.7391
260,-0.3832,-3.2572,2.3375,116.1739,13.9826,-27.7565
265,-0.6514,-2.2609,1.6861,136.4174,19.8261,-24.0
270,-2.2992,-1.9543,0.3832,130.9217,28.3826,-25.6696
275,-1.0346,-2.7207,-0.6514,106.5043,36.5913,-21.913
280,1.4945,-6.3229,-0.958,73.1826,27.4783,-8.4174
285,4.905,-12.0326,0.2299,39.3043,6.1217,4.313
290,5.1732,-16.9376,-3.3339,20.0348,-5.4261,0.8348
295,1.1496,-23.2988,-29.1234,-44.1739,29.287,-32.9739
300,-7.4341,-36.4043,-19.2368,-186.2261,95.3739,-78.6087
305,-17.6657,-46.7508,3.7171,-283.8261,107.3391,-108.8696
310,-16.746,-54.7597,16.8226,-262.0522,39.6522,-118.7478
315,-11.1895,-54.913,19.2751,-157.2174,-45.913,-158.3304
320,-10.4614,-46.176,11.8027,-40.0,-80.6261,-214.6783
325,-12.0326,-37.2473,2.1843,64.9739,-39.1652,-222.9565
330,-14.7533,-27.8972,-5.4798,162.8522,18.0174,-183.513
335,-15.6347,-18.3554,-10.1166,252.5913,41.3913,-130.0174
340,-11.6111,-8.967,-8.7754,300.8696,28.0348,-92.1043
345,-7.0509,-2.0693,-6.3229,263.7217,-14.4,-71.7217
350,-1.6478,-0.7281,-3.0273,156.6609,-53.9826,-46.6087
355,2.8357,-4.1003,-0.5748,33.9478,-64.7652,-17.6
360,5.1732,-9.1969,1.2263,-54.3304,-54.3304,10.3652
365,5.4415,-12.9139,0.5748,-90.7826,-38.0522,31.7217
370,5.4415,-15.4431,-0.6898,-90.5043,-22.887,46.0522
375,6.0929,-17.0525,-1.6095,-77.1478,-8.7652,55.7913
380,6.3229,-18.4321,-1.4179,-66.9913,5.0087,58.4348
385,5.978,-19.0452,-1.1879,-64.6957,16.2783,54.4696
390,4.905,-19.4284,-1.1496,-69.2174,21.3565,46.6087
395,3.832,-19.1602,-0.3066,-76.313,20.313,36.9391
400,2.989,-18.0872,0.2299,-77.4957,17.5304,28.2435
405,2.2992,-16.7077,0.5748,-68.6609,18.9217,22.4
410,0.8814,-14.9066,0.7664,-50.1565,27.3391,19.6174
415,-0.4215,-13.0672,0.9963,-28.313,38.3304,18.3652
420,-1.7244,-11.0746,1.1496,-11.8957,45.3565,17.0435
425,-2.989,-9.4268,1.5711,-4.8,46.5391,15.8609
430,-3.5638,-8.1239,2.1076,-5.9826,43.8261,15.3739
435,-4.6368,-6.7827,2.4142,-12.8696,39.9304,15.7217
440,-4.905,-6.0163,2.6824,-22.4,35.2,17.2522
445,-4.7517,-5.5181,2.5291,-30.3304,29.913,19.687
450,-4.1386,-5.2882,1.9543,-36.6609,25.7391,23.0957
455,-3.1423,-5.2882,1.6861,-41.8783,23.5826,26.3652
460,-2.1459,-5.3265,1.5711,-45.7739,23.1652,28.8
465,-1.3029,-5.2499,1.4945,-48.6957,25.113,30.4
470,-0.6898,-5.1732,1.3029,-51.3391,28.6609,31.9304
475,-0.5748,-5.1732,1.6095,-54.4,32.4174,33.2522
480,-0.8047,-5.2499,1.4179,-58.0174,34.2957,33.6696
485,-0.8814,-5.7864,1.9543,-60.7304,33.3913,33.5304
490,-0.6898,-6.3229,2.5675,-60.5217,30.9565,33.4609
495,-0.5748,-6.936,2.9507,-55.3739,28.8696,32.9043
500,-0.8814,-7.1659,3.6404,-45.7043,26.8522,31.3043
505,-1.6861,-7.2809,3.3722,-32.6261,24.0,28.7304
510,-2.4142,-7.0509,3.1039,-20.0348,19.687,24.487
515,-2.6441,-6.7444,2.6058,-11.1304,13.4957,20.8
520,-2.3759,-6.4761,1.9543,-6.887,8.2087,18.8522
525,-2.1076,-6.5145,2.031,-7.8609,6.8174,17.6
530,-1.3412,-6.2845,1.5328,-8.6261,8.0696,17.3913
535,-0.8047,-6.0163,0.9963,-9.4609,11.3391,18.1565
540,-0.0383,-6.3995,0.8047,-12.8,14.7478,18.4348
545,0.2682,-6.2079,0.6131,-18.5043,16.2783,17.6
550,0.5748,-6.6294,0.0383,-24.6957,15.7913,16.2783
555,0.843,-7.0126,-0.4598,-29.9826,14.1913,14.2609
560,0.8047,-7.4725,-0.7281,-34.087,12.5913,12.3826
565,0.7281,-8.1239,-0.7664,-36.8,11.5478,10.2957
570,0.7664,-8.852,-0.7281,-38.1217,11.6174,8.1391
575,0.7281,-9.4268,-0.3066,-37.7043,12.5217,5.3565
580,0.3832,-10.0016,0.115,-35.2,13.7739,2.3652
585,0.0383,-10.3465,0.3832,-31.4435,14.4696,-0.2087
590,-0.2299,-11.0363,0.4215,-27.9652,14.1217,-2.6435
595,-0.6514,-11.2662,0.0383,-25.5304,13.1478,-5.2174
600,-0.8047,-11.2662,-0.1533,-24.0696,12.4522,-7.3739
605,-0.958,-11.4195,-0.4982,-22.4,12.6609,-8.6261
610,-0.958,-11.2279,-0.7281,-19.8957,14.6087,-8.8348
615,-0.8814,-11.1512,-0.6131,-17.2522,17.4609,-8.0
620,-0.9197,-10.8063,-0.4982,-15.1652,20.5913,-5.9826
625,-0.7281,-10.4998,-0.1533,-13.2174,22.6783,-3.6174
630,-0.8047,-10.0399,0.3832,-11.4783,23.6522,-1.4609
635,-1.073,-9.8866,0.6131,-10.2261,23.3043,0.8348
640,-1.4562,-9.8483,0.843,-9.113,21.4957,3.2
645,-1.9927,-9.7334,1.073,-7.8609,18.087,5.0783
650,-1.4562,-9.7334,0.8047,-6.8174,13.7043,5.9826
655,-0.8814,-9.5034,0.4598,-5.4261,9.3217,6.4696
660,-0.3066,-9.3885,0.2682,-3.5478,5.8435,6.4696
665,0.0766,-9.2735,0.4982,-1.3913,3.9652,6.2609
670,0.4982,-9.1969,0.6514,0.9043,3.9652,5.7043
675,0.3066,-9.1202,0.9963,2.2261,5.1478,4.8696
680,0.2682,-9.1586,0.8814,1.113,5.7739,4.313
685,0.3066,-9.5034,1.1879,-1.6,5.7739,3.8957
690,0.0383,-9.695,1.2263,-4.313,5.913,3.2696
695,0.2299,-10.0399,1.1496,-6.1913,6.3304,2.9217
700,0.6131,-10.3465,1.1496,-7.0261,6.887,2.3652
705,0.843,-10.5381,1.0346,-6.4,7.513,1.9478
710,0.9963,-10.6147,0.9963,-4.5217,9.113,1.7391
715,1.1113,-10.5764,0.843,-2.0174,11.2696,1.6696
720,0.958,-10.3848,0.8047,0.1391,13.5652,1.4609
725,0.843,-10.1166,0.6131,1.7391,16.0,0.9739
730,0.5748,-9.7717,0.5748,2.6435,18.0174,0.3478
735,0.5748,-9.5801,0.4598,3.2,19.4783,-0.1391
740,0.115,-9.4651,0.3449,3.1304,21.0087,-0.4174
745,0.0,-9.4268,0.3066,2.4348,22.0522,-0.6261
750,-0.0383,-9.3885,0.1916,1.5304,22.5391,-0.9739
755,-0.1916,-9.3118,-0.115,0.6261,22.9565,-1.3217
760,-0.3449,-9.5801,0.0383,0.2783,23.4435,-1.8087
765,-0.3832,-9.5801,0.0,0.5565,24.3478,-2.2261
770,-0.4598,-9.4651,0.0383,1.3913,25.5304,-2.713
775,-0.7281,-9.2735,0.2682,2.5043,26.5043,-2.9913
780,-0.843,-9.0436,0.3066,3.3391,27.2696,-3.2
785,-0.7281,-9.1586,0.2299,2.9913,27.8261,-3.2
790,-0.8814,-9.0436,0.3449,1.8087,27.9652,-3.2
795,-1.0346,-9.1202,0.4215,-0.2087,27.5478,-2.9913
800,-0.958,-9.3502,0.2682,-2.1565,26.713,-3.0609
805,-0.9197,-9.5418,0.2682,-4.2435,25.6696,-3.2696
810,-0.9963,-9.8866,0.3832,-5.913,24.6261,-3.5478
815,-0.843,-10.0016,0.3449,-7.3043,24.0,-3.9652
820,-0.7281,-10.1932,0.3066,-8.1391,23.3043,-4.3826
825,-0.6898,-10.2698,0.3449,-7.7217,22.6783,-4.8696
830,-0.4982,-10.4614,0.4215,-6.7478,22.3304,-5.1478
835,-0.6898,-10.3082,0.4598,-5.6348,22.2609,-5.4957
840,-0.6514,-10.4614,0.4215,-4.7304,21.6348,-5.5652
845,-0.4598,-10.3848,0.2299,-4.4522,20.5913,-5.3565
850,-0.4215,-10.4614,0.3066,-4.313,19.5478,-5.2174
855,-0.3832,-10.3848,0.1533,-3.687,18.9913,-5.0087
860,-0.115,-10.2315,0.115,-2.4348,18.8522,-4.8696
865,-0.2682,-10.0016,0.0383,-0.8348,18.8522,-4.6609
870,-0.115,-9.9633,-0.1533,0.9739,19.2,-4.4522
875,-0.0383,-9.81,-0.1533,2.7826,19.4087,-4.6609
880,0.0,-9.6567,-0.2682,4.3826,19.687,-4.8
885,-0.2682,-9.4651,-0.3449,5.5652,20.1043,-5.0087
890,-0.4215,-9.3502,-0.3449,6.1913,20.8,-4.9391
895,-0.3449,-9.3118,-0.1916,6.1217,21.6348,-4.8
900,-0.3449,-9.1969,-0.1533,6.3304,22.4,-4.6609
905,-0.4982,-9.1202,-0.2682,6.3304,22.9565,-4.4522
910,-0.3832,-9.2735,-0.115,6.0522,23.3739,-4.1739
915,-0.2682,-9.3502,-0.2299,5.4261,23.6522,-3.8957
920,-0.4982,-9.5034,-0.2682,4.3826,23.4435,-3.6174
925,-0.5365,-9.5418,-0.115,3.2696,23.0957,-3.687
930,-0.843,-9.7334,-0.0383,2.1565,22.6087,-3.687
935,-0.9963,-9.925,0.0,0.9043,21.9826,-3.8261
940,-0.9963,-10.0782,0.0766,-0.487,21.2174,-4.313
945,-0.9963,-10.1932,0.115,-1.6,20.3826,-5.3565
950,-0.958,-10.2698,-0.0766,-2.1565,19.4087,-6.6087
955,-0.843,-10.3082,-0.1533,-2.3652,18.713,-7.7913
960,-0.9963,-10.2698,0.0383,-2.3652,18.5043,-8.8348
965,-1.1879,-10.1932,0.0,-2.0174,18.5043,-9.7391
970,-1.3412,-9.8866,0.0766,-1.2522,18.2957,-10.6435
975,-1.4945,-10.1932,0.1533,0.1391,17.5304,-11.2
980,-1.4562,-9.925,0.2299,2.087,15.9304,-11.7565
985,-1.4179,-9.925,0.0383,4.0348,14.1217,-11.8957
990,-1.0346,-9.6567,0.115,5.4261,12.2435,-11.8957
995,-0.843,-9.5418,0.115,5.9826,10.8522,-11.6174
1000,-0.9197,-9.4268,-0.0383,6.1913,10.3652,-11.2
1005,-0.9197,-9.4268,-0.115,5.913,10.1565,-10.5043
1010,-0.9963,-9.4268,-0.2682,5.0783,9.7391,-9.8783
1015,-0.958,-9.2735,-0.3449,3.4783,8.8348,-9.3913
1020,-0.843,-9.3502,-0.3832,1.6,7.8609,-9.0435
1025,-0.958,-9.3118,-0.2682,-0.3478,6.6783,-8.5565
1030,-1.0346,-9.3885,-0.3449,-2.1565,5.4957,-7.7913
1035,-1.0346,-9.3118,-0.1916,-3.8261,4.1043,-7.0261
1040,-0.8814,-9.2735,-0.2682,-4.8696,2.9217,-6.1217
1045,-0.8814,-9.2352,-0.4215,-5.9826,2.0174,-5.0087
1050,-0.8814,-9.1202,-0.4598,-7.3043,1.7391,-3.7565
1055,-0.7664,-9.0053,-0.5365,-8.8348,1.7391,-2.5043
1060,-0.5365,-8.7754,-0.4598,-9.8783,2.0174,-1.1826
1065,-0.4982,-8.737,-0.3449,-10.5043,2.2957,0.0
1070,-0.4215,-8.4688,-0.2682,-11.8261,2.2261,1.1826
1075,-0.2682,-8.3921,-0.1916,-13.6348,1.7391,2.7826
1080,-0.1916,-8.6604,-0.1916,-15.5826,1.3913,5.3565
1085,-0.0766,-9.1202,0.0383,-18.4348,1.2522,7.2348
1090,0.1533,-9.6567,0.4598,-21.4957,0.6261,8.2783
1095,0.115,-10.1166,0.843,-23.3739,0.1391,9.2522
1100,0.1533,-10.3848,1.1113,-23.0957,0.0,10.1565
1105,0.2682,-10.4614,1.3795,-20.7304,0.2783,10.7826
1110,0.1916,-10.4614,1.8394,-18.2261,0.6261,10.9913
1115,0.3066,-10.5764,1.7244,-16.2783,0.7652,11.3391
1120,0.2299,-10.6147,1.8777,-15.2348,0.8348,11.4783
1125,0.0383,-10.6147,1.916,-15.7217,0.7652,10.9913
1130,0.0,-10.768,1.8011,-17.0435,0.3478,10.4348
1135,0.0,-10.8446,1.8011,-17.5304,-0.2783,9.7391
1140,-0.0766,-10.8446,1.7627,-17.3913,-0.6261,8.6261
1145,-0.2299,-10.768,1.6095,-15.9304,-0.4174,7.4435
1150,-0.3832,-10.6914,1.6095,-15.2348,0.3478,5.5652
1155,-0.4215,-10.653,1.6861,-14.6783,0.9043,3.6174
1160,-0.4598,-10.768,1.8011,-13.8435,0.7652,1.3217
1165,-0.2682,-10.7297,2.031,-12.0348,0.1391,-1.1826
1170,-0.115,-10.5381,1.916,-8.6261,-0.1391,-3.2
1175,-0.115,-10.4998,2.1076,-4.7304,0.9739,-4.6609
1180,0.0,-10.3082,1.8777,-1.0435,2.0174,-6.3304
1185,-0.3066,-10.0782,2.1843,1.113,2.0174,-8.6957
1190,0.3832,-9.8483,1.8011,2.2261,1.6,-10.9913
1195,0.5365,-9.81,1.6861,2.6435,1.4609,-13.287
1200,0.8047,-9.7717,1.6861,2.6435,1.6,-15.3043
1205,0.8047,-9.7717,1.7244,2.7826,1.9478,-17.0435
1210,0.7664,-9.7334,1.6095,3.2,2.1565,-18.1565
1215,0.6898,-9.5034,1.6095,3.6174,1.9478,-18.9217
1220,0.7664,-9.4651,1.5711,4.1043,1.4609,-19.5478
1225,1.073,-9.2735,1.5711,4.7304,1.3217,-20.0348
1230,1.073,-9.1586,1.5328,5.1478,1.3217,-20.313
1235,1.073,-9.1202,1.4945,5.2174,1.3217,-20.1043
1240,0.843,-9.1202,1.3412,4.5217,1.3217,-19.3391
1245,0.8047,-9.0819,1.0346,2.9217,0.3478,-17.8087
1250,0.6514,-8.9286,1.0346,0.487,-0.5565,-16.487
1255,0.3832,-9.0436,0.9963,-2.0174,-1.8087,-14.6783
1260,0.1916,-9.0819,1.0346,-4.3826,-3.3391,-12.6609
1265,0.0,-9.2352,0.8047,-6.4696,-4.8,-10.713
1270,-0.0383,-9.1969,0.7664,-8.4174,-6.1913,-8.487
1275,-0.1533,-9.3502,1.0346,-10.087,-7.2348,-6.0522
1280,-0.115,-9.4268,0.958,-10.9217,-8.2783,-3.7565
1285,-0.1916,-9.5034,1.073,-11.687,-9.0435,-1.3913
1290,-0.2682,-9.3502,1.1496,-11.8957,-9.8087,1.0435
1295,-0.4215,-9.4651,1.1496,-11.8261,-10.5739,3.3391
1300,-0.4598,-9.6184,1.073,-11.7565,-11.687,5.5652
1305,-0.3449,-9.5418,0.958,-12.313,-12.9391,7.6522
1310,-0.4215,-9.6184,1.1113,-12.9391,-14.1217,9.6
1315,-0.5748,-9.6567,0.9197,-13.287,-15.2348,10.9913
1320,-0.4982,-9.7717,0.8814,-13.2174,-16.6957,12.1739
1325,-0.7664,-9.81,0.958,-13.4261,-17.4609,13.0087
1330,-0.7664,-9.9633,1.0346,-13.913,-18.0174,13.7043
1335,-0.8047,-9.8483,1.1113,-14.0522,-18.2261,14.6087
1340,-0.7664,-10.0399,1.4179,-12.7304,-17.9478,15.1652
1345,-0.9197,-10.0782,1.4945,-10.2957,-17.7391,15.513
1350,-0.8814,-10.0399,1.3795,-7.7217,-17.4609,16.1391
1355,-0.958,-9.925,1.2646,-5.4957,-17.1826,16.5565
1360,-1.1496,-9.8866,0.9197,-3.5478,-16.6261,17.0435
1365,-1.2263,-9.7717,0.843,-1.8087,-16.2087,17.6
1370,-1.073,-9.8483,0.843,-0.487,-16.0,18.2957
1375,-0.4215,-10.0399,0.8814,0.5565,-16.1391,18.5739
1380,0.2299,-10.0782,0.958,2.087,-15.7913,18.3652
1385,0.4982,-10.2698,0.8047,4.0348,-14.4,17.7391
1390,0.5365,-10.5381,0.8814,5.1478,-12.9391,16.9043
1395,0.6898,-10.5381,0.6131,6.3304,-11.8957,15.9304
1400,0.958,-10.7297,-0.115,6.8174,-10.9913,14.8174
1405,0.843,-10.6147,0.0766,5.5652,-10.2957,13.4957
1410,0.8047,-10.8063,-0.2682,3.3391,-9.8087,11.7565
1415,0.9963,-11.1129,-0.3066,0.6261,-9.113,9.8783
1420,1.073,-11.3428,-0.0383,-2.2261,-7.7913,7.5826
1425,1.1113,-11.4578,0.0766,-4.4522,-5.9826,4.9391
1430,0.7664,-11.4961,0.3449,-4.8696,-3.687,2.0174
1435,0.3832,-11.3428,0.1916,-3.5478,-1.8783,-0.6261
1440,0.3066,-11.2279,-0.1533,-1.9478,-1.2522,-3.1304
1445,0.4215,-10.9596,-0.1533,-0.3478,-1.0435,-4.9391
1450,0.5748,-10.7297,-0.115,2.0174,0.2087,-6.1217
1455,0.5748,-10.2698,0.115,4.5913,2.713,-7.2348
1460,0.8047,-9.8866,0.1916,6.9565,5.7739,-8.3478
1465,0.9197,-9.4651,0.2299,8.6261,8.6261,-9.1826
1470,0.958,-9.0819,0.1916,8.9739,11.1304,-9.5304
1475,0.843,-8.7754,0.1533,8.2783,13.4957,-9.3217
1480,0.6131,-8.737,0.1533,6.2609,15.1652,-8.9043
1485,0.5748,-8.6987,0.115,4.313,16.0696,-8.0
1490,0.5365,-8.6604,0.3832,2.7826,16.7652,-6.887
1495,0.6131,-8.8137,0.3449,2.087,17.6,-5.287
1500,0.6514,-8.8137,0.3449,2.1565,18.4348,-3.4087
1505,0.4598,-8.852,0.4598,2.5739,19.6174,-1.5304
1510,0.4598,-8.852,0.1916,2.9217,20.4522,0.2783
1515,0.2682,-9.1202,0.4982,2.5043,20.5913,1.9478
1520,0.115,-9.1969,0.5748,1.0435,20.1043,3.3391
1525,0.115,-9.5034,0.8814,-1.0435,19.4087,4.2435
1530,0.0,-9.7334,1.1113,-2.6435,18.3652,4.5913
1535,-0.0383,-10.0399,1.2263,-3.2,17.3913,4.5913
1540,-0.1533,-10.0782,1.4945,-2.8522,16.6957,4.313
1545,-0.1916,-10.2315,1.3029,-1.7391,16.6261,3.8957
1550,-0.3449,-10.3082,1.3795,-0.8348,16.6261,2.9913
1555,-0.5365,-10.1932,1.1113,-0.1391,16.8348,1.9478
1560,-0.8047,-10.0782,1.1113,0.5565,16.6957,0.7652
1565,-1.0346,-10.0016,1.1496,1.1826,16.3478,-0.2087
1570,-1.073,-9.8483,0.9197,1.6696,15.6522,-0.8348
1575,-0.958,-9.7334,0.9197,1.9478,14.5391,-1.3913
1580,-0.958,-9.8483,0.8814,1.6696,13.287,-1.8783
1585,-0.7664,-9.81,1.073,1.0435,12.4522,-2.1565
1590,-0.6898,-9.9633,1.073,0.487,11.8957,-2.2957
1595,-0.6131,-9.81,1.1113,0.487,11.4783,-2.2957
1600,-0.6898,-9.6567,1.1879,1.1826,11.3391,-2.2957
1605,-0.4982,-9.6184,1.1496,1.8783,11.2696,-2.3652
1610,-0.3449,-9.6184,1.1879,1.8783,11.4783,-2.3652
1615,-0.2682,-9.5801,1.1496,1.5304,11.4087,-2.5043
1620,-0.1916,-9.5034,0.6514,1.2522,11.2696,-2.5739
1625,-0.0383,-9.5418,0.7664,1.4609,11.1304,-2.9217
1630,-0.0383,-9.5801,0.6131,1.5304,11.1304,-3.2
1635,-0.1533,-9.5801,0.4598,1.2522,10.9217,-3.6174
1640,-0.115,-9.6184,0.5748,0.3478,10.713,-3.9652
1645,-0.1916,-9.5418,0.5365,-1.1826,10.087,-4.2435
1650,0.0,-9.6184,0.4982,-2.4348,8.7652,-3.8261
1655,0.0766,-9.8866,0.5748,-2.9913,7.7913,-3.4783
1660,0.0383,-9.81,0.4982,-3.2,6.8174,-3.0609
1665,0.0766,-9.5034,0.3832,-3.2,6.2609,-3.2
1670,0.2299,-9.6184,0.2682,-4.5913,6.2609,-3.4087
1675,0.0383,-9.6567,0.4598,-5.913,6.9565,-3.4783
1680,0.0,-9.7717,0.2682,-7.0261,7.3043,-2.8522
1685,0.0,-9.7334,0.3066,-8.5565,7.513,-2.7826
1690,0.0,-9.8483,0.0766,-9.3217,7.4435,-2.1565
1695,-0.0383,-9.8866,0.1533,-9.4609,7.6522,-2.0174
1700,0.0,-10.0016,0.0,-8.8348,7.7913,-1.6
1705,0.0,-9.695,0.115,-7.9304,8.487,-1.1826
1710,0.0383,-9.7334,0.1916,-7.7217,8.9739,-0.5565
1715,0.115,-9.81,0.2299,-7.7913,8.9043,-0.3478
1720,-0.2299,-9.7334,0.1916,-8.6957,8.8348,-0.2783
1725,-0.0383,-9.81,0.115,-9.0435,8.9739,0.2783
1730,-0.2682,-9.8483,0.3449,-9.8783,8.7652,0.0696
1735,-0.115,-9.695,0.3449,-10.4348,8.2087,0.2783
1740,-0.115,-9.925,0.4215,-10.9217,8.0696,0.0
1745,-0.115,-10.1549,0.6131,-10.2261,7.3739,0.2087
1750,-0.2682,-10.1549,0.6131,-8.6261,7.3739,0.3478
1755,-0.2682,-9.9633,0.4982,-7.0957,7.1652,0.487
1760,-0.3066,-9.7334,0.6131,-6.2609,6.7478,0.6957
1765,-0.4598,-9.5801,0.3832,-6.4696,6.4696,0.7652
1770,-0.4598,-9.5418,0.5748,-7.7913,6.1913,0.9739
1775,-0.6514,-9.5034,0.3832,-9.6,6.1217,1.3217
1780,-0.6898,-9.5034,0.2682,-11.0609,5.7043,1.2522
1785,-0.6514,-9.5418,0.3449,-12.8696,5.287,1.6
1790,-0.958,-9.7717,0.3449,-13.5652,4.6609,1.6
1795,-1.073,-9.9633,0.4598,-13.4957,3.9652,1.7391
1800,-1.3795,-9.7334,0.4598,-12.9391,2.9913,2.1565
1805,-1.4562,-10.0399,0.3449,-13.0087,1.3913,2.5739
1810,-1.5328,-10.1932,0.3066,-12.5217,0.4174,2.9913
1815,-1.5328,-10.1166,0.3832,-11.4783,-0.7652,3.4783
1820,-1.5711,-10.1549,0.1533,-10.2957,-2.2957,3.8957
1825,-1.4562,-10.0016,0.2682,-9.6696,-3.2696,4.3826
1830,-1.3795,-9.8866,0.4215,-9.5304,-4.1739,4.9391
1835,-1.1496,-9.9633,0.4215,-9.9478,-4.6609,5.4957
1840,-0.843,-9.9633,0.1916,-10.5739,-5.1478,5.7739
1845,-0.9197,-9.81,0.3066,-10.9217,-5.6348,6.1913
1850,-0.7664,-9.7334,0.2299,-11.3391,-6.1217,6.6087
1855,-0.5748,-9.5801,0.2299,-11.9652,-6.6783,6.9565
1860,-0.1916,-9.5801,0.1916,-12.9391,-7.2348,7.3043
1865,-0.115,-9.5801,0.115,-13.6348,-7.1652,7.7913
1870,0.0,-9.7717,0.2682,-13.8435,-6.887,7.8609
1875,0.0383,-9.6567,0.1916,-13.6348,-7.1652,7.9304
1880,0.1533,-9.7334,0.2682,-13.2174,-7.5826,7.8609
1885,0.115,-9.695,0.0766,-12.5217,-6.7478,7.8609
1890,-0.115,-9.695,0.0383,-11.4087,-5.4261,8.0
1895,0.0,-9.6184,0.115,-10.6435,-5.1478,7.7913
1900,0.0,-9.6567,0.1533,-10.4348,-5.5652,7.2348
1905,0.0383,-9.695,0.115,-10.2261,-5.4261,6.887
1910,-0.0766,-9.6184,0.2682,-10.0174,-5.0783,6.4
1915,-0.1533,-9.8483,0.1916,-9.9478,-4.6609,5.7739
1920,-0.3066,-9.8866,0.5365,-10.1565,-4.5913,5.3565
1925,-0.3066,-9.81,0.3066,-10.0174,-4.5913,4.5217
1930,-0.1916,-9.925,0.3066,-9.7391,-4.4522,3.8957
1935,-0.1533,-9.9633,0.3449,-8.9739,-3.7565,3.5478
1940,-0.2299,-10.0399,0.3449,-8.0696,-2.713,3.2
1945,-0.2682,-10.0016,0.3449,-6.887,-1.7391,2.7826
1950,-0.3449,-10.0399,0.3066,-5.913,-1.0435,2.3652
1955,-0.3449,-9.9633,0.0766,-5.2174,-0.487,2.0174
1960,-0.5365,-9.8866,0.3832,-4.4522,0.2087,1.8087
1965,-0.3832,-9.925,0.1916,-3.6174,0.5565,1.7391
1970,-0.4215,-9.925,0.2682,-2.7826,0.6957,1.6696
1975,-0.3066,-9.925,0.2299,-1.8087,0.7652,1.3217
1980,-0.4215,-9.925,0.115,-0.8348,1.2522,1.2522
1985,-0.6131,-9.7717,0.1533,0.487,2.087,1.1826
1990,-0.8814,-9.8866,0.2299,2.1565,2.7826,1.3217
1995,-0.9963,-9.7717,0.2682,3.8261,2.5739,1.2522
2000,-1.073,-9.7334,0.3066,5.1478,1.9478,1.113
2005,-1.2646,-9.5801,0.3832,6.0522,1.113,1.0435
2010,-1.3029,-9.6184,0.3066,6.887,0.0696,0.8348
2015,-1.3412,-9.5418,0.1916,7.3043,-1.6,0.5565
2020,-1.3412,-9.5418,0.1533,7.7217,-3.4087,0.4174
2025,-1.4945,-9.5034,-0.0766,8.4174,-5.0783,0.2087
2030,-1.6478,-9.4651,-0.1533,9.113,-6.4696,0.0696
2035,-1.8394,-9.3502,0.0383,9.4609,-8.2087,0.0696
2040,-1.8394,-9.3885,0.115,9.3913,-10.9913,-0.1391
2045,-1.5711,-9.2735,0.115,8.8348,-14.6087,-0.2087
2050,-1.8011,-9.3118,-0.2682,7.7217,-17.4609,-0.3478
2055,-1.6861,-9.2735,0.0383,6.3304,-19.687,-0.4174
2060,-1.8777,-9.3502,0.3066,4.9391,-21.3565,-0.4174
2065,-1.9927,-9.2735,0.4982,4.0348,-22.8174,-0.2783
2070,-1.8777,-9.2735,0.6131,3.4783,-24.5565,-0.1391
2075,-1.916,-9.2735,0.6131,3.0609,-26.1565,-0.1391
2080,-1.8394,-9.4268,0.5748,2.1565,-27.2,0.2087
2085,-1.7244,-9.4268,0.5365,0.7652,-28.1739,0.4174
2090,-1.6095,-9.4651,0.6131,-1.1826,-29.4957,0.9739
2095,-1.2263,-9.5801,0.4982,-3.3391,-31.0261,1.4609
2100,-1.0346,-9.5034,0.5365,-5.2174,-32.2087,1.6696
2105,-0.5748,-9.5418,0.5365,-6.1913,-32.8348,1.6696
2110,-0.4598,-9.5418,0.3449,-6.1913,-32.9739,1.3217
2115,-0.6514,-9.5034,0.115,-5.6348,-32.0696,0.9043
2120,-0.8047,-9.4268,0.0383,-5.7739,-30.5391,0.8348
2125,-0.7664,-9.4268,0.1533,-6.7478,-29.287,1.113
2130,-0.7281,-9.3502,0.1916,-8.487,-28.4522,1.6
2135,-0.4598,-9.5418,0.2299,-10.0174,-27.6174,2.4348
2140,-0.3066,-9.7334,0.3449,-10.9217,-26.6435,3.2696
2145,-0.0383,-9.8866,0.2682,-10.9913,-25.4609,4.4522
2150,0.0,-10.0782,0.3832,-10.5043,-23.7913,5.6348
2155,0.1916,-10.1932,0.4598,-9.4609,-21.8435,6.5391
2160,0.5365,-10.0016,0.1533,-8.3478,-19.8957,6.9565
2165,0.4598,-10.4231,0.5365,-7.4435,-17.2522,7.1652
2170,0.5365,-10.4231,0.9197,-6.8174,-13.6348,6.9565
2175,0.5365,-10.4231,0.8814,-6.6783,-10.2261,6.9565
2180,0.5748,-10.653,0.958,-7.0261,-7.513,6.7478
2185,0.6131,-10.653,0.843,-7.2348,-5.0783,6.7478
2190,0.4982,-10.7297,0.8047,-6.887,-1.8783,6.9565
2195,0.4215,-10.6914,0.8814,-6.1913,1.6696,7.0957
2200,0.3066,-10.8063,0.958,-5.0087,5.0783,7.0957
2205,0.2299,-10.768,0.9963,-3.4783,8.1391,6.8174
2210,0.1533,-10.7297,0.9963,-2.087,10.9913,6.4
2215,0.1533,-10.6147,1.1879,-0.6957,13.7739,5.7043
2220,0.0766,-10.5764,1.1496,0.9739,16.6957,4.9391
2225,0.0,-10.3465,1.1113,2.4348,19.6174,4.1739
2230,-0.115,-10.3848,1.1496,3.4087,22.4696,3.3391
2235,-0.2682,-10.2315,1.0346,3.9652,24.9043,2.713
2240,-0.5748,-10.1549,1.2646,4.313,27.2696,2.087
2245,-0.6898,-10.0016,1.1879,4.8696,29.3565,1.6
2250,-0.9963,-9.8866,1.1496,5.913,31.1652,1.2522
2255,-1.073,-9.695,1.1496,6.887,32.4174,0.9739
2260,-1.1879,-9.6184,1.1879,7.4435,33.7391,0.6957
2265,-1.1879,-9.7334,1.4945,7.513,35.1304,0.5565
2270,-1.3412,-9.5418,1.3795,7.3739,36.0348,0.5565
2275,-1.3412,-9.5418,1.2646,7.1652,36.6609,0.5565
2280,-1.3795,-9.4651,1.1879,7.1652,37.0783,0.5565
2285,-1.4562,-9.5418,1.1496,7.3739,37.287,0.487
2290,-1.5328,-9.4651,1.1879,7.5826,37.6348,0.2783
2295,-1.5711,-9.5034,1.2263,7.7913,37.7043,0.2087
2300,-1.6861,-9.3885,1.3412,8.2783,37.287,-0.0696
2305,-1.6861,-9.4651,1.1113,8.6957,36.5217,-0.2783
2310,-1.6478,-9.2735,1.073,9.113,35.8261,-0.6261
2315,-1.7244,-9.4268,1.0346,9.0435,35.1304,-0.9739
2320,-1.8777,-9.2352,0.9963,8.8348,34.5043,-1.3913
2325,-1.916,-9.1969,0.9197,8.2087,33.9478,-1.6696
2330,-1.9543,-9.0819,0.7281,7.513,33.2522,-1.7391
2335,-2.1076,-9.2352,0.5365,6.5391,32.2087,-2.0174
2340,-2.1076,-9.0819,0.6131,5.5652,30.9565,-2.2957
2345,-2.1076,-9.0819,0.4598,4.7304,29.4957,-2.713
2350,-2.1076,-9.1969,0.3449,3.7565,27.8261,-3.0609
2355,-1.9927,-9.1586,0.3066,2.5739,26.1565,-3.4087
2360,-1.8394,-9.4651,0.2682,1.113,24.487,-3.8261
2365,-1.916,-9.3885,0.0766,-0.5565,22.7478,-3.9652
2370,-1.8011,-9.6184,0.115,-2.4348,21.2174,-4.0348
2375,-1.9927,-9.5418,0.1916,-4.5217,19.5478,-4.1043
2380,-1.8777,-9.7717,0.115,-6.4696,17.8087,-3.9652
2385,-1.8394,-9.81,0.1533,-7.513,16.2783,-3.687
2390,-1.7244,-10.0399,0.0383,-7.6522,14.9565,-3.2
2395,-1.5711,-10.1166,0.115,-7.0957,13.913,-2.713
2400,-1.6095,-10.1932,0.0383,-6.6783,13.1478,-2.2261
2405,-1.6861,-10.2698,0.0766,-6.4,12.5217,-1.6696
2410,-1.6861,-10.1932,-0.1533,-6.6087,11.8957,-0.9739
2415,-1.4945,-10.2315,-0.0383,-7.513,10.7826,-0.1391
2420,-1.5328,-10.3465,-0.3066,-8.6261,8.9739,0.7652
2425,-1.3795,-10.2698,-0.0766,-9.3217,7.0957,1.5304
2430,-1.1879,-10.2315,-0.2299,-9.0435,5.7043,2.087
2435,-1.2263,-10.1932,0.0766,-8.2087,4.8696,2.6435
2440,-1.1879,-9.9633,-0.0766,-7.4435,3.9652,3.2696
2445,-1.1496,-9.8866,-0.0383,-7.1652,2.7826,4.1043
2450,-1.0346,-9.8866,0.4598,-7.1652,1.4609,5.2174
2455,-1.1496,-9.695,0.4215,-6.8174,0.0,6.0522
2460,-1.073,-9.695,0.4982,-5.6348,-1.7391,6.4696
2465,-1.1113,-9.5801,0.6514,-4.313,-3.2,6.4
2470,-1.1496,-9.5801,0.4982,-2.9913,-4.1043,6.0522
2475,-1.3795,-9.6567,0.5748,-2.087,-4.9391,5.7043
2480,-1.4562,-9.5801,0.4215,-1.3913,-5.6348,5.287
2485,-1.3412,-9.5801,0.4215,-1.0435,-5.913,4.8
2490,-1.3412,-9.5418,0.4215,-0.9043,-6.4,4.1043
2495,-1.3029,-9.5801,0.3066,-1.113,-6.6783,3.1304
2500,-1.3412,-9.6567,0.3832,-1.6696,-7.2348,2.0174
2505,-1.4562,-9.7334,0.2299,-2.5043,-8.0,1.2522
2510,-1.4562,-9.6567,0.4215,-2.9913,-8.4174,0.487
2515,-1.4179,-9.7717,0.4982,-2.9913,-8.5565,0.0696
2520,-1.3412,-9.81,0.4215,-2.713,-9.113,0.0
2525,-1.2646,-9.7717,0.5365,-1.9478,-9.4609,-0.0696
2530,-1.2263,-9.695,0.5748,-0.6957,-9.5304,0.0696
2535,-1.073,-9.7334,0.5748,0.2087,-9.5304,0.1391
2540,-1.1496,-9.7717,0.5365,0.6957,-9.8087,0.2087
2545,-1.1496,-9.6567,0.7281,0.6261,-10.1565,0.3478
2550,-0.9963,-9.6184,0.4982,0.2087,-10.713,0.3478
2555,-1.0346,-9.6567,0.5365,-0.2783,-10.9913,0.1391
2560,-0.8814,-9.7334,0.4598,-0.9739,-11.2696,-0.1391
2565,-0.8814,-9.81,0.3449,-1.8783,-11.6174,-0.6261
2570,-0.8047,-9.81,0.2682,-2.4348,-11.8957,-0.9739
2575,-0.7281,-9.8483,0.1916,-2.4348,-12.1043,-1.2522
2580,-0.6898,-9.7717,0.1533,-2.2957,-11.8957,-1.3217
2585,-0.6898,-9.7717,0.1533,-2.2957,-11.4783,-1.2522
2590,-0.8814,-9.81,0.5365,-2.1565,-10.9913,-1.2522
2595,-0.6131,-9.6567,0.4215,-2.2261,-10.5739,-1.2522
2600,-0.5748,-9.6567,0.2299,-2.5043,-10.3652,-1.1826
2605,-0.6898,-9.7334,0.3832,-2.7826,-10.2261,-1.3217
2610,-0.6131,-9.81,0.0766,-3.2696,-10.0174,-1.4609
2615,-0.6514,-9.7717,0.0766,-3.5478,-10.087,-1.7391
2620,-0.5748,-9.8866,0.1916,-3.687,-9.8087,-1.9478
2625,-0.5748,-9.8483,0.2682,-3.5478,-9.3217,-2.1565
2630,-0.5748,-9.8866,0.2682,-3.3391,-8.5565,-2.4348
2635,-0.5365,-10.0016,0.3449,-2.9913,-8.0696,-2.4348
2640,-0.5748,-10.0016,0.115,-2.9217,-7.8609,-2.2957
2645,-0.6514,-9.9633,0.3066,-2.8522,-7.7217,-2.0174
2650,-0.6131,-10.0782,0.4982,-2.5043,-7.1652,-1.8087
2655,-0.7281,-10.0016,0.4598,-1.8087,-6.4696,-1.4609
2660,-0.6131,-9.9633,0.5365,-0.9739,-5.7043,-1.0435
2665,-0.7664,-9.81,0.4598,-0.3478,-4.9391,-0.5565
2670,-0.8047,-9.81,0.4215,-0.2087,-4.3826,-0.0696
2675,-0.7664,-9.7717,0.5365,-0.7652,-4.1739,0.3478
2680,-0.9197,-9.7334,0.4982,-1.4609,-4.1043,0.9043
2685,-0.958,-9.6184,0.4598,-2.1565,-4.2435,1.4609
2690,-0.9963,-9.6567,0.3066,-2.5739,-4.313,1.6696
2695,-1.1496,-9.5418,0.4215,-2.7826,-4.5217,2.0174
2700,-1.1496,-9.6184,0.5365,-2.7826,-4.7304,2.2261
2705,-1.2263,-9.5418,0.3066,-2.7826,-5.0783,2.4348
2710,-1.2263,-9.6184,0.4215,-2.7826,-5.2174,2.5043
2715,-1.2646,-9.5418,0.3066,-2.7826,-5.287,2.4348
2720,-1.1879,-9.5418,0.4215,-3.0609,-5.3565,2.3652
2725,-1.1496,-9.5801,0.4982,-3.5478,-5.4261,2.1565
2730,-1.1496,-9.6567,0.3066,-3.9652,-5.6348,2.087
2735,-1.0346,-9.5418,0.4215,-4.4522,-5.7043,1.7391
2740,-0.9963,-9.6567,0.4982,-4.9391,-5.8435,1.3913
2745,-0.9963,-9.695,0.3832,-5.7043,-6.1913,1.1826
2750,-0.7281,-9.695,0.3449,-6.1217,-6.4,0.9739
2755,-0.7664,-9.81,0.3449,-6.7478,-6.7478,0.8348
2760,-0.843,-9.6567,0.2299,-7.0957,-7.1652,0.6261
2765,-0.7664,-9.7717,0.1916,-7.0261,-7.4435,0.3478
2770,-0.8047,-9.695,0.0,-6.7478,-7.7217,0.0696
2775,-0.7281,-9.8483,0.2299,-6.1217,-7.8609,-0.0696
2780,-0.7664,-9.81,0.115,-5.4957,-7.9304,-0.1391
2785,-0.6514,-9.925,0.115,-5.1478,-8.0,-0.0696
2790,-0.6514,-9.8483,0.4215,-4.9391,-8.0,-0.1391
2795,-0.7281,-10.0016,0.3832,-4.6609,-8.0,0.0696
2800,-0.7281,-9.9633,0.2682,-4.313,-7.9304,0.2783
2805,-0.6898,-9.8483,0.3832,-4.2435,-7.8609,0.3478
2810,-0.6131,-9.925,0.2682,-4.313,-7.6522,0.6261
2815,-0.6514,-9.9633,0.2682,-4.5217,-7.3739,0.7652
2820,-0.6514,-9.8866,0.2299,-4.8696,-7.0957,0.8348
2825,-0.5365,-9.8866,0.115,-5.0087,-6.887,0.8348
2830,-0.5365,-9.7717,0.1916,-4.8,-6.7478,0.8348
2835,-0.4982,-9.8866,0.1916,-4.2435,-6.2609,0.7652
2840,-0.5748,-9.7717,0.2682,-3.6174,-5.5652,0.7652
2845,-0.6131,-9.8483,0.3832,-3.0609,-5.1478,0.487
2850,-0.7281,-9.81,0.3449,-2.5043,-4.8,0.487
2855,-0.6131,-9.81,0.4215,-2.087,-4.3826,0.3478
2860,-0.4598,-9.7717,0.2299,-1.8087,-3.8261,0.2783
2865,-0.5748,-9.81,0.2299,-1.6,-3.4087,0.3478
2870,-0.4982,-9.8483,0.3066,-1.8087,-2.9217,0.2087
2875,-0.5365,-9.7717,0.3832,-1.8783,-2.4348,0.0
2880,-0.6514,-9.81,0.3066,-2.0174,-1.8087,-0.1391
2885,-0.3449,-9.9633,0.3066,-2.087,-1.3217,-0.487
2890,-0.4215,-9.7717,0.2682,-2.0174,-0.7652,-0.6957
2895,-0.3449,-9.925,0.3066,-2.087,-0.0696,-0.9043
2900,-0.3832,-9.81,0.3066,-1.8783,0.9043,-1.113
2905,-0.4215,-9.695,0.2682,-1.6696,1.6,-1.3217
2910,-0.3832,-9.81,0.3066,-1.5304,2.0174,-1.5304
2915,-0.0766,-9.7334,-0.0383,-1.5304,2.7826,-1.4609
2920,-0.3832,-9.8483,0.4598,-1.6,3.687,-1.4609
2925,-0.4215,-9.6567,0.4215,-1.7391,4.313,-1.4609
2930,-0.3449,-9.7717,0.4598,-1.8087,4.8696,-1.3913
2935,-0.4215,-9.7334,0.3832,-1.8087,5.4261,-1.2522
2940,-0.4215,-9.8483,0.3832,-1.9478,5.8435,-1.2522
2945,-0.3066,-9.8866,0.3066,-2.0174,6.3304,-1.3217
2950,-0.3066,-9.7717,0.3449,-2.1565,6.887,-1.3217
2955,-0.4982,-9.7334,0.3832,-2.2261,7.2348,-1.113
2960,-0.4598,-9.8483,0.4598,-2.1565,7.4435,-1.0435
2965,-0.4982,-9.5418,0.4982,-1.9478,7.7913,-0.8348
2970,-0.3066,-9.8483,0.3449,-1.7391,8.0696,-0.9043
2975,-0.4215,-9.7717,0.3449,-1.6696,8.4174,-0.7652
2980,-0.6131,-9.7334,0.4982,-1.8783,8.7652,-0.6957
2985,-0.5748,-9.695,0.3832,-2.0174,8.9043,-0.5565
2990,-0.6131,-9.81,0.4215,-2.087,8.9739,-0.487
2995,-0.4982,-9.8483,0.3449,-2.2261,9.113,-0.5565
