timestamp,accX,accY,accZ,gyroX,gyroY,gyroZ
0,-1.1113,3.2955,-9.0053,8.3478,7.7217,-4.5913
5,-1.0346,3.2955,-9.0053,8.3478,8.1391,-4.8
10,-1.0346,3.2955,-8.7754,8.1391,8.2783,-4.8
15,-1.1496,3.3722,-8.852,7.9304,8.6261,-4.5913
20,-1.073,3.2189,-8.967,7.6522,8.5565,-4.4522
25,-1.1113,3.2955,-8.7754,7.3043,8.4174,-4.313
30,-1.1879,3.3339,-8.852,7.0957,7.9304,-4.1043
35,-1.1879,3.2955,-9.0053,6.887,7.4435,-3.7565
40,-1.1113,3.2955,-8.852,6.6087,6.887,-3.4783
45,-1.073,3.3339,-8.852,6.1913,6.4696,-3.0609
50,-1.1113,3.3339,-9.1202,5.8435,5.9826,-2.7826
55,-1.1879,3.1806,-9.2735,5.3565,5.5652,-2.2957
60,-1.073,3.1423,-9.0053,4.8696,5.1478,-2.1565
65,-1.1879,3.1806,-8.8903,4.3826,4.8,-1.8783
70,-1.1879,3.1806,-8.852,3.8957,4.4522,-1.5304
75,-1.1113,3.1423,-9.0819,3.5478,4.1043,-1.3913
80,-1.2263,3.2189,-8.9286,3.2,3.9652,-1.1826
85,-1.1496,3.0273,-8.967,3.0609,3.687,-1.1826
90,-1.1879,3.1806,-8.9286,2.8522,3.4087,-1.1826
95,-1.1879,3.2189,-8.8137,2.9217,3.2696,-1.3217
100,-1.2646,3.3339,-9.1586,2.9217,2.9217,-1.2522
105,-0.9963,3.1806,-8.8137,2.7826,2.6435,-1.2522
110,-1.2263,3.2189,-9.0819,2.6435,2.4348,-1.3913
115,-1.2263,3.2572,-9.0053,2.2261,2.087,-1.3217
120,-1.1496,3.1806,-9.0436,1.8783,1.8087,-1.3217
125,-1.2263,3.2572,-9.0819,1.6,1.6,-1.3217
130,-1.1113,3.1423,-9.0053,1.1826,1.4609,-1.3217
135,-1.3412,3.1806,-9.0053,1.113,1.2522,-1.2522
140,-1.1496,3.1039,-9.0053,0.9043,1.0435,-1.113
145,-1.1879,3.2572,-9.0819,0.487,1.113,-0.9739
150,-1.2646,3.3339,-8.852,0.0696,1.1826,-0.8348
155,-1.1113,3.2189,-8.9286,-0.3478,1.3217,-0.8348
160,-1.073,3.2572,-9.1202,-0.8348,1.5304,-0.7652
165,-0.9197,3.1806,-8.4305,-1.2522,1.6696,-0.9043
170,-0.9963,3.2955,-8.7754,-1.5304,1.8087,-0.7652
175,-0.9963,3.2955,-8.852,-1.6,2.087,-0.7652
180,-0.9963,3.3722,-8.852,-1.6696,2.4348,-0.8348
185,-1.073,3.3722,-8.737,-1.7391,2.7826,-0.7652
190,-0.958,3.3339,-8.737,-1.6,3.1304,-0.6261
195,-0.9963,3.1806,-8.8137,-1.6696,3.4783,-0.6261
200,-0.9963,3.2572,-8.8903,-1.6,3.8261,-0.6261
205,-1.0346,3.3339,-8.6604,-1.6,4.1043,-0.6957
210,-1.0346,3.2572,-8.737,-1.5304,4.313,-0.7652
215,-1.1496,3.1806,-8.6987,-1.3913,4.6609,-0.8348
220,-1.0346,3.1423,-8.5454,-1.1826,4.6609,-0.9043
225,-1.0346,3.0273,-8.852,-0.7652,4.8,-0.9043
230,-1.073,3.0273,-8.852,-0.2087,4.8,-0.8348
235,-1.1496,3.0656,-8.737,0.3478,5.0087,-0.7652
240,-1.1496,3.1423,-8.7754,0.9739,4.7304,-0.6957
245,-1.1113,3.1423,-8.8903,1.7391,4.5217,-0.6957
250,-1.1496,3.2572,-8.8137,2.2261,4.0348,-0.6261
255,-1.2263,3.2572,-8.8137,2.9217,3.6174,-0.7652
260,-1.3029,3.1806,-8.9286,3.3391,2.9217,-0.6957
265,-1.2263,3.1423,-8.967,3.6174,2.4348,-0.6261
270,-1.3795,3.2189,-9.1586,3.7565,1.9478,-0.487
275,-1.3029,3.2955,-9.0053,3.687,1.6,-0.4174
280,-1.1879,3.3339,-9.0819,3.4783,1.3217,-0.2087
285,-1.3029,3.4105,-9.0053,3.1304,1.113,0.0696
290,-1.1879,3.2955,-8.9286,2.6435,1.0435,0.2783
295,-1.1113,3.4488,-8.967,2.2957,0.9043,0.3478
300,-1.073,3.3339,-8.967,1.6696,0.9739,0.3478
305,-1.073,3.3722,-9.0053,1.3217,1.0435,0.4174
310,-0.9963,3.2189,-8.9286,1.113,1.2522,0.2087
315,-0.958,3.3339,-8.8137,1.113,1.6696,0.0696
320,-0.9197,3.4105,-9.0819,1.113,2.0174,-0.1391
325,-0.9963,3.2572,-8.6987,1.2522,2.2957,-0.3478
330,-0.843,3.2189,-8.6987,1.3217,2.5043,-0.487
335,-0.8047,3.2955,-8.967,1.3217,2.5739,-0.6957
340,-0.843,3.2955,-8.8903,1.3217,2.6435,-0.7652
345,-0.8047,3.2955,-8.7754,1.5304,2.5739,-1.0435
350,-0.843,3.4105,-8.852,1.8783,2.1565,-1.1826
355,-0.8047,3.1423,-8.967,2.2957,1.9478,-1.2522
360,-0.8047,3.2189,-8.7754,2.5739,1.7391,-1.1826
365,-1.0346,3.2955,-8.967,2.7826,1.4609,-1.113
370,-0.9197,3.3722,-8.6604,2.8522,1.1826,-1.0435
375,-0.9963,3.3722,-8.7754,2.9217,1.0435,-0.9739
380,-1.2263,3.3722,-8.852,2.8522,1.0435,-0.487
385,-0.958,3.3722,-9.0053,2.713,1.113,-0.2087
390,-0.958,3.3722,-8.852,2.6435,1.3217,0.1391
395,-1.073,3.4105,-8.852,2.6435,1.3913,0.5565
400,-1.0346,3.4105,-8.967,2.713,1.4609,0.9043
405,-1.0346,3.3339,-9.0819,2.8522,1.4609,1.113
410,-1.1113,3.2955,-8.967,3.1304,1.1826,1.3217
415,-0.9197,3.2189,-8.9286,3.3391,1.0435,1.4609
420,-1.0346,3.3339,-8.9286,3.6174,0.9739,1.6
425,-1.073,3.3722,-8.7754,3.8957,0.7652,1.7391
430,-1.073,3.2572,-8.967,4.0348,0.6957,1.7391
435,-1.1113,3.3339,-9.2352,4.1043,0.6261,1.3913
440,-0.9963,3.2189,-9.0436,4.3826,0.5565,1.3217
445,-0.958,3.2955,-8.9286,4.3826,0.4174,1.1826
450,-1.0346,3.3722,-8.9286,4.5217,0.487,1.0435
455,-0.958,3.3722,-8.9286,4.5217,0.487,0.6957
460,-1.1113,3.4105,-8.8137,4.5913,0.5565,0.487
465,-1.0346,3.2572,-8.8137,4.5913,0.6261,0.3478
470,-1.073,3.2189,-8.9286,4.5913,0.487,0.0
475,-1.1496,3.3722,-8.8903,4.8,0.4174,-0.2087
480,-1.073,3.2955,-8.8137,4.9391,0.3478,-0.4174
485,-0.8814,3.2572,-8.9286,5.0783,0.4174,-0.487
490,-1.0346,3.1806,-8.8137,5.287,0.3478,-0.9739
495,-0.958,3.2572,-8.967,5.4957,0.4174,-1.3217
500,-0.9963,3.2572,-8.967,5.5652,0.487,-1.5304
505,-0.9197,3.2955,-9.0053,5.7043,0.6261,-1.6696
510,-0.8047,3.2572,-9.0053,5.9826,0.6261,-1.8783
515,-0.8814,3.3722,-8.852,6.1913,0.6261,-2.087
520,-0.9963,3.3339,-8.7754,6.4,0.6957,-2.2261
525,-0.9963,3.4105,-8.6987,6.7478,0.6261,-2.4348
530,-0.958,3.5255,-8.7754,7.0957,0.5565,-2.4348
535,-0.9197,3.3339,-8.852,7.3043,0.4174,-2.4348
540,-1.073,3.3722,-8.6604,7.3043,0.3478,-2.2957
545,-0.9197,3.2955,-8.6987,7.2348,0.2783,-2.2261
550,-1.073,3.4488,-8.8137,6.8174,0.2087,-2.087
555,-0.958,3.3339,-8.8903,6.4,0.2783,-2.0174
560,-0.9963,3.4105,-8.9286,5.9826,0.5565,-1.9478
565,-1.073,3.5255,-8.967,5.4957,0.7652,-1.8087
570,-0.9963,3.4105,-8.8903,5.0087,1.2522,-1.6
575,-1.0346,3.4488,-8.9286,4.5217,1.6,-1.6696
580,-0.9197,3.3339,-9.0819,4.1043,2.1565,-1.8087
585,-1.073,3.4488,-9.0436,3.8261,2.5739,-1.6696
590,-1.1496,3.3722,-8.8137,3.5478,2.9913,-1.7391
595,-0.9963,3.4488,-8.852,3.4783,3.3391,-1.8087
600,-0.9197,3.2189,-9.0053,3.4783,3.6174,-2.087
605,-1.1113,3.4488,-8.8137,3.6174,3.8261,-2.2261
610,-1.0346,3.3339,-8.7754,3.7565,4.0348,-2.5043
615,-1.1113,3.4105,-8.8137,3.8957,4.2435,-2.7826
620,-1.0346,3.3339,-8.9286,3.8957,4.3826,-3.0609
625,-1.1113,3.4105,-8.852,3.8957,4.3826,-3.3391
630,-1.073,3.3339,-8.8137,3.9652,4.3826,-3.687
635,-1.1496,3.4105,-8.8903,4.2435,4.3826,-3.9652
640,-1.073,3.1806,-8.7754,4.5913,4.313,-4.1043
645,-1.1113,3.4488,-8.8137,4.9391,4.0348,-4.2435
650,-1.0346,3.3339,-8.7754,5.287,3.8957,-4.3826
655,-1.1496,3.1423,-9.0053,5.5652,3.687,-4.4522
660,-1.1113,3.3722,-8.9286,5.7739,3.5478,-4.5913
665,-1.073,3.3722,-8.8137,5.913,3.4087,-4.6609
670,-1.0346,3.3722,-9.0436,6.0522,3.0609,-4.5217
675,-0.9963,3.2189,-8.7754,6.3304,2.7826,-4.3826
680,-1.1113,3.4488,-8.8903,6.6087,2.5739,-4.0348
685,-1.0346,3.3339,-9.0053,6.6783,2.2261,-3.8261
690,-1.073,3.3339,-8.8903,6.8174,2.0174,-3.687
695,-0.8814,3.4488,-9.1969,6.8174,1.9478,-3.4087
700,-0.958,3.3339,-8.8903,6.6783,1.6696,-3.3391
705,-0.9963,3.2572,-9.0436,6.4,1.5304,-3.0609
710,-1.073,3.3339,-8.8137,6.1217,1.3913,-2.9217
715,-1.0346,3.3339,-8.8903,5.8435,1.1826,-2.8522
720,-1.1496,3.3339,-9.0819,5.6348,1.0435,-2.7826
725,-0.9963,3.4105,-8.9286,5.4957,0.8348,-2.6435
730,-0.9197,3.4105,-8.8903,5.4261,0.4174,-2.6435
735,-0.9197,3.3339,-8.9286,5.4261,0.1391,-2.6435
740,-0.9963,3.2189,-8.8903,5.3565,-0.0696,-2.713
745,-1.0346,3.2572,-8.7754,5.4261,-0.4174,-2.8522
750,-1.1113,3.2955,-8.967,5.5652,-0.5565,-3.0609
755,-0.9963,3.2572,-8.8903,5.7043,-0.6957,-3.2
760,-0.958,3.1423,-8.852,5.7739,-0.6957,-3.2
765,-1.0346,3.3339,-8.7754,5.913,-0.7652,-3.3391
770,-1.1113,3.1806,-8.967,6.0522,-0.7652,-3.4087
775,-1.0346,3.1806,-8.9286,6.1217,-0.6261,-3.3391
780,-1.1496,3.2572,-8.967,6.1913,-0.5565,-3.4087
785,-1.1879,3.2955,-8.9286,6.3304,-0.3478,-3.4783
790,-1.073,3.2189,-8.852,6.4,-0.1391,-3.2696
795,-1.0346,3.4488,-8.8903,6.5391,0.1391,-3.0609
800,-1.2646,3.4105,-8.9286,6.6783,0.487,-2.7826
805,-1.1496,3.4105,-9.0819,6.5391,0.6957,-2.5739
810,-1.1113,3.2955,-8.967,6.4,1.0435,-2.4348
815,-1.2263,3.3339,-9.0053,6.0522,1.2522,-2.2261
820,-1.1879,3.2955,-8.9286,5.7739,1.4609,-2.0174
825,-1.1496,3.2955,-9.0053,5.6348,1.8087,-1.7391
830,-1.1496,3.3722,-8.852,5.6348,1.9478,-1.6
835,-1.073,3.2189,-8.967,5.7739,2.2261,-1.5304
840,-1.1496,3.4105,-9.0053,5.913,2.3652,-1.3217
845,-1.1879,3.3722,-9.0053,5.9826,2.4348,-1.0435
850,-1.1879,3.3722,-9.0053,5.7739,2.3652,-0.8348
855,-1.2263,3.6021,-9.0436,5.3565,2.2957,-0.7652
860,-1.1113,3.2955,-9.0436,4.7304,2.2957,-0.6957
865,-1.073,3.4871,-8.967,4.2435,2.2261,-0.5565
870,-0.9963,3.1806,-8.8137,3.7565,2.087,-0.7652
875,-1.1496,3.4488,-8.967,3.2696,1.9478,-0.6957
880,-1.1879,3.3722,-9.0436,2.7826,2.0174,-0.8348
885,-1.1113,3.4105,-9.0053,2.3652,2.0174,-0.6957
890,-1.1496,3.4871,-9.0436,1.9478,2.1565,-0.6261
895,-0.958,3.3722,-8.9286,1.6,2.1565,-0.5565
900,-1.0346,3.3722,-9.0819,1.6,2.3652,-0.5565
905,-1.1496,3.4871,-9.0436,1.6696,2.3652,-0.6261
910,-0.9197,3.2955,-8.852,1.8783,2.4348,-0.6957
915,-1.1496,3.4488,-8.8903,2.2261,2.3652,-0.7652
920,-0.9197,3.2189,-8.852,2.5739,2.2261,-0.8348
925,-1.073,3.3722,-8.8137,2.7826,2.0174,-1.0435
930,-1.0346,3.2572,-8.737,3.1304,1.7391,-1.113
935,-0.9197,3.2189,-8.6987,3.3391,1.6,-1.2522
940,-0.958,3.2955,-8.737,3.4783,1.2522,-1.3913
945,-1.0346,3.3339,-8.737,3.4783,1.113,-1.3217
950,-1.0346,3.2955,-8.8137,3.2696,0.9739,-1.4609
955,-0.9963,3.2955,-8.852,3.0609,0.9043,-1.3217
960,-0.958,3.3339,-8.8137,2.8522,0.9739,-1.3217
965,-1.0346,3.2572,-8.6987,2.6435,1.0435,-1.113
970,-0.9963,3.2189,-8.737,2.5043,0.9739,-1.0435
975,-0.9963,3.3339,-8.852,2.6435,1.0435,-0.8348
980,-1.0346,3.3339,-8.8903,2.9913,1.0435,-0.5565
985,-0.9963,3.2572,-8.9286,3.5478,1.113,-0.2783
990,-1.073,3.2572,-8.9286,4.0348,0.9739,0.0
995,-1.073,3.3722,-8.9286,4.313,0.7652,0.0696
1000,-1.0346,3.2572,-9.0436,4.5217,0.487,0.2783
1005,-1.073,3.2955,-8.967,4.5217,0.2087,0.3478
1010,-1.073,3.2189,-9.0436,4.5913,-0.1391,0.2087
1015,-1.0346,3.2955,-9.0436,4.5913,-0.4174,0.2087
1020,-0.9963,3.2572,-9.0053,4.5913,-0.6261,0.0696
1025,-0.958,3.2189,-9.0436,4.5217,-0.9043,-0.0696
1030,-0.9197,3.1423,-8.8137,4.3826,-0.9739,-0.2783
1035,-1.073,3.4871,-9.1969,4.2435,-1.113,-0.5565
1040,-1.073,3.2955,-9.0053,4.1739,-1.1826,-0.6261
1045,-1.073,3.3722,-9.0436,4.0348,-1.113,-0.7652
1050,-1.0346,3.2955,-9.0053,3.9652,-0.9043,-0.8348
1055,-0.9963,3.2955,-8.9286,3.9652,-0.7652,-0.8348
1060,-1.0346,3.3722,-9.0053,3.8957,-0.6261,-0.9739
1065,-0.9963,3.2955,-9.1202,3.8261,-0.3478,-0.9043
1070,-0.9197,3.2572,-9.0053,3.8957,-0.1391,-0.6957
1075,-0.9963,3.3339,-8.9286,3.8261,0.2087,-0.6261
1080,-0.958,3.4488,-9.0436,3.7565,0.3478,-0.6261
1085,-0.9197,3.3339,-9.1202,3.4783,0.6261,-0.487
1090,-0.958,3.3339,-9.1969,3.3391,0.8348,-0.6957
1095,-1.073,3.4105,-9.0053,3.2696,1.0435,-0.6261
1100,-1.073,3.3722,-8.852,3.2,1.2522,-0.6261
1105,-1.0346,3.3722,-8.8137,2.9913,1.3913,-0.6957
1110,-0.958,3.3722,-8.967,2.7826,1.4609,-0.7652
1115,-0.9197,3.2955,-8.7754,2.6435,1.4609,-0.7652
1120,-0.958,3.3339,-8.8903,2.3652,1.4609,-0.9043
1125,-0.958,3.3339,-9.0436,2.2957,1.3913,-0.9739
1130,-0.958,3.2955,-8.7754,2.2261,1.6,-0.9043
1135,-0.843,3.0273,-8.8903,2.2957,1.6,-0.9739
1140,-0.8047,3.3722,-8.8137,2.3652,1.6,-0.9739
1145,-1.073,3.1423,-8.9286,2.4348,1.6696,-0.9739
1150,-0.958,3.4105,-8.967,2.5043,1.6696,-0.9739
1155,-0.9963,3.3339,-9.0053,2.5043,1.8087,-1.0435
1160,-0.9963,3.3339,-9.0053,2.6435,1.8783,-0.9739
1165,-0.958,3.3339,-8.8137,2.6435,1.9478,-0.9043
1170,-0.9963,3.3722,-8.852,2.7826,2.087,-0.9739
1175,-0.958,3.3339,-9.0053,2.9913,2.2957,-1.0435
1180,-0.9197,3.1039,-9.0053,3.2,2.2261,-1.0435
1185,-0.958,3.1806,-8.8903,3.4783,2.2261,-1.1826
1190,-0.958,3.3339,-9.1202,3.7565,2.2957,-1.3217
1195,-0.958,3.4105,-8.967,4.0348,2.2261,-1.3217
1200,-1.073,3.6787,-8.9286,4.2435,2.2261,-1.3913
1205,-1.0346,3.4105,-8.852,4.2435,2.2261,-1.4609
1210,-1.0346,3.3339,-8.852,4.313,2.2957,-1.3217
1215,-0.9963,3.3339,-8.9286,4.2435,2.2261,-1.3217
1220,-0.843,3.3339,-8.8137,4.0348,2.2957,-1.2522
1225,-0.9963,3.3722,-8.967,3.687,2.2261,-1.2522
1230,-0.9963,3.2572,-9.0053,3.3391,2.0174,-1.3913
1235,-1.1496,3.3722,-9.0436,2.9913,1.9478,-1.2522
1240,-0.958,3.1423,-8.967,2.5043,1.8783,-1.2522
1245,-1.1496,3.2572,-8.8903,2.087,1.6696,-1.1826
1250,-1.1496,3.3722,-8.967,1.8783,1.5304,-1.113
1255,-1.1879,3.2955,-8.9286,1.6,1.3913,-1.113
1260,-1.073,3.2955,-9.0436,1.4609,1.2522,-1.113
1265,-1.1113,3.3339,-8.967,1.3913,1.2522,-1.1826
1270,-0.9963,3.4105,-9.0436,1.5304,1.113,-1.1826
1275,-1.073,3.4488,-9.0053,1.7391,1.0435,-1.3217
1280,-1.073,3.4105,-8.8137,1.8783,0.9043,-1.2522
1285,-0.9963,3.3722,-8.8903,2.0174,0.7652,-1.3217
1290,-0.9197,3.3339,-8.9286,2.087,0.7652,-1.3913
1295,-1.073,3.4105,-8.7754,2.087,0.7652,-1.3217
1300,-0.8814,3.2955,-8.737,2.087,0.8348,-1.3217
1305,-1.073,3.2955,-8.8903,2.087,0.8348,-1.4609
1310,-1.1113,3.4871,-8.852,2.087,0.8348,-1.4609
1315,-0.958,3.4105,-9.0053,2.087,1.0435,-1.4609
1320,-0.958,3.2955,-8.9286,2.2261,1.3217,-1.5304
1325,-0.958,3.3339,-8.9286,2.2957,1.6,-1.3913
1330,-0.958,3.4105,-8.9286,2.3652,1.8087,-1.4609
1335,-0.8814,3.2572,-8.852,2.2261,2.0174,-1.5304
1340,-1.073,3.4871,-8.6221,2.2261,2.1565,-1.6696
1345,-0.958,3.2189,-8.9286,2.1565,2.2957,-1.6696
1350,-1.0346,3.3339,-8.9286,2.3652,2.2957,-1.5304
1355,-1.073,3.3339,-8.6604,2.6435,2.3652,-1.2522
1360,-1.1879,3.2189,-8.8137,2.9217,2.2261,-1.3913
1365,-1.073,3.2955,-8.6987,3.1304,2.087,-1.2522
1370,-0.9963,3.2572,-8.852,3.1304,2.087,-1.3217
1375,-1.0346,3.4105,-9.0053,3.2,2.087,-1.113
1380,-1.0346,3.4105,-8.852,3.2,2.0174,-1.0435
1385,-0.958,3.2955,-9.0819,2.9913,1.9478,-0.9043
1390,-1.0346,3.3722,-9.0053,2.713,1.9478,-1.113
1395,-1.1496,3.4488,-8.7754,2.3652,1.9478,-1.0435
1400,-1.1113,3.4488,-9.1202,1.9478,1.8783,-0.9739
1405,-1.073,3.2955,-8.967,1.7391,1.8783,-0.8348
1410,-1.0346,3.2572,-9.0053,1.5304,1.7391,-0.8348
1415,-1.0346,3.3339,-9.1969,1.3913,1.6,-0.6957
1420,-1.1113,3.3722,-9.0053,1.2522,1.4609,-0.6261
1425,-0.9963,3.3339,-9.0436,1.1826,1.2522,-0.7652
1430,-0.958,3.3339,-9.0436,1.0435,1.0435,-0.7652
1435,-1.0346,3.4871,-8.8903,1.113,0.9043,-0.7652
1440,-0.9963,3.3339,-8.967,1.0435,0.7652,-0.6261
1445,-1.073,3.4105,-8.9286,0.9739,0.6261,-0.6261
1450,-1.0346,3.3722,-9.1969,0.8348,0.5565,-0.5565
1455,-0.9963,3.3722,-8.8903,0.6261,0.5565,-0.6957
1460,-1.073,3.3722,-8.967,0.4174,0.6261,-0.5565
1465,-1.1113,3.2955,-8.967,0.2087,0.6957,-0.4174
1470,-1.1113,3.2572,-8.9286,0.1391,0.7652,-0.2783
1475,-0.8047,3.2572,-8.967,0.0696,0.9739,-0.2087
1480,-0.9197,3.3339,-8.967,0.0696,0.9739,-0.2783
1485,-0.9963,3.4488,-8.7754,0.0696,1.0435,-0.1391
1490,-0.9963,3.4488,-8.737,0.1391,1.1826,-0.0696
1495,-0.9197,3.3722,-9.0053,0.4174,1.113,0.0
1500,-0.8814,3.2572,-8.852,0.7652,1.113,-0.0696
1505,-0.958,3.2572,-8.8903,0.9739,1.0435,-0.1391
1510,-0.9963,3.3339,-8.967,1.113,1.1826,0.0
1515,-0.958,3.2955,-8.8903,1.3217,1.3217,-0.1391
1520,-0.9197,3.2955,-8.9286,1.5304,1.4609,-0.1391
1525,-0.8814,3.3722,-8.737,1.4609,1.6696,-0.2087
1530,-0.9963,3.3339,-8.852,1.4609,1.8087,-0.2783
1535,-0.9963,3.3339,-8.967,1.3913,2.0174,-0.3478
1540,-0.9963,3.3722,-8.8903,1.3217,2.2261,-0.4174
1545,-0.9197,3.3722,-8.8137,1.2522,2.4348,-0.2783
1550,-0.9197,3.3722,-8.8137,1.3217,2.713,-0.2783
1555,-0.9963,3.4488,-8.8137,1.3913,2.8522,-0.2783
1560,-0.9963,3.4105,-8.7754,1.3217,2.9217,-0.0696
1565,-0.9963,3.3339,-8.967,1.1826,2.7826,0.0
1570,-1.0346,3.3339,-8.7754,1.113,2.7826,0.0696
1575,-0.958,3.3722,-8.737,1.0435,2.713,0.2087
1580,-0.9197,3.2572,-8.6604,1.0435,2.6435,0.3478
1585,-0.9197,3.3722,-8.967,1.0435,2.5739,0.2087
1590,-0.958,3.3722,-8.8903,1.1826,2.4348,0.3478
1595,-0.843,3.2955,-8.8137,1.3217,2.2957,0.3478
1600,-1.073,3.3722,-9.0053,1.5304,2.2261,0.2783
1605,-0.9197,3.3339,-9.0053,1.7391,2.2957,0.2087
1610,-0.8814,3.2955,-8.8903,1.9478,2.2261,0.3478
1615,-0.8814,3.3722,-8.9286,2.087,2.2957,0.2087
1620,-0.958,3.3722,-8.8903,2.1565,2.1565,0.2783
1625,-0.9197,3.3722,-8.9286,2.1565,2.1565,0.2783
1630,-0.958,3.4871,-9.1202,2.0174,2.0174,0.2087
1635,-0.6131,3.0656,-9.0819,2.087,1.8087,0.1391
1640,-0.843,3.3339,-8.852,1.8783,1.7391,0.0696
1645,-0.8814,3.3339,-8.9286,1.8087,1.6,-0.0696
1650,-0.843,3.4105,-8.967,1.8087,1.4609,-0.2783
1655,-0.843,3.3339,-8.9286,1.7391,1.3217,-0.3478
1660,-0.9197,3.3339,-8.852,1.8783,1.113,-0.487
1665,-0.958,3.4105,-8.852,1.8783,0.9739,-0.5565
1670,-0.8814,3.2955,-9.0436,2.087,0.7652,-0.6261
1675,-1.073,3.3722,-8.967,2.2957,0.6957,-0.7652
1680,-0.843,3.1423,-8.737,2.7826,0.5565,-0.7652
1685,-0.9197,3.3339,-8.852,3.2696,0.487,-0.7652
1690,-1.1113,3.0656,-8.8903,3.7565,0.4174,-0.8348
1695,-0.9197,3.3339,-8.8903,4.2435,0.4174,-0.7652
1700,-0.958,3.4488,-8.9286,4.5217,0.3478,-0.7652
1705,-0.9963,3.4871,-8.7754,4.6609,0.487,-0.8348
1710,-0.9963,3.3722,-8.8137,4.8,0.4174,-0.7652
1715,-0.843,3.2955,-8.967,4.8696,0.487,-0.6957
1720,-0.958,3.3339,-8.9286,4.9391,0.487,-0.6957
1725,-1.0346,3.4488,-8.9286,4.9391,0.6261,-0.7652
1730,-0.958,3.2955,-8.9286,5.0783,0.6261,-0.6261
1735,-1.0346,3.3722,-9.0053,5.3565,0.6957,-0.7652
1740,-0.958,3.2955,-8.737,5.6348,0.6957,-0.6957
1745,-0.958,3.3339,-8.6987,5.7739,0.6261,-0.8348
1750,-1.0346,3.4488,-8.8903,5.8435,0.7652,-0.9739
1755,-0.9197,3.3722,-8.967,5.8435,0.9043,-0.9043
1760,-0.9197,3.6021,-8.8903,5.8435,0.8348,-1.0435
1765,-0.958,3.4105,-8.9286,5.7739,0.7652,-1.113
1770,-0.958,3.3339,-8.7754,5.6348,0.6957,-1.3217
1775,-0.9197,3.3722,-8.967,5.4957,0.6957,-1.3913
1780,-1.0346,3.4488,-8.852,5.4957,0.487,-1.5304
1785,-0.958,3.3339,-8.8903,5.1478,0.5565,-1.4609
1790,-0.958,3.4105,-9.0436,4.8696,0.4174,-1.3913
1795,-1.0346,3.4871,-8.852,4.5217,0.4174,-1.4609
1800,-0.8047,3.5638,-9.2352,4.0348,0.487,-1.1826
1805,-0.8814,3.4105,-9.1202,3.6174,0.5565,-1.0435
1810,-0.958,3.5255,-9.0819,2.9913,0.6261,-0.9739
1815,-0.9963,3.5255,-8.967,2.4348,0.8348,-0.6957
1820,-0.958,3.3339,-9.0436,2.0174,0.9043,-0.487
1825,-0.843,3.4871,-8.852,1.8087,0.9739,-0.4174
1830,-0.9197,3.3339,-8.852,1.7391,0.9739,-0.4174
1835,-0.843,3.3339,-8.8903,1.7391,0.8348,-0.487
1840,-0.9197,3.4871,-9.0436,1.9478,0.9043,-0.5565
1845,-1.073,3.3722,-8.9286,2.2261,0.8348,-0.5565
1850,-1.0346,3.3722,-8.737,2.5043,0.9043,-0.487
1855,-0.958,3.4105,-8.852,2.5739,0.8348,-0.5565
1860,-0.843,3.3339,-8.8903,2.7826,0.7652,-0.5565
1865,-0.9197,3.4105,-8.852,2.8522,0.9043,-0.6957
1870,-1.0346,3.3722,-8.8137,2.9217,0.8348,-0.6261
1875,-0.843,3.3722,-8.7754,2.7826,0.9043,-0.6957
1880,-0.8814,3.4105,-8.8903,2.8522,0.9043,-0.6957
1885,-0.958,3.4105,-8.9286,2.7826,1.2522,-0.6957
1890,-1.0346,3.2572,-8.8137,2.6435,1.3217,-0.5565
1895,-0.958,3.2572,-8.967,2.713,1.3217,-0.6261
1900,-0.8814,3.1806,-9.0819,2.5739,1.3217,-0.6261
1905,-1.1113,3.5255,-9.0053,2.5739,1.1826,-0.5565
1910,-1.0346,3.3722,-8.8903,2.4348,1.113,-0.487
1915,-1.0346,3.2955,-8.8903,2.6435,0.9739,-0.3478
1920,-0.9197,3.4488,-8.7754,2.713,0.7652,-0.2087
1925,-0.958,3.3722,-8.8903,2.713,0.6261,-0.1391
1930,-0.9963,3.4871,-8.967,2.8522,0.4174,0.0
1935,-0.9963,3.4488,-8.737,2.9217,0.2783,0.0696
1940,-1.073,3.4488,-8.852,2.9217,0.2783,0.0696
1945,-1.073,3.4871,-8.8903,2.8522,0.2783,0.1391
1950,-0.9963,3.3722,-8.852,2.9217,0.3478,0.1391
1955,-1.1113,3.4488,-8.7754,2.8522,0.2783,0.2087
1960,-1.0346,3.2572,-9.0436,2.9217,0.3478,0.2087
1965,-0.958,3.4488,-8.8137,2.9913,0.4174,0.1391
1970,-0.9197,3.4871,-8.852,3.0609,0.487,0.2783
1975,-1.0346,3.3722,-8.8137,3.0609,0.6261,0.2087
1980,-0.9197,3.4871,-8.8903,3.2,0.6261,0.2087
1985,-0.8814,3.3722,-8.9286,3.4087,0.6957,0.1391
1990,-1.0346,3.4488,-8.852,3.4783,0.8348,0.0696
1995,-0.9197,3.3722,-8.9286,3.5478,0.9043,0.0
2000,-1.073,3.4105,-8.9286,3.687,0.9739,-0.0696
2005,-1.0346,3.4105,-8.9286,3.8261,1.113,-0.1391
2010,-0.6898,3.4871,-8.852,4.0348,1.1826,-0.2087
2015,-0.8814,3.5255,-9.0053,4.1739,1.1826,-0.2783
2020,-0.8814,3.3722,-8.9286,4.2435,1.1826,-0.1391
2025,-1.0346,3.5638,-8.8903,4.1739,1.1826,-0.1391
2030,-0.8047,3.4488,-8.8903,4.0348,1.1826,-0.2087
2035,-0.7664,3.3339,-8.8903,3.8261,1.2522,-0.3478
2040,-0.8814,3.4488,-8.8137,3.687,1.1826,-0.3478
2045,-0.958,3.4488,-9.0819,3.687,1.1826,-0.2087
2050,-0.8047,3.4488,-8.8903,3.6174,1.0435,-0.0696
2055,-0.9197,3.4871,-8.967,3.5478,0.9739,0.0696
2060,-0.958,3.4488,-8.9286,3.3391,0.8348,0.1391
2065,-0.9197,3.5255,-8.852,3.0609,0.7652,0.2087
2070,-1.073,3.7171,-8.6987,2.713,0.8348,0.3478
2075,-0.958,3.4488,-8.9286,2.4348,0.9739,0.4174
2080,-0.8814,3.4871,-8.852,2.2261,1.1826,0.3478
2085,-0.9963,3.6787,-8.852,2.0174,1.2522,0.4174
2090,-0.958,3.4871,-8.6987,2.0174,1.2522,0.2783
2095,-0.9197,3.4488,-8.852,2.0174,1.1826,0.3478
2100,-0.843,3.4105,-8.737,2.2261,0.9043,0.4174
2105,-0.9197,3.4871,-8.5838,2.6435,0.6261,0.487
2110,-1.0346,3.4105,-8.8137,3.1304,0.3478,0.487
2115,-0.9963,3.4488,-8.737,3.7565,0.0,0.3478
2120,-0.843,3.4105,-8.737,4.1739,-0.2087,0.3478
2125,-0.8047,3.4105,-8.7754,4.5913,-0.4174,0.3478
2130,-0.8047,3.5638,-8.7754,4.8,-0.487,0.4174
2135,-0.843,3.5255,-8.9286,4.8,-0.5565,0.4174
2140,-0.843,3.4871,-8.9286,4.5217,-0.487,0.3478
2145,-0.8814,3.5255,-9.1202,4.2435,-0.5565,0.0696
2150,-0.9197,3.5638,-8.8903,4.1043,-0.5565,0.0696
2155,-0.7664,3.4105,-8.9286,4.1043,-0.3478,0.2087
2160,-0.8814,3.4871,-9.0436,4.2435,-0.1391,0.1391
2165,-0.8814,3.4105,-8.7754,4.4522,0.1391,0.2783
2170,-1.1496,3.5638,-8.737,4.7304,0.2087,0.4174
2175,-0.8814,3.3339,-8.7754,4.8696,0.2783,0.3478
2180,-0.843,3.3339,-9.0053,4.9391,0.2087,0.3478
2185,-0.958,3.3722,-8.7754,5.0783,0.0,0.3478
2190,-0.9197,3.4105,-8.737,5.1478,-0.1391,0.3478
2195,-1.1113,3.3722,-8.7754,5.4261,-0.3478,0.2783
2200,-0.9963,3.3722,-8.6987,5.7043,-0.6261,0.2783
2205,-1.073,3.4105,-8.7754,6.1217,-0.9043,0.3478
2210,-1.0346,3.2572,-8.737,6.6087,-1.2522,0.4174
2215,-1.0346,3.2955,-8.6604,7.2348,-1.5304,0.3478
2220,-1.073,3.1423,-9.0053,7.7217,-1.8783,0.4174
2225,-1.073,3.2189,-8.8903,8.0696,-2.1565,0.2087
2230,-1.073,2.989,-8.7754,8.6957,-2.5043,0.1391
2235,-1.3029,3.0656,-9.1969,9.4609,-2.9217,0.2087
2240,-1.073,3.1423,-8.8903,10.5739,-3.4087,0.4174
2245,-1.073,3.1039,-8.967,11.8261,-3.8261,0.6261
2250,-1.1496,3.1039,-9.0819,12.8,-4.2435,0.6957
2255,-1.1496,2.9507,-9.2352,13.6348,-4.6609,0.6261
2260,-1.1496,2.9123,-9.0819,14.1217,-5.0783,0.6261
2265,-1.1496,3.0273,-9.2735,14.9565,-5.4261,0.487
2270,-1.0346,2.989,-9.3502,15.9304,-5.4957,0.487
2275,-0.9963,3.0273,-9.3502,16.9739,-5.4261,0.3478
2280,-0.958,3.0273,-9.3118,17.8783,-5.2174,0.0696
2285,-1.0346,2.989,-9.5034,18.6435,-5.0087,-0.1391
2290,-1.1496,2.989,-9.4651,19.7565,-4.5913,-0.3478
2295,-0.958,2.9507,-9.3502,21.287,-4.2435,-0.6957
2300,-1.0346,2.7974,-9.5034,22.887,-3.8957,-1.1826
2305,-0.958,2.7591,-9.2735,24.5565,-3.4087,-1.6696
2310,-1.0346,2.7591,-9.5418,26.1565,-2.8522,-2.3652
2315,-1.1496,2.7207,-9.4651,28.1043,-2.2957,-2.9913
2320,-1.2646,2.7207,-9.6567,30.5391,-1.8087,-3.3391
2325,-1.2263,2.6441,-9.695,33.113,-1.3217,-3.4087
2330,-1.1879,2.6058,-9.7717,35.9652,-0.6957,-3.6174
2335,-1.5328,2.5675,-9.925,38.0522,0.0696,-3.687
2340,-1.3029,2.6441,-9.695,39.7217,0.9043,-3.8261
2345,-1.6478,2.6058,-10.0782,41.0435,1.6696,-3.8261
2350,-1.5328,2.4908,-9.8483,42.5739,2.2261,-3.5478
2355,-1.6478,2.4908,-9.925,44.1043,2.5739,-3.2696
2360,-1.5711,2.4525,-9.8866,45.8435,2.7826,-2.7826
2365,-1.6478,2.3759,-9.8866,47.3739,2.9913,-2.5043
2370,-1.5711,2.2226,-9.9633,49.2522,2.9913,-2.3652
2375,-1.5711,2.4142,-10.0782,51.4087,2.9217,-2.0174
2380,-1.4562,2.2226,-10.0016,53.7739,2.7826,-1.6696
2385,-1.3412,2.2226,-10.2698,56.0,2.713,-1.6696
2390,-1.2646,2.0693,-10.3082,57.8783,2.8522,-1.8087
2395,-1.1496,2.0693,-10.2315,59.2696,3.1304,-1.9478
2400,-1.1496,2.031,-10.2315,60.5913,3.6174,-1.8783
2405,-1.073,2.0693,-10.1166,62.0522,4.3826,-1.6696
2410,-1.0346,2.031,-10.2315,63.7913,5.2174,-1.5304
2415,-0.958,1.9543,-10.0016,65.3217,5.913,-1.4609
2420,-0.8814,1.8777,-10.2315,66.9913,6.887,-1.4609
2425,-0.8814,1.8394,-9.925,68.8696,8.0,-1.5304
2430,-0.9197,1.9543,-10.0782,70.6783,9.113,-1.7391
2435,-0.9963,1.6861,-9.8866,73.0435,10.0174,-2.0174
2440,-0.7281,1.6478,-9.925,75.7565,10.9217,-2.2957
2445,-0.843,1.7244,-9.925,79.0261,11.6174,-2.9913
2450,-0.8047,1.6095,-9.7717,82.2261,12.2435,-3.2696
2455,-0.9963,1.6478,-10.0016,85.287,13.0087,-3.7565
2460,-0.843,1.6861,-9.8866,87.8609,13.7043,-4.4522
2465,-0.958,1.7627,-9.925,89.9478,14.4,-4.4522
2470,-1.0346,1.6095,-9.7334,91.687,14.9565,-4.5913
2475,-0.9197,1.6095,-9.81,93.4261,15.5826,-4.5913
2480,-0.9963,1.5328,-9.7334,95.0957,16.2087,-4.313
2485,-0.8814,1.3029,-9.81,96.6957,16.7652,-4.1739
2490,-0.9963,1.4562,-9.7717,98.3652,17.113,-4.1043
2495,-1.0346,1.2646,-9.8483,100.2435,17.5304,-4.0348
2500,-0.8047,1.1496,-9.925,102.1913,17.8087,-3.8261
2505,-0.9197,1.073,-9.925,104.0,18.0174,-3.6174
2510,-0.958,1.2646,-9.8483,105.3217,18.2261,-3.687
2515,-0.9197,1.073,-9.8866,106.0174,18.2261,-3.6174
2520,-0.8814,0.9963,-9.8483,106.4348,18.087,-3.6174
2525,-0.958,1.0346,-9.925,106.2957,17.8783,-3.5478
2530,-0.958,0.9197,-10.0016,105.8783,17.6,-3.5478
2535,-0.9963,0.7664,-9.9633,105.4609,17.2522,-3.5478
2540,-0.9963,0.7281,-10.1166,104.8348,16.8348,-3.5478
2545,-0.958,0.7281,-9.925,104.2783,16.5565,-3.6174
2550,-0.9197,0.6131,-9.925,103.3739,16.0696,-3.5478
2555,-0.843,0.4215,-10.0782,102.3304,15.3739,-3.5478
2560,-1.0346,0.2682,-9.8483,100.9391,14.5391,-3.2
2565,-1.073,0.1916,-9.81,99.2,13.4957,-3.1304
2570,-0.8814,0.0383,-9.81,97.4609,12.3826,-3.2696
2575,-1.0346,0.0383,-9.7717,95.8609,11.0609,-2.9913
2580,-0.958,0.0,-9.81,94.4,10.0174,-2.5043
2585,-0.8047,-0.0383,-9.81,93.0087,8.9739,-2.0174
2590,-0.9963,-0.0383,-9.81,91.7565,8.0,-1.6
2595,-0.9197,-0.0766,-9.81,90.5739,7.1652,-1.1826
2600,-0.8047,-0.0766,-9.81,89.4609,6.6087,-0.487
2605,-0.958,-0.3449,-9.81,88.487,6.1913,0.0696
2610,-0.7664,-0.4598,-9.7717,87.7217,5.7043,0.4174
2615,-0.6898,-0.5748,-9.7334,86.7478,5.287,0.8348
2620,-0.6514,-0.7281,-9.7717,85.7739,5.287,1.113
2625,-0.6131,-0.7281,-9.7334,84.8696,5.4957,1.6
2630,-0.4982,-0.843,-9.6567,84.1739,5.7739,1.4609
2635,-0.5365,-0.9197,-9.8483,83.7565,5.913,1.6696
2640,-0.4598,-0.9963,-9.7334,83.4783,6.1217,2.087
2645,-0.5748,-0.9963,-9.7334,83.4087,6.4696,2.8522
2650,-0.5365,-0.9963,-9.81,83.4783,6.8174,3.5478
2655,-0.5365,-1.0346,-9.7334,83.4783,7.1652,4.313
2660,-0.6898,-1.3795,-10.1166,83.2696,7.0261,5.4957
2665,-0.4982,-1.1879,-9.8866,82.9217,6.887,6.6783
2670,-0.5365,-1.3795,-9.7717,82.3652,6.7478,7.8609
2675,-0.5365,-1.3412,-9.7717,81.5304,6.6783,9.0435
2680,-0.5365,-1.4179,-9.6184,80.487,6.4,10.1565
2685,-0.6131,-1.5711,-9.5418,79.2348,6.0522,11.2
2690,-0.6131,-1.6478,-9.6567,78.1913,5.7043,12.1043
2695,-0.6131,-1.5711,-9.5418,77.287,5.4261,13.0783
2700,-0.6131,-1.7244,-9.5418,76.5217,5.0783,13.7739
2705,-0.5365,-1.8777,-9.5801,76.0348,4.8,14.2609
2710,-0.6131,-1.7244,-9.5034,75.4087,4.5913,14.9565
2715,-0.843,-1.7244,-9.5034,74.9217,4.6609,15.0957
2720,-0.6131,-1.8777,-9.6567,74.3652,4.5913,15.2348
2725,-0.6131,-2.0693,-9.5034,73.8087,4.4522,15.3739
2730,-0.5365,-2.0693,-9.5418,73.3913,4.2435,15.3043
2735,-0.6898,-2.1843,-9.4651,72.8348,4.0348,15.2348
2740,-0.6131,-2.2226,-9.6184,72.487,3.7565,15.0957
2745,-0.7281,-2.3375,-9.5801,72.2783,3.7565,14.9565
2750,-0.6131,-2.3375,-9.5418,72.2087,3.687,14.8174
2755,-0.6514,-2.5291,-9.5034,72.4174,3.6174,14.7478
2760,-0.8047,-2.3759,-9.5034,72.9739,3.7565,14.6783
2765,-0.6514,-2.4908,-9.5801,73.9478,3.8957,14.4
2770,-0.6131,-2.6058,-9.0819,74.9913,4.1739,13.9826
2775,-0.6898,-2.4525,-9.3885,76.3826,4.5217,13.6348
2780,-0.4982,-2.6058,-9.4651,77.7043,5.0087,13.4957
2785,-0.5748,-2.6824,-9.3118,79.0957,5.7739,13.287
2790,-0.4598,-2.7207,-9.4268,80.3478,6.6087,12.8
2795,-0.4215,-2.9507,-9.5418,81.1826,7.7217,12.7304
2800,-0.2299,-3.1423,-9.3502,81.3913,9.113,12.8696
2805,-0.3449,-3.1806,-9.3885,80.9739,10.4348,12.5913
2810,-0.2682,-3.2955,-9.4268,80.2087,11.2696,11.9652
2815,-0.0766,-3.3339,-9.5034,79.1652,11.7565,11.1304
2820,-0.0766,-3.3722,-9.3885,77.8435,12.1043,10.2261
2825,-0.115,-3.4871,-9.5034,76.4522,12.3826,9.1826
2830,0.0,-3.7171,-9.3885,74.8522,12.5913,8.2783
2835,0.115,-3.8704,-9.3502,73.3217,12.6609,7.4435
2840,-0.0383,-3.832,-9.1969,71.9304,12.8,6.6087
2845,0.0383,-3.947,-9.1202,70.8174,12.7304,5.9826
2850,0.0,-4.1003,-9.1202,69.913,12.4522,5.4957
2855,0.0,-4.1003,-9.1586,69.3565,12.0348,4.8696
2860,-0.0383,-4.1769,-9.2735,69.1478,11.6174,4.4522
2865,-0.115,-4.3302,-9.0053,69.3565,11.3391,4.313
2870,-0.0383,-4.3302,-8.7754,69.913,11.2,4.2435
2875,-0.1916,-4.4068,-8.6987,71.0261,11.1304,4.1739
2880,-0.0383,-4.4452,-8.852,72.487,11.4087,4.1043
2885,-0.0766,-4.4835,-8.8137,74.2957,12.0348,4.2435
2890,-0.1916,-4.5218,-8.737,76.4522,12.8696,4.2435
2895,-0.115,-4.4452,-8.737,78.6087,13.913,4.3826
2900,-0.115,-4.5218,-8.8137,80.6261,15.0957,4.5913
2905,-0.3449,-4.5218,-8.7754,82.3652,16.2087,4.8696
2910,-0.1916,-4.5601,-8.5838,83.7565,17.2522,5.0783
2915,-0.3066,-4.5601,-8.6987,85.0087,18.2261,5.287
2920,-0.3449,-4.5984,-8.6221,85.6348,19.0609,5.3565
2925,-0.2682,-4.5984,-8.5071,85.8435,19.6174,5.4261
2930,-0.1916,-4.5218,-8.2005,85.7043,19.9652,5.3565
2935,-0.4215,-4.7134,-8.4305,85.287,19.8957,5.0783
2940,-0.4982,-4.7517,-8.3155,84.7304,19.8261,4.8
2945,-0.3832,-4.8284,-8.3538,84.2435,19.5478,4.4522
2950,-0.3066,-4.8667,-8.0856,83.6174,19.0609,3.9652
2955,-0.3066,-4.9433,-8.2005,83.1304,18.713,3.687
2960,-0.3449,-4.9433,-8.3538,82.6435,18.4348,2.9913
2965,-0.4215,-5.02,-8.1239,82.3652,18.2957,2.1565
2970,-0.3066,-5.1732,-8.3155,82.1565,18.2261,1.3217
2975,-0.2299,-5.3265,-8.1622,82.2261,18.1565,0.4174
2980,-0.1533,-5.2882,-8.1622,82.3652,18.2957,-0.8348
2985,-0.3066,-5.3648,-7.5874,82.6435,18.6435,-2.2261
2990,-0.2682,-5.6331,-8.0856,83.2,19.1304,-3.4783
2995,-0.3066,-5.7864,-8.0856,83.8957,19.4087,-4.5913
