timestamp,accX,accY,accZ,gyroX,gyroY,gyroZ
0,0.9963,-9.0819,-1.4179,5.6348,-28.3826,-2.7826
5,1.1879,-9.1202,-1.3412,4.9391,-28.4522,-2.4348
10,1.073,-9.3502,-1.3412,4.313,-28.4522,-2.5043
15,1.3795,-9.4268,-1.1113,3.9652,-28.6609,-2.7826
20,1.1496,-9.5034,-0.958,3.9652,-29.1478,-3.3391
25,1.2263,-10.0016,-0.9963,4.2435,-29.5652,-4.0348
30,0.9963,-10.1549,-1.073,4.9391,-29.8435,-4.9391
35,1.073,-10.0782,-1.0346,5.913,-29.7043,-5.4957
40,0.8047,-9.9633,-1.2646,7.0957,-29.1478,-5.9826
45,0.9197,-10.1549,-1.073,8.5565,-28.0348,-6.3304
50,0.958,-10.1549,-0.9963,10.1565,-26.0174,-6.6087
55,0.9197,-10.2315,-1.3795,12.1043,-24.1391,-6.887
60,1.1496,-10.2698,-1.4179,14.0522,-21.913,-7.3739
65,1.2263,-10.3848,-1.4945,15.6522,-19.7565,-8.1391
70,1.1879,-10.1932,-1.1113,17.3217,-17.7391,-8.9739
75,1.1879,-10.2315,-0.958,18.2261,-16.0696,-10.087
80,1.2263,-9.8866,-0.9963,18.9217,-14.6783,-11.2696
85,1.2263,-10.1549,-0.5748,19.687,-13.4261,-12.5217
90,1.4179,-10.0782,-0.4598,20.1739,-12.2435,-13.7043
95,1.1879,-9.8483,-0.4215,21.0087,-11.2696,-14.6087
100,1.073,-9.8483,-0.2299,21.913,-10.2957,-15.4435
105,0.843,-10.0399,0.115,22.6087,-9.6,-16.0696
110,0.6898,-10.0399,0.4215,23.0261,-9.4609,-16.1391
115,0.4215,-10.1549,0.4215,23.0957,-9.7391,-15.8609
120,0.2682,-10.2698,0.7664,23.0957,-10.6435,-15.2348
125,-0.115,-10.3848,0.4982,23.0261,-11.5478,-14.4696
130,-0.0766,-10.3848,0.5748,22.7478,-12.9391,-13.7739
135,-0.2299,-10.3848,0.1916,21.913,-14.4,-13.1478
140,-0.2682,-10.4231,-0.115,20.1739,-16.2783,-12.4522
145,-0.1916,-10.4614,-0.4982,17.5304,-18.4348,-11.5478
150,-0.1533,-10.768,-0.9197,14.1913,-20.6609,-10.9217
155,0.1533,-11.0363,-1.5711,9.6,-23.1652,-10.9217
160,0.5365,-11.3811,-2.3375,3.4087,-25.8087,-11.7565
165,0.8814,-11.2662,-2.6058,-3.687,-28.2435,-12.9391
170,1.3795,-11.8793,-3.0273,-10.5739,-30.0522,-15.0957
175,1.9543,-12.1859,-3.3339,-15.7913,-30.4696,-17.9478
180,2.6441,-12.5691,-3.1039,-18.1565,-28.313,-21.3565
185,3.5638,-13.1822,-2.7974,-16.6957,-23.513,-24.9739
190,4.062,-13.1822,-2.6824,-11.8957,-16.3478,-28.9391
195,4.3685,-13.4121,-2.4908,-5.2174,-7.7217,-32.7652
200,4.4452,-13.4504,-2.5291,1.8087,1.113,-36.1739
205,4.3685,-12.9523,-2.9507,8.2087,9.3913,-38.4696
210,4.062,-12.7223,-3.1423,13.7739,16.2087,-39.3043
215,3.7171,-12.3008,-3.3722,19.0609,21.7739,-38.5391
220,3.0273,-11.8793,-3.6787,24.4174,25.8783,-36.4522
225,2.5291,-11.5727,-3.7937,29.7739,28.4522,-33.3913
230,1.5711,-10.8446,-3.9853,34.3652,29.5652,-29.7739
235,0.8814,-10.4231,-4.1386,37.9826,29.7043,-25.1826
240,0.115,-9.81,-4.2152,40.0696,28.313,-19.8957
245,-0.6514,-9.1969,-4.4452,40.3478,25.3217,-14.7478
250,-1.2263,-8.5071,-4.6368,38.6783,20.1739,-9.3913
255,-1.6095,-7.894,-4.5218,35.2,13.3565,-4.313
260,-1.6478,-7.5491,-4.4452,30.6087,5.4957,0.1391
265,-1.6478,-7.3192,-4.1386,25.7391,-2.2261,3.4783
270,-1.4945,-7.0893,-3.9853,21.0783,-8.9739,5.7739
275,-1.6095,-7.2809,-3.832,16.9739,-14.1913,7.2348
280,-1.5711,-7.3575,-3.4871,13.287,-18.3652,8.2087
285,-1.2646,-7.5491,-3.4105,9.9478,-22.1217,8.4174
290,-1.1496,-7.7024,-3.7171,6.8174,-25.3217,8.0696
295,-0.843,-8.0089,-3.7171,4.3826,-27.2696,6.887
300,-0.5365,-8.3155,-3.9853,2.8522,-27.8261,5.287
305,-0.2682,-8.3921,-3.9853,2.3652,-26.8522,3.2
310,-0.0383,-8.5838,-4.1769,3.1304,-24.4174,0.9043
315,0.2682,-8.6221,-3.832,5.287,-21.0087,-0.9043
320,0.8047,-8.6221,-3.9087,8.3478,-17.113,-2.4348
325,1.1496,-8.5838,-3.832,11.8957,-12.8,-3.2696
330,1.5328,-8.5454,-3.6787,15.513,-8.3478,-3.9652
335,1.916,-8.1239,-3.6404,18.713,-4.2435,-4.3826
340,2.2226,-8.1239,-3.5638,20.6609,-0.487,-4.5913
345,2.3375,-8.0089,-3.5255,21.4261,2.713,-4.2435
350,2.2609,-7.894,-3.4105,21.0087,4.8696,-3.5478
355,2.1459,-8.0089,-3.5255,19.4783,6.5391,-2.4348
360,2.031,-7.9706,-3.2572,16.9739,7.9304,-0.8348
365,1.6478,-8.0089,-3.2955,14.1913,8.9043,1.2522
370,1.1496,-8.3921,-3.0273,11.7565,9.1826,3.4783
375,0.843,-8.6604,-2.9123,9.6696,8.9739,5.9826
380,0.6514,-8.737,-2.5291,8.4174,8.2783,8.4174
385,0.3832,-8.9286,-2.6824,7.8609,7.6522,10.8522
390,0.2299,-9.2352,-2.7207,7.6522,7.3043,13.0783
395,0.115,-9.4651,-2.7974,7.4435,7.4435,15.0957
400,0.1916,-9.5034,-2.7974,7.2348,8.0,17.0435
405,0.1916,-9.7334,-2.6441,6.6783,9.113,18.5739
410,0.2299,-9.6184,-2.6824,6.1217,10.2957,19.8261
415,0.4982,-9.695,-2.6441,5.913,11.5478,20.9391
420,0.5365,-9.5801,-2.6441,6.4,12.8696,22.1217
425,0.6898,-9.3885,-2.5675,7.7913,14.1217,22.8174
430,0.7664,-9.3502,-2.3759,9.8087,15.6522,23.3739
435,0.7281,-9.0053,-2.1076,11.687,16.9739,23.8609
440,0.843,-8.8137,-2.2226,12.9391,18.2261,24.3478
445,0.843,-8.6604,-2.2226,13.287,19.3391,24.487
450,0.843,-8.5454,-2.2992,12.9391,20.3826,24.8348
455,0.5748,-8.3921,-2.2226,11.6174,21.4261,24.9043
460,0.5365,-8.2772,-2.1843,9.6696,22.5391,25.0435
465,0.3449,-8.2389,-2.1459,7.3739,23.5826,25.0435
470,0.1533,-8.2389,-2.2609,5.0087,24.487,25.113
475,0.115,-8.2772,-2.3375,2.9217,25.5304,25.0435
480,0.0,-8.3921,-2.1843,1.0435,26.2261,25.0435
485,-0.115,-8.4305,-2.2226,-0.4174,26.5739,25.1826
490,-0.115,-8.6604,-2.2609,-1.5304,26.8522,25.2522
495,-0.115,-8.3921,-2.0693,-2.1565,26.9913,25.4609
500,-0.1533,-8.3921,-2.1076,-2.7826,26.9913,25.5304
505,-0.0383,-8.3921,-2.1459,-3.4783,27.0609,25.6696
510,-0.0383,-8.5071,-1.9543,-4.6609,27.1304,25.6696
515,-0.115,-8.3538,-2.1459,-5.8435,27.1304,25.6
520,-0.1533,-8.3538,-1.9543,-7.0957,27.5478,25.6
525,-0.1533,-8.3538,-1.9543,-8.2783,28.1043,25.4609
530,-0.1533,-8.3921,-1.7627,-9.3913,28.8,24.9739
535,-0.115,-8.5071,-1.7627,-10.5043,29.4957,24.4174
540,-0.1533,-8.6221,-1.6095,-11.2,30.1217,23.6522
545,-0.2299,-8.7754,-1.8777,-11.687,30.3304,22.6783
550,-0.3066,-8.8137,-1.6095,-12.1739,30.4696,21.7739
555,-0.3066,-8.8137,-1.5711,-12.5217,30.6783,20.8
560,-0.4598,-8.8137,-1.6478,-12.9391,30.6783,19.7565
565,-0.4982,-8.852,-1.4945,-13.4261,30.5391,18.6435
570,-0.4215,-8.852,-1.4562,-13.6348,30.2609,17.4609
575,-0.4982,-8.852,-1.4945,-13.7043,30.0522,16.3478
580,-0.3066,-8.852,-1.2646,-13.7739,29.7043,15.0957
585,-0.3832,-8.6221,-1.3029,-13.7739,29.5652,13.7043
590,-0.3832,-8.6987,-1.1496,-13.7043,29.6348,12.5217
595,-0.2299,-8.6987,-1.1113,-13.6348,29.7739,11.3391
600,-0.2299,-8.3538,-1.073,-13.287,30.0522,10.2957
605,-0.115,-8.5454,-1.1113,-12.8,30.2609,9.4609
610,-0.2299,-8.5071,-0.8814,-12.6609,30.3304,8.8348
615,-0.1916,-8.2772,-0.9197,-12.7304,30.2609,8.2783
620,-0.1533,-8.3538,-1.1113,-13.0783,29.7739,8.0
625,-0.1533,-8.2772,-1.1496,-14.0522,29.3565,7.6522
630,-0.1916,-8.3538,-1.1496,-15.6522,28.9391,7.5826
635,-0.1916,-8.3921,-1.1496,-17.5304,28.6609,7.5826
640,-0.1533,-8.5838,-1.0346,-19.1304,28.8,7.3043
645,-0.1533,-8.737,-1.2263,-19.6174,28.8696,7.0261
650,-0.0766,-8.8137,-1.0346,-19.4087,29.1478,6.6783
655,-0.115,-8.852,-1.1113,-18.5043,29.3565,6.1913
660,-0.1533,-8.9286,-1.0346,-17.0435,29.4957,5.4957
665,-0.1533,-8.8903,-0.9197,-15.513,29.5652,4.8
670,-0.2299,-8.8903,-0.9963,-13.9826,29.5652,3.8261
675,-0.3449,-9.0436,-0.8047,-12.8,29.4261,2.8522
680,-0.5365,-9.0436,-0.7664,-11.7565,29.1478,2.1565
685,-0.6131,-8.9286,-0.7281,-10.7826,28.8,1.4609
690,-0.8814,-9.1202,-0.6898,-10.1565,28.3826,0.8348
695,-0.9197,-9.2352,-0.7664,-9.7391,27.8261,0.3478
700,-1.1113,-9.3502,-0.7664,-9.6696,26.9913,0.0
705,-1.1879,-9.4268,-0.843,-9.7391,26.087,-0.2087
710,-1.2646,-9.4268,-0.7664,-9.6,24.9739,-0.487
715,-1.5328,-9.5034,-0.9963,-9.5304,23.7217,-0.487
720,-1.4945,-9.5418,-1.1496,-9.6,22.5391,-0.487
725,-1.4562,-9.6567,-1.2263,-9.9478,21.3565,-0.2783
730,-1.4945,-9.5801,-1.2263,-10.4348,19.8957,0.0
735,-1.4179,-9.6184,-1.073,-10.9913,18.3652,0.2783
740,-1.1879,-9.6184,-1.3029,-11.2696,16.8348,0.5565
745,-0.958,-9.81,-1.2646,-11.3391,15.3043,0.7652
750,-0.8814,-9.7334,-1.1879,-10.9913,13.6348,1.0435
755,-0.7664,-9.7717,-1.2263,-10.3652,12.2435,1.2522
760,-0.3832,-9.8483,-1.1113,-9.5304,10.7826,1.6
765,-0.4982,-9.925,-1.1113,-8.5565,9.6,1.9478
770,-0.3832,-10.1166,-1.0346,-7.513,8.2783,2.2261
775,-0.4982,-10.2315,-0.958,-6.4696,7.2348,2.5043
780,-0.5365,-10.3848,-1.0346,-5.7739,6.3304,2.713
785,-0.6131,-10.4614,-1.0346,-5.3565,5.5652,3.0609
790,-0.8047,-10.4231,-0.9963,-5.1478,5.0087,3.3391
795,-0.843,-10.4998,-0.8814,-4.5217,4.3826,3.2696
800,-0.9197,-10.6914,-0.6131,-3.2696,3.7565,3.4087
805,-0.8814,-10.4998,-0.5748,-1.4609,2.9913,3.2696
810,-0.8814,-10.4614,-0.4982,0.8348,2.3652,3.2696
815,-0.843,-10.4231,-0.4598,3.2696,1.9478,3.3391
820,-0.6514,-10.4231,-0.0383,5.4261,1.8783,3.3391
825,-0.5365,-10.2315,-0.115,7.1652,2.2957,3.4087
830,-0.1533,-10.2698,-0.0383,8.487,2.8522,3.6174
835,-0.1533,-10.1549,0.0766,9.3217,3.7565,3.9652
840,-0.1533,-10.0782,-0.0383,9.6696,4.8,4.5913
845,-0.1533,-9.925,-0.2682,9.1826,5.8435,5.6348
850,-0.115,-10.0399,-0.3066,8.1391,7.0261,6.6783
855,0.0383,-10.0782,-0.8047,6.3304,8.4174,7.8609
860,-0.0766,-10.3465,-0.9963,4.313,10.087,8.8348
865,-0.2682,-10.4614,-1.3412,1.7391,11.687,10.087
870,-0.7281,-10.768,-1.8777,-2.087,12.4522,11.8957
875,-0.9963,-10.8446,-2.2992,-7.513,11.8957,13.9826
880,-1.7244,-11.1129,-2.7974,-13.9826,9.8087,16.9043
885,-2.1843,-11.4961,-3.1423,-20.3826,6.5391,19.6174
890,-2.2992,-11.841,-3.1423,-24.8348,2.7826,22.4
895,-2.5675,-12.2625,-2.9507,-26.6435,-0.8348,24.7652
900,-2.6824,-12.5691,-2.8357,-25.4609,-4.5913,26.713
905,-2.8357,-13.0289,-2.6441,-21.5652,-8.0696,28.5217
910,-2.7591,-13.1822,-2.1459,-15.4435,-12.5913,30.1217
915,-2.5291,-13.1055,-2.3759,-7.9304,-17.6696,31.6522
920,-2.2992,-13.1439,-2.4908,1.3913,-22.6087,32.9739
925,-1.6861,-12.9139,-2.6441,7.9304,-26.3652,34.1565
930,-1.1879,-12.6457,-3.2955,12.7304,-29.1478,34.6435
935,-0.4982,-12.2242,-3.8704,15.8609,-30.9565,34.5043
940,0.1533,-11.6877,-4.3302,18.2261,-31.3739,33.6696
945,0.8047,-11.1895,-4.8284,20.2435,-30.2609,32.2087
950,1.6478,-10.7297,-5.2499,21.7043,-27.2696,29.4261
955,2.3375,-10.0399,-5.5564,22.8174,-22.4696,25.3913
960,2.8357,-9.3118,-5.863,23.7217,-16.0696,20.5217
965,3.1423,-8.5071,-5.9013,24.3478,-8.3478,15.6522
970,3.1806,-8.0473,-5.9013,24.3478,-0.0696,10.2261
975,3.2189,-7.9323,-5.5948,22.887,8.4174,5.0783
980,3.0273,-7.3958,-5.2499,20.6609,16.487,0.7652
985,2.7591,-7.3192,-4.8667,17.8783,23.2348,-2.3652
990,2.6058,-7.3192,-4.4452,15.1652,28.5217,-4.2435
995,2.4525,-7.5491,-3.9853,12.8696,32.0696,-5.3565
1000,2.1843,-7.5874,-3.5638,11.3391,34.0174,-5.7043
1005,1.7244,-7.7024,-3.4871,10.5739,34.6435,-5.287
1010,1.1879,-7.8557,-3.2955,9.9478,34.0174,-4.1739
1015,0.7664,-7.9323,-3.5638,9.1826,32.2783,-2.1565
1020,0.4215,-8.1622,-3.4488,8.0696,29.4957,0.1391
1025,0.0,-8.2772,-3.3339,7.0261,25.8783,2.4348
1030,-0.3449,-8.1239,-3.6021,6.3304,21.5652,4.5217
1035,-0.8814,-8.3155,-3.2955,6.1217,17.0435,5.9826
1040,-1.1879,-8.4305,-3.2189,6.3304,12.3826,6.7478
1045,-1.5328,-8.5071,-3.0273,6.8174,7.6522,6.9565
1050,-1.7244,-8.3921,-3.0656,8.0,3.4087,6.1913
1055,-1.8011,-8.6221,-2.9123,9.6,-0.0696,4.8696
1060,-1.8777,-8.5454,-2.989,11.4783,-2.6435,3.1304
1065,-1.8011,-8.6604,-3.0273,13.2174,-4.4522,0.7652
1070,-1.8011,-8.852,-2.7974,14.4696,-5.6348,-2.0174
1075,-1.4945,-8.852,-2.874,15.0957,-6.2609,-5.1478
1080,-1.0346,-9.1202,-2.9123,15.5826,-6.6783,-8.6261
1085,-1.0346,-8.967,-2.874,15.5826,-7.3043,-12.1043
1090,-0.7664,-9.1969,-2.9123,15.3043,-7.8609,-15.3739
1095,-0.4598,-9.1969,-3.0656,14.3304,-8.3478,-18.5739
1100,-0.3832,-9.2352,-2.9123,12.7304,-8.8348,-21.4261
1105,-0.115,-9.2352,-2.989,11.0609,-9.5304,-23.7913
1110,-0.0766,-9.1969,-2.8357,9.6,-10.5043,-25.6696
1115,0.0383,-9.1586,-2.7591,8.6261,-11.687,-27.2
1120,0.0,-9.0436,-2.6824,8.0,-13.0783,-28.1739
1125,0.1533,-8.6221,-2.7974,7.4435,-14.4,-28.6609
1130,-0.0383,-8.5454,-2.7974,6.4696,-15.6522,-28.5217
1135,0.0766,-8.4305,-2.7591,5.287,-17.0435,-27.9652
1140,0.2299,-8.1622,-2.7207,3.9652,-18.2957,-27.1304
1145,-0.0766,-7.8557,-2.7591,2.5739,-19.6174,-26.3652
1150,0.0,-7.8173,-2.7207,0.9739,-20.7304,-25.4609
1155,-0.0383,-7.7407,-2.7591,-0.5565,-21.7043,-24.5565
1160,0.0766,-7.7024,-2.7207,-2.1565,-22.5391,-23.6522
1165,0.0383,-7.6257,-2.6441,-3.3391,-22.887,-23.1652
1170,-0.0383,-7.5108,-2.7207,-4.4522,-23.0957,-23.0261
1175,0.1916,-7.6641,-2.4908,-5.7043,-23.0957,-23.0261
1180,0.2682,-7.5874,-2.6824,-6.9565,-23.2348,-23.3739
1185,0.4598,-7.8173,-2.4525,-8.9043,-23.3043,-23.7913
1190,0.6898,-7.894,-2.1843,-11.1304,-23.5826,-24.2783
1195,0.5748,-7.894,-2.2609,-13.913,-24.0,-24.7652
1200,0.7281,-7.9323,-2.3375,-16.7652,-24.6957,-25.1826
1205,0.7281,-7.8557,-2.4142,-19.4087,-25.2522,-25.6
1210,0.7664,-8.0473,-2.3375,-21.8435,-25.7391,-25.8783
1215,0.8047,-8.0089,-2.3759,-23.9304,-25.9478,-26.0174
1220,0.7281,-8.1622,-2.3759,-25.2522,-25.8783,-26.087
1225,0.8047,-8.2389,-2.1843,-25.8783,-25.6696,-26.0174
1230,0.843,-8.2389,-2.3759,-25.6696,-25.6696,-25.8783
1235,0.6514,-8.4305,-2.4525,-24.2783,-25.5304,-25.6
1240,0.6514,-8.7754,-2.2992,-22.1217,-25.5304,-25.2522
1245,0.4982,-9.0053,-2.2226,-19.5478,-25.4609,-24.5565
1250,0.4598,-8.7754,-2.2226,-16.6261,-25.4609,-23.6522
1255,0.5748,-8.852,-2.1076,-13.3565,-25.6696,-22.6087
1260,0.5748,-8.9286,-1.9927,-9.9478,-25.9478,-21.4261
1265,0.5365,-9.1586,-2.1459,-5.9826,-26.4348,-20.0348
1270,0.5748,-9.0053,-1.916,-1.8783,-26.9913,-18.3652
1275,0.6514,-9.0819,-1.916,1.8783,-27.4087,-16.8348
1280,0.6131,-8.9286,-1.916,5.287,-27.8261,-15.4435
1285,0.5748,-8.8137,-1.916,8.0696,-27.9652,-13.9826
1290,0.4982,-8.5838,-2.031,10.4348,-28.0348,-12.6609
1295,0.7281,-8.4305,-1.8011,12.1739,-27.7565,-11.6174
1300,0.7281,-8.1622,-1.6095,13.7043,-27.2,-10.8522
1305,0.6898,-8.1239,-1.8394,14.1217,-26.3652,-10.0174
1310,0.8047,-8.1239,-1.8011,13.7043,-25.3913,-9.3217
1315,0.6131,-7.9706,-1.4945,13.0087,-24.5565,-8.9043
1320,0.8047,-8.1239,-1.4945,11.9652,-23.8609,-8.4174
1325,0.6514,-7.9706,-1.3412,10.8522,-23.4435,-8.1391
1330,0.6514,-8.0473,-1.3029,9.7391,-23.6522,-7.7217
1335,0.4215,-8.1239,-1.1496,8.6261,-24.0696,-7.513
1340,0.3832,-8.2389,-1.3412,7.6522,-24.8348,-7.0957
1345,0.3449,-8.3155,-1.2263,6.8174,-25.8087,-6.2609
1350,0.3449,-8.2772,-1.1879,6.1217,-26.5739,-5.4957
1355,0.115,-8.1622,-1.2646,5.4957,-26.9913,-4.5217
1360,0.2299,-8.4305,-1.3029,4.8696,-26.7826,-3.5478
1365,0.3066,-8.5454,-1.3029,4.8,-26.2957,-2.713
1370,0.2682,-8.5454,-1.3029,4.8696,-25.5304,-2.0174
1375,0.4215,-8.6987,-1.2646,4.8696,-24.9739,-1.5304
1380,0.4982,-8.8137,-1.2646,4.8,-24.6261,-0.9739
1385,0.6898,-8.9286,-1.1496,4.3826,-24.6261,-0.8348
1390,0.843,-9.1202,-1.2646,3.8261,-24.5565,-0.8348
1395,0.9197,-9.2735,-1.1113,2.713,-24.4174,-0.9043
1400,1.1113,-9.3502,-1.0346,1.7391,-23.8609,-1.0435
1405,1.2263,-9.4651,-0.958,0.6957,-23.1652,-1.3217
1410,1.1113,-9.5801,-1.073,-0.0696,-22.4696,-1.8087
1415,1.2263,-9.7334,-1.1113,-0.6261,-21.913,-2.5739
1420,1.1496,-9.695,-1.1496,-0.9739,-21.1478,-3.1304
1425,1.2263,-9.9633,-1.1879,-1.113,-20.2435,-3.687
1430,1.1496,-10.0782,-1.3412,-0.9043,-18.7826,-4.1739
1435,1.2263,-10.4998,-1.2263,-0.0696,-16.6261,-4.313
1440,1.1113,-10.5381,-1.1496,1.113,-13.913,-4.6609
1445,1.3412,-10.883,-1.0346,2.5739,-10.9217,-4.9391
1450,1.2263,-10.9979,-0.7664,4.3826,-8.2087,-5.287
1455,1.1879,-10.9213,-0.8814,6.5391,-5.7043,-5.7043
1460,1.3029,-10.8446,-0.6514,8.5565,-3.6174,-6.1217
1465,1.6095,-10.8446,-0.8814,10.0174,-1.6696,-6.6087
1470,1.4945,-10.8446,-0.4982,11.1304,-0.2087,-7.0261
1475,1.4945,-10.4614,-0.4598,11.687,0.8348,-7.7217
1480,1.3795,-10.4231,-0.2682,11.8957,1.6,-8.1391
1485,1.4179,-10.4614,0.1533,12.313,2.0174,-8.6261
1490,1.2646,-10.4231,0.3066,12.7304,2.2957,-9.1826
1495,1.073,-10.3848,0.5365,13.4261,2.6435,-9.6
1500,0.843,-10.4614,0.8047,14.5391,2.8522,-9.8087
1505,0.6898,-10.4614,0.843,15.4435,3.0609,-10.087
1510,0.3832,-10.4614,0.6514,16.0,3.5478,-10.087
1515,0.4598,-10.3465,0.2682,15.513,4.1739,-10.087
1520,0.3449,-10.2315,-0.4215,13.2174,5.0783,-10.0174
1525,0.4982,-10.3465,-1.2646,9.113,6.0522,-10.1565
1530,0.4598,-10.6147,-1.916,3.4087,7.2348,-10.2261
1535,0.5365,-10.8063,-2.4525,-3.687,8.2087,-10.7826
1540,0.6514,-11.0746,-3.1039,-12.1739,8.3478,-12.2435
1545,0.8047,-11.3811,-4.062,-22.2609,7.513,-14.2609
1550,1.073,-11.7643,-4.2536,-32.5565,6.6783,-16.9739
1555,1.7627,-12.1859,-4.2919,-40.5565,6.3304,-20.4522
1560,2.4525,-12.684,-3.9853,-43.4783,7.2348,-24.5565
1565,3.4105,-13.1822,-3.5638,-40.5565,9.8783,-29.0783
1570,4.2536,-13.7953,-2.9123,-33.1826,13.9826,-34.0174
1575,4.3685,-13.872,-2.989,-23.513,19.4783,-38.9565
1580,4.4452,-13.9103,-3.2189,-13.2174,26.713,-43.0609
1585,4.3302,-13.642,-3.4871,-3.9652,35.0609,-46.0522
1590,3.7937,-13.1822,-4.062,3.6174,43.8261,-47.7217
1595,3.0656,-12.6074,-4.6368,9.8087,51.7565,-47.9304
1600,2.4908,-12.1859,-5.0966,15.0957,57.8783,-46.4696
1605,1.5328,-11.5727,-5.2882,19.8957,61.9826,-44.0348
1610,1.0346,-11.1895,-5.4032,24.1391,63.5826,-40.2783
1615,0.0766,-10.3465,-5.1732,27.9652,62.6783,-35.8261
1620,-0.958,-9.695,-5.1732,31.3739,58.1565,-30.7478
1625,-1.8394,-8.6604,-5.0966,33.9478,49.8087,-25.1826
1630,-2.7207,-8.0856,-5.1349,34.9913,37.2174,-18.8522
1635,-3.3722,-7.2809,-5.2116,34.0174,21.913,-12.0348
1640,-3.4871,-6.7444,-5.1732,31.0957,6.5391,-4.8
1645,-3.2955,-6.6677,-5.4032,26.3652,-6.6783,1.8783
1650,-3.3339,-6.5528,-5.2116,20.0348,-16.8348,8.0
1655,-2.989,-6.7827,-5.1732,12.5913,-24.0,11.8957
1660,-2.6058,-7.2425,-4.905,5.287,-28.8696,14.7478
1665,-2.031,-7.779,-4.8284,-0.9043,-32.487,16.3478
1670,-1.4179,-8.5454,-4.8284,-5.0087,-32.9739,16.5565
1675,-0.5365,-9.0819,-4.9816,-6.9565,-30.7478,15.0957
1680,-0.115,-9.5034,-4.8284,-7.0957,-26.2957,12.5913
1685,0.5748,-9.81,-4.7134,-5.4261,-20.8,9.113
1690,1.1496,-9.925,-4.4452,-2.2957,-15.0957,5.4261
1695,1.7627,-9.8866,-4.1386,2.713,-10.0174,2.1565
1700,2.2226,-9.6567,-3.947,9.3913,-6.0522,-0.3478
1705,2.5291,-9.0819,-3.947,16.9739,-2.5043,-2.0174
1710,2.8357,-8.4688,-4.1003,24.1391,0.9739,-2.5043
1715,3.2572,-8.0473,-3.947,29.7739,4.5913,-2.1565
1720,3.2955,-7.3958,-3.9853,32.8348,7.7913,-0.8348
1725,3.1423,-7.1276,-3.9087,33.4609,10.4348,1.3913
1730,2.874,-6.7061,-3.0656,31.9304,12.313,4.313
1735,2.4908,-6.5145,-3.4871,28.5913,13.5652,7.513
1740,2.1843,-6.5911,-3.2955,24.2087,14.6087,11.1304
1745,1.5328,-6.8593,-3.1423,19.0609,15.6522,14.9565
1750,1.1496,-7.2042,-3.0273,13.6348,16.3478,18.713
1755,0.7664,-7.5491,-3.0273,8.2783,16.5565,21.913
1760,0.3066,-8.1239,-3.0273,3.2696,16.2783,24.9043
1765,0.0,-8.6221,-3.0273,-0.6957,15.8609,27.5478
1770,-0.0766,-8.8903,-2.9507,-3.687,15.5826,29.9826
1775,-0.0766,-9.1586,-2.9123,-5.287,15.513,31.5826
1780,-0.115,-9.2352,-2.989,-5.7739,15.7217,32.5565
1785,0.0383,-9.3118,-2.874,-5.4261,16.0696,33.113
1790,0.1533,-8.967,-2.989,-4.2435,16.7652,32.9739
1795,0.3449,-8.967,-2.874,-2.4348,17.8087,32.7652
1800,0.5365,-8.6221,-2.8357,0.2087,18.9913,32.0696
1805,0.6514,-8.2772,-2.874,3.1304,20.2435,31.3043
1810,0.7281,-8.0089,-2.7974,5.8435,21.7043,30.4
1815,0.843,-7.6257,-2.7591,7.6522,23.0261,29.4261
1820,0.8814,-7.5491,-2.7591,8.2087,24.0,28.5913
1825,0.6514,-7.4341,-2.7974,7.2348,24.9043,27.8957
1830,0.4215,-7.2809,-2.9507,5.0783,25.7391,27.6174
1835,0.3066,-7.3958,-2.8357,1.9478,26.3652,27.3391
1840,-0.0383,-7.779,-2.989,-1.6,27.2696,27.0609
1845,-0.115,-7.7407,-2.7591,-4.5913,28.1739,26.9913
1850,-0.1916,-8.0089,-2.6058,-6.6783,29.287,26.8522
1855,-0.3832,-8.1622,-2.4908,-7.7217,30.0522,26.5739
1860,-0.5748,-8.2772,-2.3759,-7.9304,30.7478,26.3652
1865,-0.6898,-8.2389,-2.3759,-7.6522,30.887,25.9478
1870,-0.8814,-8.2772,-2.2609,-7.0957,30.6087,25.5304
1875,-0.7664,-8.3155,-2.2609,-6.3304,29.9826,25.3217
1880,-0.843,-8.2389,-2.2226,-5.5652,28.8696,25.0435
1885,-0.4982,-8.3538,-2.2609,-4.7304,27.7565,24.9043
1890,-0.5748,-8.3921,-2.1459,-3.9652,26.5043,24.6957
1895,-0.5365,-8.2389,-2.2226,-3.3391,25.6696,24.3478
1900,-0.3832,-8.4305,-2.1459,-2.5739,25.1826,23.7913
1905,-0.2682,-8.5454,-2.0693,-1.8783,25.113,23.0957
1910,-0.3066,-8.8137,-1.8011,-1.3217,25.2522,22.1913
1915,-0.3066,-8.6987,-1.7627,-0.7652,25.2522,20.9391
1920,-0.2299,-8.8137,-2.1459,-0.3478,24.9043,19.4783
1925,-0.3832,-9.0053,-1.9927,0.0,24.0,17.8087
1930,-0.4982,-8.852,-1.9927,-0.0696,22.887,16.3478
1935,-0.4598,-9.1969,-1.9543,-0.2783,21.7739,14.7478
1940,-0.5365,-9.1969,-1.8011,-0.3478,21.1478,13.5652
1945,-0.6131,-9.0819,-2.031,-0.2087,20.9391,12.1043
1950,-0.6131,-8.852,-1.7244,0.0,20.8696,10.8522
1955,-0.6514,-8.6604,-1.7244,0.1391,20.8696,9.4609
1960,-0.6131,-8.5838,-1.7244,0.4174,20.6609,8.3478
1965,-0.6131,-8.3155,-1.6478,0.8348,20.3826,7.513
1970,-0.4982,-8.1622,-1.5328,0.9739,19.9652,6.5391
1975,-0.4982,-8.1239,-1.5711,0.6957,19.4783,5.8435
1980,-0.3449,-8.0473,-1.4179,0.2783,18.9913,5.2174
1985,-0.3066,-8.0473,-1.3412,-0.2087,18.1565,4.5913
1990,-0.2682,-8.0089,-1.073,-0.487,17.3913,4.0348
1995,-0.2682,-8.2005,-0.9197,-0.6261,16.6957,3.5478
2000,-0.1916,-8.2389,-0.8814,-0.6957,16.0,2.9913
2005,-0.3449,-8.3538,-1.0346,-1.0435,15.513,2.4348
2010,-0.1916,-8.3921,-0.9197,-1.6696,15.2348,2.0174
2015,-0.1533,-8.5838,-1.073,-2.3652,15.1652,1.5304
2020,-0.1533,-8.5838,-1.0346,-2.9913,15.0957,0.8348
2025,-0.1533,-8.6987,-1.1113,-3.5478,15.1652,0.2087
2030,-0.2682,-8.5071,-1.2646,-4.1739,15.4435,-0.487
2035,-0.2299,-8.6987,-1.3795,-4.5913,16.0,-1.113
2040,-0.3832,-8.6604,-1.2263,-5.3565,16.9043,-1.8783
2045,-0.4215,-8.6987,-1.1496,-6.1217,17.6696,-2.5043
2050,-0.5365,-8.852,-1.3029,-6.9565,18.6435,-2.9913
2055,-0.4598,-8.967,-1.1113,-7.9304,19.4087,-3.3391
2060,-0.1533,-8.9286,-1.1113,-8.2783,19.8261,-3.6174
2065,-0.5365,-9.1202,-1.073,-8.0,19.6174,-3.687
2070,-0.5748,-9.2735,-1.073,-7.513,19.3391,-3.6174
2075,-0.5748,-9.4651,-1.1496,-6.7478,19.1304,-3.4087
2080,-0.5748,-9.5418,-1.3412,-5.9826,19.1304,-2.9913
2085,-0.4215,-9.81,-1.3029,-5.3565,19.1304,-2.3652
2090,-0.4982,-10.0782,-1.3029,-5.0087,19.4783,-1.6
2095,-0.4598,-10.2315,-1.2646,-4.2435,19.9652,-0.7652
2100,-0.2299,-10.4998,-1.1879,-3.2696,20.5913,0.2087
2105,-0.3066,-10.768,-1.2646,-1.4609,21.1478,0.9043
2110,-0.2682,-11.0363,-1.4945,0.7652,21.3565,1.5304
2115,-0.2682,-11.1512,-1.1113,3.2696,21.1478,2.087
2120,-0.2299,-11.2279,-1.1879,5.7043,20.6609,2.2957
2125,-0.3449,-11.3045,-1.1496,8.0,19.9652,2.5739
2130,-0.3066,-11.1129,-1.2263,9.9478,19.0609,2.6435
2135,-0.4598,-11.0746,-1.2646,11.3391,18.3652,2.7826
2140,-0.5748,-11.0746,-1.1113,12.2435,18.0174,2.7826
2145,-0.7281,-10.653,-0.8814,12.8696,17.7391,2.8522
2150,-0.9963,-10.5764,-0.6131,13.4261,17.1826,2.9217
2155,-0.9963,-10.4614,-0.4598,14.1217,16.487,3.0609
2160,-1.0346,-10.3848,-0.4215,14.8174,15.6522,3.4783
2165,-1.3029,-10.2698,-0.115,15.3739,14.7478,4.0348
2170,-1.1496,-10.1932,0.115,15.6522,13.7739,4.5913
2175,-1.1496,-10.1166,0.2299,15.5826,12.9391,5.3565
2180,-1.1113,-10.0016,0.4215,15.0261,12.2435,6.3304
2185,-0.8814,-9.925,0.6131,14.2609,11.8957,7.3043
2190,-0.6131,-9.9633,0.4598,13.4261,11.7565,8.1391
2195,-0.1533,-10.0016,0.4982,12.4522,12.0348,9.113
2200,-0.1533,-10.0782,0.1916,11.3391,12.8696,9.8087
2205,0.0766,-10.1166,-0.0766,9.8087,13.9826,10.5043
2210,-0.0766,-10.3082,-0.8814,6.9565,15.3739,11.2696
2215,-0.3832,-10.5381,-1.8394,2.4348,16.8348,12.1739
2220,-0.8814,-10.653,-2.4908,-3.8957,17.7391,13.0783
2225,-1.2263,-10.883,-2.874,-10.5739,17.2522,14.1217
2230,-1.916,-11.1512,-3.1806,-16.4174,15.0261,15.1652
2235,-2.7207,-11.4195,-3.4488,-20.7304,10.8522,16.9043
2240,-3.5255,-11.5344,-3.4105,-23.6522,4.1043,19.4087
2245,-3.9087,-11.726,-3.3339,-25.5304,-5.3565,22.1217
2250,-4.4068,-12.1092,-3.1423,-25.4609,-16.2783,25.1826
2255,-4.4835,-12.4924,-2.874,-22.8174,-26.9217,28.3826
2260,-4.5601,-12.8373,-2.874,-17.8783,-36.5913,31.7913
2265,-4.3685,-12.9906,-3.2189,-12.5217,-45.0783,35.4783
2270,-4.3302,-13.0672,-3.8704,-8.1391,-52.3826,39.513
2275,-3.4871,-13.0289,-4.5601,-5.4957,-58.2957,42.713
2280,-2.6441,-12.9906,-5.1732,-3.5478,-62.6087,44.5913
2285,-1.6861,-12.9139,-5.5948,-1.3217,-64.8348,45.1478
2290,-0.6898,-12.7607,-5.978,2.2261,-65.2522,44.3826
2295,0.0383,-12.5691,-6.2462,7.1652,-64.2087,42.3652
2300,0.9197,-12.2242,-6.6294,12.7304,-61.5652,39.0261
2305,1.9543,-11.7643,-6.821,18.7826,-57.3913,34.7826
2310,2.989,-10.9979,-6.8593,24.3478,-51.8957,29.7043
2315,3.4488,-10.2315,-6.5528,29.0087,-44.8696,24.3478
2320,4.062,-9.3118,-6.4378,31.9304,-36.8,18.5043
2325,4.2536,-8.0856,-6.1696,32.5565,-28.3826,12.3826
2330,4.4452,-7.8173,-5.6714,30.887,-19.6174,6.5391
2335,4.2152,-7.3958,-5.2882,27.4087,-11.0609,1.3217
2340,4.062,-7.0893,-5.1732,22.9565,-2.7826,-2.6435
2345,3.5638,-7.0126,-4.905,18.0174,4.8,-5.4261
2350,3.3339,-7.0509,-4.5984,13.287,11.3391,-7.3043
2355,2.989,-7.2809,-4.2919,9.3217,16.1391,-8.9043
2360,2.4525,-7.3575,-4.1003,6.3304,18.9913,-9.8783
2365,2.031,-7.5491,-3.947,4.6609,19.7565,-10.713
2370,1.2646,-7.8173,-3.8704,4.0348,19.0609,-10.7826
2375,0.5748,-8.0473,-3.832,3.7565,17.1826,-10.5739
2380,-0.0383,-8.5838,-3.8704,4.0348,14.6087,-9.9478
2385,-0.5748,-8.7754,-3.6787,4.2435,11.9652,-8.9043
2390,-0.9963,-8.9286,-3.4488,4.7304,9.5304,-8.0696
2395,-1.4945,-9.1969,-3.2955,5.7739,7.0957,-7.3043
2400,-1.8777,-9.0436,-3.1423,7.7217,4.5913,-6.9565
2405,-2.0693,-9.1586,-2.989,11.1304,1.6,-6.9565
2410,-2.2226,-8.9286,-2.9507,14.887,-1.6,-7.5826
2415,-2.2992,-8.852,-3.1039,18.087,-4.5913,-8.7652
2420,-2.3759,-8.6604,-3.4105,19.8957,-6.887,-9.8783
2425,-2.2992,-8.5454,-3.5255,20.2435,-8.0,-11.1304
2430,-2.0693,-8.3921,-3.7171,19.4783,-8.2783,-12.313
2435,-1.6861,-8.3538,-3.5255,18.2957,-7.7217,-13.5652
2440,-1.3029,-8.2005,-3.4105,16.8348,-7.0957,-14.8174
2445,-0.9197,-8.2772,-3.2189,16.0,-6.6087,-16.3478
2450,-0.4598,-8.2389,-2.989,15.4435,-6.4,-18.087
2455,-0.1533,-8.1622,-2.8357,14.9565,-6.1913,-19.687
2460,0.1533,-8.3155,-2.6441,14.887,-5.9826,-21.4261
2465,0.4982,-8.2389,-2.5675,15.0261,-6.0522,-23.2348
2470,0.6131,-8.2005,-2.2226,14.9565,-6.2609,-25.0435
2475,0.6514,-8.0473,-2.4908,14.9565,-6.4696,-26.2957
2480,0.6514,-7.894,-2.4525,14.4,-6.6783,-26.9913
2485,0.4982,-7.9323,-2.6441,13.2174,-6.887,-27.0609
2490,0.3066,-7.779,-2.5675,11.2,-7.2348,-26.5043
2495,0.1533,-7.8173,-2.5291,8.4174,-7.7913,-25.6
2500,-0.0766,-7.6641,-2.6824,4.7304,-8.6957,-24.4174
2505,-0.1533,-7.7024,-2.6441,0.7652,-10.0174,-23.0261
2510,-0.4215,-7.7407,-2.6058,-3.3391,-11.4783,-21.9826
2515,-0.4598,-7.8173,-2.7207,-6.887,-13.2174,-21.0783
2520,-0.4598,-7.7407,-2.5675,-10.087,-14.9565,-20.6609
2525,-0.4982,-7.7024,-2.6441,-12.6609,-16.6261,-20.6609
2530,-0.4215,-7.9323,-2.6058,-14.8174,-18.5043,-21.287
2535,-0.1533,-7.8173,-2.4908,-16.7652,-19.8957,-21.7739
2540,-0.1533,-7.8557,-2.6058,-18.6435,-21.0783,-22.9565
2545,-0.0383,-8.0089,-2.3759,-20.6609,-21.8435,-24.0
2550,0.3066,-7.9706,-2.3759,-22.6783,-22.3304,-25.3913
2555,0.4598,-8.0473,-2.3759,-24.9043,-22.6783,-26.5739
2560,0.7281,-8.0089,-2.4908,-27.4087,-23.1652,-27.687
2565,0.7281,-8.0473,-2.4908,-30.1217,-23.6522,-28.4522
2570,0.958,-8.1622,-2.3375,-32.6261,-24.2783,-28.9391
2575,1.073,-8.3538,-2.3375,-34.2261,-25.0435,-29.287
2580,0.9963,-8.3921,-2.1843,-34.6435,-25.5304,-29.1478
2585,1.0346,-8.6221,-2.1843,-33.8783,-25.6696,-28.7304
2590,0.8814,-8.6221,-2.3375,-32.2087,-25.5304,-27.8957
2595,0.7281,-8.737,-1.9927,-30.0522,-25.0435,-26.5043
2600,0.6131,-8.852,-2.1459,-27.3391,-24.3478,-24.9739
2605,0.4982,-8.6604,-2.2226,-24.3478,-23.6522,-23.2348
2610,0.2299,-8.6604,-2.1459,-21.287,-22.887,-21.287
2615,0.3066,-8.6221,-2.1843,-18.2957,-22.1217,-19.3391
2620,0.1533,-8.4305,-2.1843,-15.1652,-21.4957,-17.4609
2625,0.1916,-8.4305,-2.2609,-12.7304,-21.1478,-16.0
2630,0.1916,-8.0856,-2.2609,-10.9913,-20.6609,-14.6783
2635,0.115,-8.2389,-2.4142,-10.2957,-20.0348,-13.4957
2640,0.2682,-8.0473,-2.4142,-10.6435,-19.3391,-12.5913
2645,0.3066,-8.0473,-2.5675,-11.8957,-18.3652,-11.8261
2650,0.3449,-7.7407,-2.7207,-13.5652,-17.5304,-11.0609
2655,0.3832,-7.9323,-2.4525,-15.0957,-16.9043,-10.5043
2660,0.4215,-8.0856,-1.9927,-16.2087,-16.3478,-9.8783
2665,0.4598,-7.9323,-2.2226,-16.3478,-15.7217,-9.3913
2670,0.4215,-8.0089,-2.1459,-16.0,-15.0957,-9.0435
2675,0.4598,-7.9323,-2.2609,-15.3739,-14.1913,-8.6957
2680,0.2682,-7.8173,-1.9543,-14.6783,-13.287,-8.2087
2685,0.3832,-7.7407,-2.0693,-14.1913,-12.3826,-7.7217
2690,0.4215,-7.6641,-2.2992,-13.8435,-11.687,-7.1652
2695,0.3832,-7.7024,-2.031,-14.0522,-11.2,-6.6087
2700,0.3449,-7.7024,-2.1459,-14.8174,-10.6435,-6.1217
2705,0.2299,-7.5491,-2.1843,-15.7217,-9.9478,-5.6348
2710,0.3066,-7.894,-2.2609,-16.8348,-9.0435,-5.0783
2715,0.3449,-7.894,-2.1076,-17.8783,-8.0696,-4.3826
2720,0.4215,-8.0473,-2.1076,-18.5739,-7.2348,-3.7565
2725,0.4598,-8.1622,-2.1459,-18.6435,-6.2609,-3.0609
2730,0.6514,-8.3538,-2.3759,-18.2261,-5.3565,-2.5043
2735,0.6898,-8.4688,-2.2226,-17.5304,-4.8696,-2.1565
2740,0.7281,-8.852,-2.2226,-16.4174,-4.6609,-1.9478
2745,0.9963,-8.8903,-2.031,-15.1652,-4.7304,-1.9478
2750,0.9963,-8.9286,-2.1076,-13.7739,-5.0783,-2.1565
2755,0.958,-9.1969,-2.031,-12.2435,-5.7043,-2.3652
2760,1.0346,-9.0819,-1.9543,-10.8522,-6.3304,-2.9217
2765,1.1113,-9.3885,-1.9543,-9.5304,-6.6783,-3.2696
2770,1.1113,-9.3885,-1.9927,-8.4174,-6.9565,-3.687
2775,0.843,-9.2352,-1.9543,-7.5826,-7.0957,-3.9652
2780,0.9197,-9.2352,-2.0693,-6.9565,-7.0261,-4.2435
2785,0.7281,-9.1202,-2.1076,-6.8174,-6.9565,-4.2435
2790,0.6131,-9.2352,-2.1076,-6.7478,-6.4,-4.1043
2795,0.6898,-9.0819,-2.2609,-7.0957,-5.4957,-3.7565
2800,0.5365,-9.0053,-2.3759,-7.9304,-4.0348,-3.4087
2805,0.4982,-8.8903,-2.3759,-9.113,-2.3652,-3.2
2810,0.5748,-9.0819,-2.4908,-10.7826,-0.0696,-3.0609
2815,0.3832,-9.0819,-2.1843,-12.5913,1.5304,-3.1304
2820,0.6131,-9.0053,-2.3759,-14.1217,2.713,-3.1304
2825,0.5748,-9.1202,-2.2992,-15.1652,3.687,-3.2
2830,0.6898,-9.4651,-2.1459,-15.8609,4.5217,-3.4087
2835,0.7281,-9.6184,-2.1459,-16.2087,5.4261,-3.8261
2840,0.6514,-9.81,-2.1076,-16.4174,6.4,-4.3826
2845,0.8814,-10.1166,-1.916,-17.0435,7.0957,-4.8
2850,0.6514,-10.3465,-1.9543,-18.2261,7.3739,-5.287
2855,0.6898,-10.6914,-1.9927,-19.2696,7.0957,-6.0522
2860,0.5748,-11.0746,-1.7627,-20.0348,6.1217,-6.6783
2865,0.3832,-11.4578,-1.7244,-19.9652,4.6609,-7.7217
2870,0.4215,-11.726,-1.5328,-19.0609,3.2696,-8.7652
2875,-0.0383,-12.1475,-1.4945,-17.4609,2.2957,-10.0174
2880,-0.1533,-12.3008,-1.1879,-15.1652,1.9478,-11.2696
2885,-0.2682,-12.5691,-1.0346,-12.313,1.7391,-12.8
2890,-0.2682,-12.6074,-0.9197,-9.6,1.3217,-14.1913
2895,-0.4982,-12.7223,-0.843,-7.0261,0.1391,-15.6522
2900,-0.5365,-12.7607,-0.5748,-4.7304,-1.8783,-17.2522
2905,-0.5365,-12.684,-0.4982,-2.7826,-4.5913,-18.8522
2910,-0.4598,-12.7223,-0.3832,-0.9739,-7.5826,-20.0348
2915,-0.1916,-12.5691,-0.3832,0.9739,-10.0174,-21.287
2920,-0.1533,-12.3391,-0.0383,2.9913,-11.6174,-22.2609
2925,0.115,-12.3391,0.0,5.1478,-12.313,-22.9565
2930,0.2299,-11.9943,0.0383,7.0261,-12.313,-23.7913
2935,0.5365,-11.6877,0.0383,8.7652,-11.7565,-24.5565
2940,0.9197,-11.4961,0.1916,10.5043,-10.087,-24.8348
2945,1.3029,-11.3428,0.0383,12.3826,-7.0261,-24.7652
2950,1.6861,-11.1895,-0.0766,13.913,-2.2261,-24.6957
2955,2.031,-11.0746,-0.3449,14.887,3.4087,-24.9739
2960,2.6058,-10.9213,-0.6898,14.1217,9.1826,-25.6696
2965,2.6441,-10.9213,-1.5711,11.2,14.1217,-26.9913
2970,2.6058,-10.883,-2.2992,5.913,16.9043,-28.5913
2975,2.8357,-10.768,-3.1806,-1.3217,16.6957,-30.0522
2980,2.7207,-10.7297,-3.4871,-9.7391,14.5391,-31.0957
2985,2.7974,-10.9979,-3.9087,-17.8087,12.3826,-31.7217
2990,2.7974,-10.9979,-4.4835,-24.8348,11.9652,-32.0
2995,2.7591,-10.883,-4.9433,-29.5652,13.287,-32.1391
