timestamp,accX,accY,accZ,gyroX,gyroY,gyroZ
0,1.4179,-8.5071,-10.9213,-175.3739,15.2348,-15.7913
5,1.4945,-8.8903,-11.1895,-171.7565,14.6087,-21.4261
10,1.6478,-9.1202,-11.6494,-162.1565,13.4957,-26.2261
15,1.7244,-9.2735,-11.6877,-149.8435,12.4522,-30.6783
20,1.6095,-9.3118,-11.9559,-133.4957,11.2696,-34.087
25,1.6478,-9.1586,-11.9176,-114.9913,10.3652,-35.9652
30,1.3795,-9.3118,-11.7643,-95.4435,9.7391,-36.4522
35,1.3029,-9.1969,-11.9559,-75.687,8.2087,-35.2696
40,0.9197,-9.0436,-11.9176,-56.9739,6.9565,-32.9739
45,1.073,-8.9286,-11.9943,-40.0696,4.5913,-30.5391
50,0.9197,-8.6987,-12.0709,-26.2261,2.5739,-27.5478
55,0.9197,-8.5454,-12.1092,-15.7913,0.0696,-23.513
60,0.8047,-8.1239,-12.1475,-7.7913,-2.4348,-18.7826
65,0.6898,-7.9323,-12.1859,-1.1826,-4.0348,-13.913
70,0.7281,-7.6257,-12.1092,2.1565,-5.913,-9.5304
75,0.8047,-7.3575,-12.3008,4.1739,-7.4435,-5.6348
80,0.7664,-7.0893,-12.0709,4.9391,-8.2087,-2.4348
85,0.8814,-6.8593,-12.0326,5.2174,-8.8348,1.113
90,0.9197,-6.5145,-11.8793,5.4957,-9.113,3.8957
95,1.1879,-6.4378,-11.7643,6.2609,-9.6696,6.6087
100,1.4179,-6.0546,-11.4195,7.7217,-9.4609,8.1391
105,1.4945,-6.0163,-11.3428,10.087,-8.9043,9.3217
110,1.4945,-5.7864,-11.1512,13.287,-7.8609,9.7391
115,1.4179,-5.5564,-10.883,18.1565,-6.8174,9.5304
120,1.7627,-5.4415,-10.653,22.2609,-5.4261,9.113
125,1.7244,-5.2499,-10.3848,26.3652,-3.8957,8.6957
130,1.6861,-5.2499,-10.1932,30.7478,-2.087,8.2087
135,1.4945,-5.0966,-9.7717,35.3391,-0.3478,8.1391
140,1.5711,-5.0966,-9.3885,40.1391,1.3913,7.9304
145,1.4562,-5.02,-9.2735,44.8,3.2696,8.0696
150,1.4562,-5.0966,-9.0436,49.6,4.9391,8.0
155,1.2263,-4.905,-8.9286,54.2609,6.1913,8.1391
160,1.073,-4.9816,-8.2772,58.4348,7.3043,8.2087
165,1.0346,-4.9433,-8.2389,63.3739,8.4174,8.0696
170,0.9963,-4.9816,-7.9323,66.9913,9.113,7.5826
175,0.958,-4.9433,-7.8173,70.1217,9.8783,7.2348
180,0.8047,-4.7134,-7.5491,72.4174,10.2261,6.6087
185,0.7664,-4.6751,-7.5108,73.5304,10.5739,6.0522
190,0.6898,-4.5984,-7.5874,73.3217,10.9217,5.7739
195,0.5748,-4.3302,-7.3192,72.3478,11.1304,5.3565
200,0.5748,-4.3302,-7.3192,70.3304,11.2,4.5913
205,0.4598,-4.2152,-7.4341,67.5478,11.2,3.8957
210,0.3066,-4.1003,-7.4725,63.9304,11.2696,2.9913
215,0.3449,-4.1003,-7.2809,60.1043,10.8522,2.1565
220,0.3449,-4.1386,-7.2809,55.3739,10.5739,1.3217
225,0.3832,-4.062,-7.2042,51.6174,9.7391,0.5565
230,0.115,-3.9853,-7.2042,48.3478,9.1826,-0.1391
235,0.1916,-3.9853,-7.1276,45.3565,8.4174,-0.8348
240,0.2299,-3.947,-7.1659,42.4348,7.7217,-1.8783
245,0.115,-3.832,-7.1276,40.0,7.1652,-2.9217
250,0.1916,-3.9853,-7.0893,37.913,6.6087,-4.1043
255,0.1916,-3.947,-7.0126,36.5913,6.0522,-4.8
260,0.1916,-3.947,-7.0509,35.8957,5.4957,-5.4261
265,0.3449,-4.0236,-6.8977,35.7565,5.0087,-5.6348
270,0.3832,-3.8704,-7.0126,36.0348,4.3826,-5.913
275,0.4982,-3.9087,-7.0509,36.2435,3.8957,-6.1913
280,0.3066,-3.7171,-7.1276,36.7304,3.3391,-6.3304
285,0.3832,-3.7554,-7.3192,37.1478,2.9217,-6.6087
290,0.4982,-3.6021,-7.2425,37.7739,2.4348,-6.887
295,0.4598,-3.4871,-7.4341,38.3304,1.9478,-6.6087
300,0.4215,-3.3722,-7.3192,38.8174,1.6,-6.4
305,0.3066,-3.1423,-7.2809,39.3739,1.3913,-5.7739
310,0.4982,-3.2572,-7.3192,40.0696,1.1826,-5.0783
315,0.3449,-3.2189,-7.2809,40.8348,0.8348,-4.2435
320,0.3449,-3.0656,-7.3958,41.8783,0.7652,-3.4783
325,0.3832,-2.989,-7.1276,42.9913,0.6261,-2.9913
330,0.4215,-2.874,-7.1276,44.1739,0.2783,-2.3652
335,0.4598,-2.8357,-7.0509,44.8,0.1391,-1.2522
340,0.4598,-2.7591,-7.2425,45.2174,0.0,-0.5565
345,0.4982,-2.7591,-7.0509,45.1478,0.0696,0.2087
350,0.4598,-2.5675,-7.1276,44.8696,0.1391,1.0435
355,0.4982,-2.4908,-7.0509,44.3826,0.2087,2.1565
360,0.5748,-2.3375,-6.9743,43.6174,0.2783,3.0609
365,0.4598,-2.2226,-6.9743,42.1565,0.1391,3.8957
370,0.4982,-1.9927,-7.0893,40.2087,0.0,4.9391
375,0.6131,-1.9543,-7.0509,37.4261,0.0,5.6348
380,0.4598,-1.6478,-7.0893,34.7826,-0.2783,6.0522
385,0.4598,-1.4945,-7.2425,31.9304,-0.4174,6.6087
390,0.4215,-1.073,-7.1276,29.1478,-0.2783,6.6783
395,0.4215,-0.9197,-6.936,26.6435,-0.1391,6.887
400,0.3832,-0.7664,-6.5911,24.6957,0.3478,6.9565
405,0.2299,-0.5748,-6.3612,23.513,0.6261,7.0957
410,0.2682,-0.6898,-6.2079,22.9565,0.8348,6.887
415,0.3832,-0.6514,-5.8247,22.6087,1.0435,7.0957
420,0.2682,-0.4982,-5.8247,21.8435,0.9739,7.3739
425,0.1916,-0.4982,-5.8247,19.9652,0.9043,7.7913
430,0.2682,-0.2682,-5.9013,17.0435,1.3913,7.513
435,0.115,-0.1916,-6.0163,12.6609,2.087,7.3043
440,0.2682,-0.1533,-6.0546,6.6783,3.2,6.9565
445,0.3066,-0.0766,-6.2079,-0.5565,4.4522,6.6783
450,0.4215,-0.0766,-6.4761,-8.9739,5.8435,5.9826
455,0.2682,-0.1533,-6.5911,-17.9478,7.1652,5.1478
460,0.3832,-0.1533,-6.5528,-27.4087,8.5565,4.3826
465,0.4215,-0.3449,-6.7827,-37.287,9.7391,3.687
470,0.2299,-0.6131,-6.8593,-47.2348,10.713,2.8522
475,0.1533,-0.6514,-6.8977,-56.8348,11.4783,1.8087
480,0.2299,-0.8814,-6.821,-67.2,11.687,0.9739
485,-0.0383,-1.073,-6.8593,-74.2261,11.2696,0.0696
490,-0.0383,-1.2263,-6.8593,-79.9304,10.4348,-0.8348
495,-0.115,-1.3029,-6.7444,-83.9652,9.113,-1.7391
500,-0.115,-1.5328,-6.821,-86.5391,7.7217,-2.713
505,-0.115,-1.7244,-6.821,-87.8609,6.1913,-3.3391
510,0.115,-1.8394,-6.7444,-88.6261,4.4522,-4.1043
515,0.115,-2.2226,-6.6677,-88.6261,2.8522,-4.5217
520,0.0766,-2.5291,-6.7444,-87.7913,1.2522,-5.287
525,0.115,-2.6058,-7.0126,-86.2609,-0.0696,-5.913
530,0.1916,-2.9123,-6.936,-83.8261,-1.5304,-6.3304
535,0.1533,-3.1423,-7.2042,-82.0174,-2.3652,-6.6087
540,0.1533,-3.4871,-7.3575,-80.9043,-3.0609,-6.8174
545,0.0766,-3.5638,-7.894,-80.3478,-3.5478,-6.887
550,0.115,-3.6404,-8.1239,-80.9043,-3.8957,-6.7478
555,0.1916,-3.9087,-8.3538,-82.5043,-4.1043,-6.1913
560,0.1533,-4.2919,-8.5838,-84.6609,-4.4522,-6.0522
565,0.2682,-4.7517,-8.8137,-87.3043,-5.0087,-5.9826
570,0.5748,-4.9816,-8.967,-89.4609,-5.5652,-5.7739
575,0.7281,-5.5564,-9.1969,-90.7826,-6.0522,-4.8
580,0.958,-5.5948,-9.3885,-89.4609,-6.6783,-1.8783
585,1.1113,-5.863,-9.4651,-86.9565,-6.6087,0.4174
590,1.073,-5.863,-9.6567,-83.8261,-6.6087,1.7391
595,1.3795,-6.1313,-9.925,-80.8348,-6.5391,2.6435
600,1.4945,-6.2079,-9.8866,-77.6348,-6.1913,3.4087
605,1.2263,-6.2845,-9.8866,-74.2261,-4.9391,4.313
610,1.3795,-6.6294,-9.9633,-70.1217,-3.9652,5.1478
615,1.3795,-6.5911,-10.0399,-64.9043,-3.3391,6.5391
620,1.3029,-6.7061,-10.1166,-59.4087,-2.9913,8.0
625,1.3795,-6.5528,-10.2698,-53.7739,-3.2,9.6
630,1.3795,-6.3995,-10.2698,-47.5826,-3.4087,11.5478
635,1.2263,-6.3612,-10.4231,-39.9304,-3.2,12.8696
640,1.2263,-6.2462,-10.3848,-33.113,-2.6435,14.1217
645,1.3029,-6.0163,-10.653,-25.9478,-1.8087,15.3739
650,1.3412,-5.8247,-10.6147,-19.1304,-0.6261,15.9304
655,1.1496,-5.6331,-10.5381,-12.8,0.6957,16.487
660,1.0346,-5.4415,-10.4231,-7.3739,2.2261,16.7652
665,1.073,-5.2499,-10.1932,-2.5043,4.0348,17.113
670,0.8814,-5.02,-9.925,1.5304,6.0522,17.3217
675,0.7664,-4.9433,-9.925,4.8,8.0,17.5304
680,1.0346,-4.7517,-9.8483,7.0261,10.1565,16.9739
685,0.6898,-4.4452,-9.5801,8.487,12.8,15.8609
690,0.6898,-4.062,-9.5034,8.3478,14.2609,14.3304
695,0.3449,-3.832,-9.4268,7.513,15.3739,11.9652
700,-0.0383,-3.3722,-9.3118,5.913,16.6261,10.2261
705,-0.3449,-3.2189,-9.1969,3.8261,17.3217,9.8783
710,-0.5748,-3.4105,-9.0819,1.0435,17.113,11.0609
715,-0.4982,-3.9087,-8.8137,-1.9478,15.513,13.6348
720,-0.3832,-4.2919,-8.6987,-5.1478,12.1739,15.5826
725,-0.0766,-4.7517,-8.3921,-8.0696,7.3043,15.0957
730,0.4598,-5.1732,-8.3921,-9.8783,2.4348,11.7565
735,0.3832,-5.0966,-8.6221,-10.087,-1.1826,6.4
740,0.3832,-5.1732,-8.7754,-8.5565,-1.9478,4.1739
745,0.4215,-5.2499,-8.737,-5.1478,-1.2522,4.2435
750,0.4982,-5.3648,-8.5838,0.4174,1.1826,5.8435
755,0.4215,-5.8247,-8.6221,7.6522,3.8261,8.1391
760,0.2299,-5.9396,-8.5454,15.7913,5.4957,9.6696
765,0.4215,-6.3612,-8.7754,23.3739,6.5391,9.8783
770,0.5365,-6.5911,-9.1202,29.7739,7.6522,8.8348
775,0.4598,-6.936,-9.1202,35.0609,8.9739,7.7913
780,0.6514,-7.1659,-9.3885,39.7217,10.087,6.8174
785,0.9197,-7.2425,-9.4268,44.3826,11.2696,6.3304
790,0.9963,-7.4341,-9.4268,50.8522,12.5217,6.3304
795,1.1879,-7.5108,-9.3502,56.9043,13.0087,6.4696
800,1.3795,-7.6641,-9.5418,63.3043,12.8,6.887
805,1.4179,-7.894,-9.5034,69.287,12.2435,7.2348
810,1.6478,-7.9706,-9.695,74.3652,11.5478,7.9304
815,1.6478,-8.1239,-9.7717,79.0957,10.9217,8.6957
820,1.7244,-8.1622,-9.6567,83.7565,10.5739,10.0174
825,1.8011,-8.3155,-9.695,88.7652,10.5739,11.3391
830,1.8777,-8.4688,-9.3885,94.9565,10.8522,12.5217
835,1.8777,-8.5071,-9.4268,102.4,11.2696,13.9826
840,1.8394,-8.5454,-9.1586,112.6261,11.9652,15.4435
845,1.8394,-8.737,-9.0819,121.6696,12.4522,16.0696
850,1.8777,-9.1586,-8.8903,131.1304,12.8,16.4174
855,1.8394,-9.3885,-8.9286,140.4522,13.2174,16.2783
860,1.8394,-9.6567,-9.0436,149.913,13.5652,15.8609
865,1.8011,-9.81,-9.0053,159.8609,14.0522,15.1652
870,1.8394,-10.0016,-9.0436,169.8783,14.4,14.3304
875,1.8011,-10.0016,-9.0053,179.8261,14.887,13.2174
880,1.5328,-10.3082,-9.0436,189.4261,15.513,12.3826
885,1.4562,-10.9213,-8.8137,199.0261,15.5826,11.8261
890,1.073,-10.768,-8.8903,207.6522,15.7217,10.5043
895,1.3412,-11.0363,-9.0436,215.1652,15.5826,9.2522
900,1.1113,-11.3045,-8.6604,218.8522,15.7217,8.2087
905,0.6514,-10.2315,-9.3502,219.8261,15.0261,7.0261
910,0.5748,-9.1202,-9.3118,217.0435,13.5652,5.7043
915,0.4982,-8.737,-9.1586,212.6609,12.5217,3.1304
920,0.5748,-8.5454,-8.9286,206.8174,11.6174,0.0
925,0.6514,-8.2389,-8.852,198.1913,11.6174,-2.2261
930,0.6898,-7.5874,-8.5071,185.7391,12.1739,-4.2435
935,0.4982,-7.5491,-8.4305,169.5304,12.1043,-3.7565
940,0.3832,-7.1276,-8.6604,151.0261,11.6174,-1.2522
945,-0.0383,-6.2462,-9.0053,127.4435,10.3652,1.5304
950,-0.3832,-5.6714,-8.8137,108.1043,8.2783,5.2174
955,-0.5748,-5.02,-8.7754,89.6,5.1478,8.0696
960,-0.7281,-4.5601,-8.4305,72.4174,1.9478,10.2261
965,-1.1113,-4.2536,-7.4725,57.7391,-0.6957,11.2
970,-0.9197,-4.4452,-6.7061,45.2174,-2.7826,11.5478
975,-1.1113,-4.5984,-5.9013,34.9217,-3.7565,11.2
980,-0.9963,-5.3265,-5.1732,26.7826,-4.313,10.2957
985,-0.8814,-5.9013,-4.8284,21.3565,-4.8,8.7652
990,-0.6131,-6.3612,-4.7134,17.6,-5.4957,6.6087
995,-0.3066,-6.7827,-4.1386,14.2609,-5.913,4.5217
1000,-0.4598,-7.4725,-4.5984,12.7304,-6.1913,2.2261
1005,-0.3449,-7.5874,-4.6751,12.5913,-6.1217,-0.2783
1010,-0.1916,-7.779,-4.5984,13.4957,-5.8435,-2.3652
1015,0.0,-7.9706,-4.6751,15.2348,-5.287,-4.3826
1020,0.2299,-7.9706,-4.8284,17.0435,-4.7304,-6.6087
1025,0.2682,-7.9706,-4.905,18.1565,-4.2435,-8.4174
1030,0.3832,-8.2389,-5.0966,18.713,-4.0348,-9.9478
1035,0.5365,-8.2772,-5.1732,18.713,-4.0348,-10.9217
1040,0.6131,-8.5071,-5.3648,18.5739,-4.1043,-11.6174
1045,0.5748,-8.6987,-5.3265,18.2261,-4.313,-11.7565
1050,0.6131,-8.8903,-5.4798,18.5043,-4.2435,-11.4087
1055,0.6514,-9.2352,-5.4415,19.687,-3.9652,-10.8522
1060,0.6898,-9.4651,-5.2116,21.913,-3.8261,-10.0174
1065,0.7281,-9.7334,-4.9816,25.1826,-3.5478,-9.3217
1070,0.7664,-9.9633,-4.905,29.0783,-3.0609,-8.6261
1075,0.6898,-10.0016,-4.79,33.6696,-2.2261,-7.9304
1080,0.4982,-10.0016,-4.4835,38.6783,-1.6,-6.8174
1085,0.5748,-10.1549,-4.4835,43.687,-1.0435,-5.5652
1090,0.5365,-10.1166,-4.4452,48.6261,-0.5565,-4.8696
1095,0.5748,-10.0016,-4.3685,53.287,0.6261,-3.8957
1100,0.5748,-10.0016,-4.1386,58.087,2.2261,-2.7826
1105,0.4598,-10.0016,-4.2919,61.4957,3.4087,-2.2957
1110,0.4982,-10.0016,-4.1386,64.2087,4.5217,-1.9478
1115,0.4215,-9.81,-4.2536,66.713,5.0783,-2.087
1120,0.5748,-9.5801,-4.062,69.3565,5.8435,-2.3652
1125,0.5365,-9.3502,-3.947,72.2087,6.8174,-2.5043
1130,0.6131,-9.3502,-3.9087,74.8522,7.6522,-2.2261
1135,0.7664,-9.0436,-3.8704,77.0087,8.5565,-2.1565
1140,0.8814,-8.852,-4.062,78.3304,9.2522,-1.7391
1145,0.8814,-8.8903,-3.9087,78.5391,9.7391,-1.3913
1150,1.0346,-8.5838,-4.0236,77.7043,9.6696,-0.9043
1155,1.1113,-8.5454,-4.1003,75.2,9.7391,-0.487
1160,1.2263,-8.3538,-4.2152,72.0,9.5304,0.1391
1165,1.2263,-8.2005,-4.1769,68.1043,9.4609,0.2783
1170,1.2263,-8.1239,-4.2919,63.513,9.1826,0.5565
1175,1.4179,-8.0473,-4.2152,58.3652,8.8348,0.8348
1180,1.3795,-7.9706,-4.4452,52.8696,8.7652,0.7652
1185,1.5328,-8.0473,-4.3685,47.2348,8.8348,0.5565
1190,1.5711,-7.9706,-4.2152,41.6,9.2522,0.5565
1195,1.7244,-8.1239,-4.2152,35.9652,9.7391,0.2783
1200,1.6095,-8.2772,-4.1769,30.5391,10.5739,-0.1391
1205,1.6095,-8.3155,-4.1003,24.3478,11.5478,-0.5565
1210,1.5328,-8.4688,-4.1769,19.8957,11.9652,-0.9043
1215,1.5711,-8.5838,-3.947,16.1391,12.1739,-1.7391
1220,1.6095,-8.6604,-4.1386,13.4261,12.1043,-2.2957
1225,1.3412,-8.8903,-3.8704,11.8957,11.9652,-2.9217
1230,1.4945,-9.0053,-3.9853,11.0609,11.8957,-3.4087
1235,1.3795,-9.0053,-4.0236,11.2,11.8957,-3.8261
1240,1.2263,-8.9286,-3.9853,12.1043,12.0348,-4.1043
1245,1.3029,-9.1202,-3.832,13.6348,12.313,-4.3826
1250,1.2646,-9.1969,-3.8704,15.7217,12.5913,-4.5217
1255,1.3029,-9.1969,-3.7171,18.4348,12.9391,-4.7304
1260,1.1879,-9.1202,-3.832,20.8,13.287,-4.4522
1265,1.1879,-9.0436,-3.7554,22.7478,13.5652,-4.313
1270,1.1113,-9.0436,-3.6404,24.3478,13.8435,-3.8261
1275,1.1113,-9.0819,-3.6404,25.8783,14.3304,-3.687
1280,1.073,-9.1586,-3.4488,27.2696,14.6783,-3.5478
1285,1.0346,-9.0819,-3.5638,28.3826,15.0957,-3.4783
1290,1.0346,-9.0436,-3.2572,29.6348,15.513,-3.4783
1295,1.1113,-9.0819,-3.2572,30.8174,16.0,-3.5478
1300,1.073,-9.1202,-3.1039,32.0,16.4174,-3.687
1305,0.958,-9.1202,-3.1806,33.1826,16.9043,-4.1043
1310,1.0346,-9.1969,-3.0656,34.6435,17.2522,-4.1043
1315,0.843,-9.2352,-2.9123,35.687,17.1826,-4.5217
1320,0.958,-9.1202,-2.9507,36.7304,16.9739,-4.7304
1325,0.843,-9.1586,-2.874,37.5652,16.5565,-5.0087
1330,0.843,-9.0053,-2.7591,38.3304,16.1391,-5.0087
1335,0.8047,-8.967,-2.8357,38.7478,15.4435,-5.0087
1340,0.7281,-8.8903,-2.6441,38.6783,14.8174,-4.8696
1345,0.7281,-9.0053,-2.6824,37.8435,14.1913,-4.7304
1350,0.7664,-8.967,-2.6441,36.313,13.5652,-4.5217
1355,0.7281,-8.967,-2.6824,34.1565,13.0087,-4.3826
1360,0.6514,-9.0436,-2.6441,31.0261,12.5217,-4.1739
1365,0.5748,-8.8903,-2.4908,28.0348,12.0348,-4.2435
1370,0.6131,-9.0436,-2.5675,24.9043,11.5478,-4.2435
1375,0.6514,-9.0053,-2.4908,21.7739,11.0609,-4.3826
1380,0.5365,-8.9286,-2.5675,18.7826,10.6435,-4.313
1385,0.6514,-9.0436,-2.7207,15.9304,10.5043,-4.4522
1390,0.4215,-9.0053,-2.6441,13.287,10.5043,-4.0348
1395,0.6898,-9.0819,-2.7974,11.2,10.3652,-3.8261
1400,0.7281,-9.1202,-2.7591,9.5304,10.4348,-3.5478
1405,0.6898,-9.0819,-2.9123,8.2783,10.713,-3.2
1410,0.6898,-9.1202,-2.9123,7.2348,11.2,-2.713
1415,0.6514,-9.0436,-3.1423,6.3304,11.687,-2.4348
1420,0.6514,-9.0819,-3.0656,5.4261,12.1043,-2.2261
1425,0.8047,-9.1586,-3.1423,4.5913,12.4522,-2.2261
1430,0.7664,-9.1202,-3.1039,3.7565,12.6609,-2.087
1435,0.6898,-9.3118,-3.3339,3.4087,12.8696,-1.9478
1440,0.7281,-9.1969,-3.2955,3.1304,12.9391,-1.7391
1445,0.6514,-9.2352,-3.4105,2.9913,13.0087,-1.5304
1450,0.5365,-9.1586,-3.3339,2.8522,12.8696,-1.1826
1455,0.6898,-9.2352,-3.3339,2.4348,12.7304,-0.9043
1460,0.5365,-9.3502,-3.3339,2.2957,12.313,-0.487
1465,0.5365,-9.1969,-3.2572,2.087,11.8261,-0.5565
1470,0.6131,-9.3118,-3.4488,2.1565,11.4087,-0.2783
1475,0.5748,-9.1586,-3.4488,2.3652,10.9217,-0.487
1480,0.6131,-9.1969,-3.3339,2.6435,10.6435,-0.487
1485,0.4598,-9.1586,-3.3339,2.8522,10.1565,-0.8348
1490,0.6131,-9.2735,-3.1423,3.2,9.7391,-1.0435
1495,0.5365,-9.1586,-2.989,3.6174,9.3217,-1.1826
1500,0.3449,-9.1586,-3.3339,4.0348,8.9739,-1.6
1505,0.4982,-9.1969,-2.989,4.8,8.4174,-2.4348
1510,0.6131,-9.1586,-3.0273,5.2174,7.7217,-3.3391
1515,0.6514,-9.0436,-3.2189,5.4957,7.1652,-3.9652
1520,0.6898,-8.967,-3.0273,5.0783,7.2348,-3.5478
1525,0.7281,-9.0053,-2.9507,4.4522,7.4435,-3.5478
1530,0.7281,-9.1586,-3.0273,3.5478,7.3739,-3.2696
1535,0.6514,-9.0819,-3.0273,2.6435,7.3739,-3.4783
1540,0.8814,-9.0053,-2.7207,1.7391,7.0957,-3.687
1545,0.8814,-9.0436,-2.874,1.113,6.887,-4.1043
1550,0.9197,-9.1202,-2.9123,0.487,6.887,-4.1043
1555,0.843,-9.1586,-2.7591,0.0696,6.887,-4.313
1560,0.9963,-9.1202,-2.9507,-0.5565,6.9565,-4.3826
1565,1.0346,-9.1202,-2.9507,-1.113,6.6087,-4.8
1570,1.1496,-9.0819,-2.8357,-1.9478,6.5391,-4.6609
1575,1.1496,-9.0819,-2.9507,-2.6435,6.2609,-4.8
1580,1.1496,-9.2735,-3.0273,-3.3391,6.1913,-4.6609
1585,1.1113,-9.1586,-3.1039,-3.9652,5.8435,-4.6609
1590,1.1879,-9.1969,-3.1039,-4.5913,5.7043,-4.5217
1595,1.1879,-9.1969,-3.1039,-5.1478,5.3565,-4.3826
1600,1.3412,-9.2352,-3.0656,-5.4261,5.4261,-4.1739
1605,1.1879,-9.0819,-2.989,-5.4261,5.6348,-4.0348
1610,1.2263,-9.1202,-2.9507,-5.4261,5.6348,-3.7565
1615,1.2646,-9.1969,-3.0273,-5.5652,5.4261,-3.8261
1620,1.3029,-9.1202,-3.0656,-5.8435,5.287,-3.6174
1625,1.2646,-9.0819,-2.989,-6.1217,5.2174,-3.4087
1630,1.1879,-9.1202,-3.1806,-5.9826,5.287,-3.2
1635,1.3412,-9.0436,-2.989,-5.8435,5.3565,-3.2696
1640,1.3029,-9.1586,-3.1039,-5.3565,5.3565,-2.9913
1645,1.3029,-9.0819,-3.2189,-4.6609,5.4957,-3.0609
1650,1.2263,-9.1202,-3.0273,-3.9652,5.4261,-2.9217
1655,1.4945,-9.1969,-3.2572,-3.5478,5.4957,-2.9913
1660,1.4562,-9.0436,-3.1806,-3.3391,5.3565,-2.713
1665,1.4945,-9.1202,-3.2572,-3.4783,5.4261,-2.6435
1670,1.4179,-8.967,-3.2189,-3.8261,5.7043,-2.2261
1675,1.4945,-9.0053,-3.2572,-4.8,5.4957,-2.4348
1680,1.5328,-9.0436,-3.1423,-5.913,5.4261,-2.2261
1685,1.3795,-9.0436,-3.1039,-6.7478,5.4957,-2.2957
1690,1.5328,-9.1586,-3.1039,-7.7217,5.5652,-2.1565
1695,1.6095,-9.1202,-3.2572,-8.5565,5.4261,-2.2957
1700,1.6478,-9.0436,-3.1423,-9.2522,5.4261,-2.0174
1705,1.6478,-9.1969,-3.1806,-9.8087,5.4957,-2.0174
1710,1.5711,-9.1586,-3.1423,-10.2261,5.6348,-1.8783
1715,1.4179,-9.0819,-3.1423,-10.6435,5.7043,-1.8087
1720,1.5328,-9.0436,-3.2955,-11.2696,5.9826,-1.7391
1725,1.4562,-9.1202,-3.2572,-11.8957,6.1913,-1.7391
1730,1.3412,-9.0819,-3.2572,-12.6609,6.3304,-1.6
1735,1.3412,-9.1586,-3.2189,-13.4261,6.4,-1.8087
1740,1.3412,-9.0819,-3.2189,-14.3304,6.2609,-1.7391
1745,1.1879,-9.1969,-3.2189,-15.1652,5.9826,-1.8783
1750,1.0346,-9.1586,-3.2189,-15.8609,5.7739,-1.7391
1755,1.2646,-9.1586,-3.2189,-16.5565,5.287,-1.8783
1760,1.2263,-9.0819,-3.2189,-17.113,4.6609,-1.7391
1765,1.2263,-9.1969,-3.2955,-17.6,4.4522,-1.6
1770,1.1496,-9.1202,-3.2955,-17.8783,4.3826,-1.113
1775,1.1879,-9.1202,-3.2955,-18.0174,4.2435,-1.113
1780,1.073,-9.1586,-3.3339,-18.2261,4.0348,-0.7652
1785,1.1113,-9.1586,-3.5255,-18.2261,3.7565,-0.7652
1790,1.1496,-9.1586,-3.3339,-18.3652,3.3391,-0.6957
1795,1.1496,-9.1202,-3.4871,-18.5739,2.8522,-0.7652
1800,1.2263,-9.1586,-3.3339,-18.6435,2.5739,-0.3478
1805,1.1496,-9.2352,-3.5255,-18.9217,2.2261,-0.4174
1810,1.3029,-9.1202,-3.6021,-19.2,1.8783,-0.1391
1815,1.2646,-9.1202,-3.6021,-19.4783,1.8087,-0.2783
1820,1.3029,-9.0436,-3.7171,-19.687,1.8783,-0.1391
1825,1.2646,-8.967,-3.6404,-19.8261,1.9478,-0.1391
1830,1.2263,-9.0819,-3.7171,-20.0348,2.2957,0.1391
1835,1.3412,-8.8903,-3.6787,-20.3826,2.4348,-0.1391
1840,1.3795,-9.0053,-3.6787,-20.8696,2.6435,0.0
1845,1.2646,-8.967,-3.7171,-21.5652,2.9217,-0.2783
1850,1.3795,-9.1202,-3.7937,-22.3304,2.9217,-0.4174
1855,1.3029,-9.0819,-3.7554,-23.0957,3.2,-0.7652
1860,1.3029,-9.1586,-3.7937,-23.9304,3.5478,-0.6261
1865,1.3412,-9.0053,-3.7171,-24.487,3.687,-0.9739
1870,1.2646,-9.0819,-3.6404,-24.9043,3.8957,-0.9043
1875,1.1496,-9.2735,-3.7171,-25.1826,3.8261,-1.0435
1880,1.2263,-9.1586,-3.8704,-25.3217,3.3391,-1.3217
1885,1.3029,-9.1969,-4.0236,-25.3217,3.0609,-1.8087
1890,1.2263,-9.1202,-3.9853,-25.113,3.0609,-1.6696
1895,1.1496,-9.0436,-4.062,-24.6261,2.713,-2.087
1900,1.1879,-9.0436,-3.9853,-23.9304,2.6435,-2.1565
1905,1.073,-9.0819,-4.1386,-22.887,2.7826,-2.3652
1910,0.958,-8.9286,-4.2152,-21.7739,2.713,-2.1565
1915,0.9963,-8.967,-4.2536,-20.6609,2.9217,-2.2957
1920,0.958,-8.737,-4.2919,-19.8957,2.7826,-2.2261
1925,0.843,-8.852,-4.2536,-19.2696,3.1304,-2.0174
1930,0.843,-8.7754,-4.3685,-18.3652,3.3391,-1.5304
1935,0.843,-8.7754,-4.4068,-17.8783,2.7826,-1.4609
1940,0.8047,-8.737,-4.3685,-17.9478,2.4348,-1.113
1945,0.7664,-8.6987,-4.2919,-18.2261,2.1565,-0.8348
1950,0.8047,-8.737,-4.4452,-18.6435,1.8087,-0.3478
1955,0.8047,-8.7754,-4.3685,-19.1304,1.3913,-0.2087
1960,0.843,-8.6604,-4.3685,-19.8957,1.0435,0.0696
1965,0.7664,-8.737,-4.1386,-20.4522,0.6261,0.2783
1970,0.8047,-8.7754,-4.2919,-20.7304,0.0696,0.487
1975,0.8047,-8.6987,-4.3685,-21.1478,0.0,0.4174
1980,0.8814,-8.737,-4.2536,-21.0783,-0.2087,0.9739
1985,0.843,-8.737,-4.3685,-20.9391,-0.2783,0.8348
1990,0.8814,-8.6987,-4.4452,-20.5217,-0.6957,0.6261
1995,0.8047,-8.737,-4.4835,-20.0348,-0.487,0.487
2000,0.8047,-8.737,-4.4068,-19.4783,-0.487,0.487
2005,0.8814,-8.6221,-4.5601,-18.713,-0.6957,0.0696
2010,0.958,-8.8137,-4.4835,-18.1565,-0.9739,0.0
2015,1.073,-8.737,-4.4068,-17.6,-1.113,-0.2087
2020,0.958,-8.7754,-4.3685,-17.0435,-0.9043,-0.0696
2025,0.9963,-8.8137,-4.4835,-16.487,-1.1826,-0.2783
2030,1.1496,-8.852,-4.5601,-16.0696,-1.1826,-0.2087
2035,1.1113,-8.8903,-4.5218,-15.7217,-1.1826,-0.4174
2040,1.1496,-8.852,-4.7134,-15.4435,-1.3913,-0.3478
2045,1.1113,-8.8903,-4.5601,-15.0957,-1.7391,-0.5565
2050,1.2263,-9.0053,-4.7517,-14.887,-2.087,-0.6957
2055,1.1496,-8.8903,-4.7517,-14.6783,-2.087,-0.8348
2060,1.073,-8.852,-4.8667,-14.1913,-2.2957,-0.8348
2065,1.1113,-8.852,-4.7134,-13.9826,-2.5739,-1.2522
2070,1.0346,-8.8137,-4.8284,-13.7043,-2.713,-1.2522
2075,1.0346,-8.7754,-4.9433,-13.6348,-2.5739,-1.5304
2080,0.9197,-8.7754,-4.79,-13.7043,-2.6435,-1.4609
2085,0.843,-8.6987,-4.8667,-13.8435,-2.8522,-1.8783
2090,0.9197,-8.8137,-4.8284,-14.0522,-2.9217,-1.9478
2095,0.958,-8.737,-4.7517,-14.3304,-2.7826,-2.1565
2100,1.0346,-8.852,-4.7517,-14.6087,-2.6435,-2.1565
2105,0.9963,-8.737,-4.6751,-14.6783,-2.3652,-2.2957
2110,1.0346,-8.6987,-4.8284,-14.5391,-2.2261,-2.2957
2115,0.8814,-8.6221,-4.7517,-14.4,-2.0174,-2.2957
2120,0.9197,-8.6604,-4.7517,-14.1913,-1.9478,-2.087
2125,0.9963,-8.6604,-4.5218,-13.8435,-2.0174,-2.087
2130,1.0346,-8.6604,-4.7134,-13.4957,-1.8783,-1.7391
2135,1.0346,-8.5454,-4.6368,-13.0087,-2.0174,-1.6
2140,1.1113,-8.6221,-4.7134,-12.5913,-2.1565,-1.2522
2145,1.1496,-8.6221,-4.7517,-12.2435,-2.2261,-1.1826
2150,1.3412,-8.6604,-4.7517,-12.1043,-2.1565,-0.8348
2155,1.1113,-8.5454,-4.79,-11.7565,-2.4348,-0.9043
2160,1.1879,-8.6221,-4.9433,-11.4087,-2.6435,-0.6957
2165,1.3795,-8.6221,-4.8667,-11.3391,-2.5043,-0.8348
2170,1.1496,-8.6604,-4.79,-11.1304,-2.3652,-0.3478
2175,1.2646,-8.5838,-5.0583,-10.9217,-2.5739,-0.7652
2180,1.3029,-8.6604,-5.02,-11.0609,-2.713,-1.0435
2185,1.1113,-8.5838,-4.8667,-11.2,-2.5739,-1.4609
2190,1.2263,-8.6221,-4.9816,-11.2,-2.3652,-1.5304
2195,1.4179,-8.6987,-5.0966,-11.3391,-2.5043,-2.087
2200,1.3795,-8.5838,-4.9433,-11.687,-2.087,-2.0174
2205,1.1879,-8.5838,-4.8284,-11.7565,-1.4609,-2.2261
2210,1.4179,-8.737,-4.9816,-11.6174,-1.113,-2.087
2215,1.1113,-8.5838,-4.9433,-11.3391,-0.9043,-2.2957
2220,1.2646,-8.6221,-4.9433,-11.2696,-0.8348,-2.2261
2225,1.3029,-8.6221,-4.905,-10.8522,-0.6261,-2.4348
2230,1.3412,-8.6604,-4.9433,-10.713,-0.4174,-2.3652
2235,1.3412,-8.6604,-4.9816,-10.4348,-0.487,-2.6435
2240,1.2646,-8.737,-4.9816,-9.9478,-0.2783,-2.2957
2245,1.1879,-8.5838,-5.0966,-9.6,-0.2087,-2.4348
2250,1.1113,-8.5071,-5.02,-9.113,0.0,-2.1565
2255,1.1879,-8.6987,-5.02,-8.4174,0.0,-2.2261
2260,1.0346,-8.6987,-4.9816,-7.6522,0.0,-1.9478
2265,1.0346,-8.5454,-4.9816,-7.0957,0.0696,-2.087
2270,1.1113,-8.5838,-5.0966,-6.6087,0.0,-2.2261
2275,1.1113,-8.6221,-4.9433,-6.1217,0.0,-2.5043
2280,1.0346,-8.5454,-5.2116,-5.6348,0.0,-2.5739
2285,0.958,-8.5071,-4.9816,-5.1478,0.1391,-2.7826
2290,0.9197,-8.4688,-5.02,-4.6609,0.3478,-2.3652
2295,0.8814,-8.3921,-5.0966,-4.2435,0.4174,-2.6435
2300,0.9197,-8.3538,-4.9816,-4.313,0.487,-2.6435
2305,0.9197,-8.5071,-5.1732,-4.313,0.487,-2.713
2310,0.843,-8.3921,-5.1349,-4.4522,0.3478,-2.6435
2315,0.8814,-8.3155,-4.9816,-4.5913,0.487,-2.5043
2320,0.843,-8.2772,-5.1349,-4.8,0.4174,-2.5739
2325,0.7664,-8.5071,-4.905,-5.0783,0.6261,-2.4348
2330,0.8047,-8.4688,-5.02,-5.287,0.2783,-2.4348
2335,0.843,-8.3921,-5.02,-5.4957,-0.2087,-2.7826
2340,0.958,-8.4688,-4.905,-5.7043,-0.3478,-2.9913
2345,0.843,-8.4305,-4.9433,-6.3304,0.0,-2.9913
2350,0.8814,-8.5071,-4.7134,-6.6783,0.0696,-2.7826
2355,0.9963,-8.6221,-5.02,-7.0261,-0.0696,-2.9913
2360,0.843,-8.5838,-4.9433,-7.2348,-0.487,-3.2
2365,0.843,-8.5454,-4.905,-7.3739,-0.7652,-3.5478
2370,0.843,-8.6221,-4.9433,-7.4435,-0.7652,-3.4087
2375,0.7281,-8.6221,-4.8667,-7.3739,-0.9043,-3.8261
2380,0.9963,-8.5454,-4.9433,-7.1652,-0.9739,-3.8261
2385,1.0346,-8.6987,-4.905,-6.7478,-0.8348,-3.7565
2390,0.958,-8.6987,-5.02,-6.1217,-0.9043,-3.5478
2395,1.073,-8.6987,-4.8284,-5.2174,-0.8348,-3.8261
2400,1.0346,-8.6221,-4.9816,-4.3826,-0.9043,-3.9652
2405,0.9963,-8.6221,-4.8667,-3.4783,-0.6261,-4.0348
2410,1.0346,-8.6987,-5.02,-2.5739,-0.5565,-3.5478
2415,1.1113,-8.5454,-4.8284,-1.8087,-0.487,-3.7565
2420,0.9963,-8.5838,-4.9816,-1.113,-0.2783,-3.4087
2425,0.9963,-8.6221,-4.79,-0.6261,-0.2087,-3.4087
2430,1.1113,-8.6604,-4.79,-0.2783,-0.1391,-3.2
2435,1.073,-8.6604,-4.7517,-0.1391,-0.0696,-3.3391
2440,1.1113,-8.737,-4.6751,-0.1391,-0.0696,-3.1304
2445,1.073,-8.6604,-4.905,-0.1391,0.0,-3.4087
2450,1.1113,-8.5071,-4.8284,-0.2783,0.0696,-3.3391
2455,1.0346,-8.6987,-4.8284,-0.2087,0.2087,-3.5478
2460,1.1113,-8.5838,-4.7134,-0.2783,0.2783,-3.3391
2465,1.073,-8.6221,-4.9433,0.0,0.5565,-3.6174
2470,1.1496,-8.5838,-4.7517,0.1391,0.6957,-3.3391
2475,1.1496,-8.6221,-4.905,0.2783,0.9043,-3.5478
2480,1.1496,-8.6221,-4.8667,0.487,1.2522,-3.3391
2485,1.2263,-8.6987,-4.9433,0.8348,1.6,-3.3391
2490,1.1879,-8.5454,-4.7134,1.2522,1.9478,-3.0609
2495,1.1879,-8.5838,-4.79,1.3217,2.1565,-2.8522
2500,1.1496,-8.6221,-4.7517,1.4609,2.5043,-2.4348
2505,1.1879,-8.5454,-4.6751,1.3913,2.7826,-2.1565
2510,1.1496,-8.4688,-4.7134,1.3913,2.8522,-1.7391
2515,1.1496,-8.5454,-4.79,1.3217,2.9913,-1.6696
2520,1.1113,-8.4305,-4.905,1.3217,3.2,-1.3217
2525,1.2263,-8.4688,-4.5984,1.113,3.2696,-1.3913
2530,1.1879,-8.5454,-4.5984,0.9739,3.4783,-1.2522
2535,1.2646,-8.5454,-4.7517,0.8348,3.687,-1.1826
2540,1.073,-8.4305,-4.6751,0.487,3.8957,-0.9739
2545,1.1113,-8.3921,-4.7517,0.4174,3.9652,-1.1826
2550,1.2263,-8.5071,-4.6368,0.2783,4.2435,-0.9043
2555,1.2646,-8.5454,-4.79,0.2087,4.3826,-1.2522
2560,1.2646,-8.5454,-4.7134,0.1391,4.6609,-1.1826
2565,1.2646,-8.4688,-4.905,0.0,4.8,-1.3913
2570,1.2646,-8.5071,-4.79,-0.2087,4.9391,-1.1826
2575,1.2263,-8.4688,-4.79,-0.2087,5.2174,-1.3913
2580,1.2646,-8.5071,-4.905,-0.3478,5.3565,-1.3217
2585,1.2263,-8.4305,-4.9816,-0.487,5.4957,-1.3913
2590,1.3029,-8.4305,-5.02,-0.487,5.7739,-1.0435
2595,1.1879,-8.3538,-4.79,-0.487,5.8435,-0.9739
2600,1.2646,-8.3921,-4.8667,-0.2783,5.9826,-0.6957
2605,1.2646,-8.4305,-4.8667,-0.2783,6.1913,-0.5565
2610,1.2646,-8.5071,-4.8284,-0.2087,6.1913,-0.2087
2615,1.2263,-8.5071,-5.02,-0.0696,6.2609,-0.2087
2620,1.2646,-8.4305,-4.8667,0.2087,6.3304,0.0696
2625,1.2646,-8.3921,-4.9816,0.2783,6.3304,0.0696
2630,1.2263,-8.5071,-4.905,0.487,6.4,0.1391
2635,1.3029,-8.4688,-4.7517,0.6261,6.4696,0.0
2640,1.3029,-8.5071,-4.905,0.8348,6.4696,0.0696
2645,1.3029,-8.5454,-4.905,0.9739,6.4696,-0.0696
2650,1.2646,-8.5071,-4.8667,1.1826,6.4696,0.0696
2655,1.073,-8.5454,-4.9816,1.3217,6.4696,0.0
2660,1.2646,-8.6221,-4.8284,1.4609,6.6087,0.0696
2665,1.1496,-8.3538,-4.905,1.5304,6.5391,-0.0696
2670,1.2263,-8.5838,-4.6751,1.5304,6.6087,0.2087
2675,1.2646,-8.5454,-4.8284,1.4609,6.6087,0.0696
2680,1.1496,-8.3921,-4.8667,1.2522,6.3304,0.2783
2685,1.1113,-8.4688,-4.7134,0.9739,6.2609,0.2783
2690,1.1113,-8.5838,-4.7134,0.6957,6.1217,0.4174
2695,1.1879,-8.5454,-4.7517,0.487,6.1217,0.3478
2700,1.1496,-8.5071,-4.905,0.2087,6.1217,0.5565
2705,1.1113,-8.5454,-4.79,-0.0696,5.9826,0.4174
2710,1.1113,-8.4688,-4.8667,-0.2783,5.8435,0.5565
2715,1.073,-8.6221,-4.6751,-0.5565,5.8435,0.3478
2720,1.1113,-8.6221,-4.79,-0.6957,5.8435,0.5565
2725,1.073,-8.5071,-4.7517,-0.9043,5.5652,0.3478
2730,0.9963,-8.5454,-5.0583,-0.9739,5.5652,0.5565
2735,1.073,-8.5454,-4.8667,-1.1826,5.3565,0.3478
2740,1.1879,-8.5454,-4.9433,-1.3217,5.3565,0.487
2745,0.9963,-8.5071,-4.905,-1.3913,5.3565,0.2087
2750,1.073,-8.6604,-4.79,-1.3913,5.2174,0.2783
2755,1.1113,-8.5838,-4.6751,-1.4609,5.2174,0.0696
2760,0.9963,-8.5454,-4.8284,-1.3217,5.2174,0.0696
2765,1.1113,-8.5838,-4.7517,-1.1826,5.0783,-0.2087
2770,1.0346,-8.5838,-4.7134,-1.113,5.0783,-0.1391
2775,1.073,-8.5454,-4.79,-0.9043,4.9391,-0.2783
2780,1.1113,-8.5838,-4.8667,-0.6957,4.9391,-0.1391
2785,1.073,-8.5838,-4.7134,-0.7652,4.8696,-0.4174
2790,0.6131,-8.3538,-4.6368,-0.6261,4.8,-0.2783
2795,1.1496,-8.5071,-4.9433,-0.6261,4.8,-0.3478
2800,1.073,-8.5454,-4.7517,-0.5565,4.5913,-0.2087
2805,1.1879,-8.6221,-4.7134,-0.6261,4.5913,-0.3478
2810,1.073,-8.5454,-4.8284,-0.487,4.5217,-0.2087
2815,1.1113,-8.6604,-4.905,-0.5565,4.4522,-0.2783
2820,1.1113,-8.5071,-4.8284,-0.6261,4.3826,-0.1391
2825,1.0346,-8.5454,-4.79,-0.6957,4.3826,-0.3478
2830,1.1113,-8.5071,-4.7134,-0.8348,4.1739,-0.1391
2835,1.073,-8.5838,-4.6751,-0.9043,4.2435,-0.4174
2840,1.1113,-8.5071,-4.8284,-1.0435,4.1739,-0.3478
2845,1.1879,-8.5071,-4.79,-1.0435,3.9652,-0.487
2850,1.0346,-8.4688,-4.79,-0.9739,3.8957,-0.2783
2855,1.1113,-8.5071,-4.8667,-0.9739,3.9652,-0.6261
2860,1.2263,-8.5838,-4.7517,-0.9739,3.8957,-0.5565
2865,0.9963,-8.4688,-5.02,-0.8348,3.8261,-0.8348
2870,1.1113,-8.6604,-4.6368,-0.6957,3.6174,-0.6957
2875,1.1496,-8.6221,-4.9816,-0.6261,3.6174,-0.9043
2880,1.0346,-8.5454,-4.79,-0.5565,3.5478,-0.7652
2885,1.1113,-8.5071,-4.5984,-0.6261,3.4087,-1.113
2890,1.1496,-8.6221,-4.7134,-0.7652,3.2696,-0.9739
2895,1.0346,-8.5071,-4.79,-0.9739,3.1304,-1.0435
2900,1.1113,-8.5838,-4.7517,-1.0435,2.9913,-0.9739
2905,1.1496,-8.6604,-4.6368,-1.2522,2.8522,-1.2522
2910,1.1113,-8.737,-4.7517,-1.4609,2.7826,-1.113
2915,1.1879,-8.5838,-4.8667,-1.5304,2.713,-1.2522
2920,1.1879,-8.6604,-4.7134,-1.3217,2.5739,-1.2522
2925,1.1879,-8.6604,-4.7517,-1.1826,2.5043,-1.3913
2930,1.1879,-8.5838,-4.7517,-0.9739,2.4348,-1.3217
2935,1.1879,-8.6221,-4.6368,-0.6957,2.3652,-1.3913
2940,1.0346,-8.6221,-4.8284,-0.487,2.4348,-1.3913
2945,1.1113,-8.6221,-4.79,-0.2087,2.4348,-1.8087
2950,1.1879,-8.6221,-4.8667,0.0696,2.5739,-1.6696
2955,1.1113,-8.5454,-4.79,0.0696,2.5739,-2.0174
2960,1.1113,-8.6987,-4.79,0.1391,2.7826,-2.0174
2965,1.073,-8.5454,-5.02,0.2087,2.9217,-2.2261
2970,1.1879,-8.6221,-4.79,0.487,2.9913,-2.087
2975,1.1496,-8.5454,-4.905,0.2783,3.3391,-2.5043
2980,1.073,-8.5454,-4.905,0.1391,3.6174,-2.713
2985,1.1879,-8.5838,-4.905,0.0,3.9652,-3.1304
2990,1.1113,-8.5454,-4.9433,-0.1391,4.2435,-3.1304
2995,1.1496,-8.5454,-4.905,-0.1391,4.5217,-3.2696
