timestamp,accX,accY,accZ,gyroX,gyroY,gyroZ
0,1.2646,-12.0326,-7.5491,-65.4609,-4.6609,-18.087
5,1.9543,-12.0326,-7.7407,-59.687,-4.8696,-17.3913
10,2.6058,-11.9559,-7.9706,-50.7826,-3.4087,-16.8348
15,3.1039,-11.7643,-8.3155,-39.2348,0.3478,-16.7652
20,3.4871,-11.2662,-8.3921,-25.7391,4.9391,-17.0435
25,3.2955,-10.9213,-8.7754,-11.3391,9.0435,-18.2261
30,3.0656,-10.3465,-8.737,2.9217,12.0348,-19.5478
35,2.8357,-9.5418,-8.5454,16.487,13.6348,-21.0783
40,2.2226,-8.8137,-8.4688,28.8696,14.2609,-22.5391
45,1.916,-8.0473,-8.2389,39.7217,14.2609,-23.7913
50,1.4562,-7.2809,-7.779,48.5565,13.8435,-24.6261
55,0.8814,-6.7061,-7.5874,54.4696,13.4261,-24.8348
60,0.4215,-6.2845,-7.3192,57.1826,13.2174,-24.2783
65,-0.0766,-6.0929,-6.936,56.4174,12.8696,-22.6783
70,-0.6131,-5.9396,-6.5528,52.2435,12.4522,-20.2435
75,-0.958,-6.2079,-6.0546,45.6348,11.3391,-16.8348
80,-1.4179,-6.4378,-5.748,37.2174,9.4609,-13.0087
85,-1.6478,-6.821,-5.3265,28.1043,6.6087,-8.7652
90,-1.916,-7.1276,-5.2116,19.2696,2.9217,-4.5217
95,-2.1076,-7.5491,-4.905,11.6174,-1.3217,-0.2087
100,-2.1459,-7.9323,-5.0583,4.8,-5.3565,4.4522
105,-2.1076,-8.2389,-5.0583,-1.113,-8.3478,9.0435
110,-1.9543,-8.5071,-5.0583,-6.4,-10.2957,14.5391
115,-1.7627,-8.6987,-4.9816,-11.2,-10.7826,18.9217
120,-1.6861,-8.737,-5.0583,-15.6522,-9.9478,23.2348
125,-1.4179,-8.967,-5.02,-19.6174,-7.9304,26.9217
130,-0.9963,-9.0053,-5.0966,-23.1652,-5.287,30.3304
135,-0.7281,-8.8903,-5.1349,-25.6696,-2.4348,32.9043
140,-0.5365,-9.1202,-5.4415,-27.0609,0.1391,34.9913
145,-0.2682,-9.1586,-5.4798,-28.5217,1.9478,36.8696
150,0.0766,-9.0053,-5.6714,-29.913,3.2696,38.1913
155,0.3832,-9.0053,-5.9013,-31.7217,3.8957,39.0957
160,0.7281,-8.8137,-6.0163,-33.9478,4.3826,39.2348
165,0.958,-8.737,-6.0163,-36.2435,4.8,39.1652
170,1.1879,-8.852,-6.0929,-38.4,5.0783,38.4696
175,1.3029,-8.852,-6.1696,-39.6522,5.287,37.7043
180,1.2646,-8.6604,-6.0163,-39.513,5.4957,36.7304
185,1.073,-8.737,-5.7097,-37.1478,5.3565,36.0348
190,1.0346,-8.7754,-5.4032,-32.2087,5.0783,35.1304
195,0.7281,-8.8903,-5.1349,-24.487,4.6609,34.4348
200,0.6131,-9.0436,-5.0583,-14.2609,4.4522,33.7391
205,0.4598,-9.1586,-4.7517,-2.3652,4.4522,33.0435
210,0.115,-9.0436,-4.7517,9.8087,4.5913,32.7652
215,0.1916,-9.0053,-4.8284,21.3565,5.1478,32.6957
220,0.0766,-8.737,-4.7134,31.4435,5.913,33.113
225,0.115,-8.5838,-4.79,39.513,6.9565,33.7391
230,-0.115,-8.0856,-4.8667,44.8696,8.0696,34.4348
235,-0.115,-7.894,-4.7517,47.7217,9.1826,35.2696
240,-0.2682,-7.3958,-4.6751,47.9304,10.2261,35.9652
245,-0.2299,-7.4725,-4.4452,45.6348,10.9913,36.6609
250,-0.4598,-6.936,-4.6751,41.5304,11.3391,37.4261
255,-0.4215,-6.7444,-4.5601,35.2696,11.4783,37.9826
260,-0.3449,-6.7827,-4.3685,27.6174,11.1304,38.1217
265,-0.4598,-6.7061,-4.3685,19.5478,10.9913,38.1913
270,-0.3832,-6.821,-4.2152,11.4087,11.0609,38.0522
275,-0.4982,-6.8977,-4.062,4.2435,11.3391,37.913
280,-0.3832,-7.0893,-3.947,-1.6696,11.8261,37.5652
285,-0.4982,-7.1276,-3.7554,-6.3304,12.7304,37.4261
290,-0.5365,-7.3575,-3.7937,-9.6,13.913,37.1478
295,-0.5748,-7.5491,-3.6404,-11.7565,15.7913,37.0087
300,-0.6131,-7.6641,-3.6787,-12.8,17.8087,36.7304
305,-0.6898,-7.779,-3.5638,-13.1478,20.0348,36.313
310,-0.9197,-7.894,-3.5638,-13.1478,22.2609,35.5478
315,-0.7281,-8.0856,-3.5638,-13.1478,24.2087,34.5739
320,-1.1113,-8.0473,-3.4871,-13.2174,25.9478,33.3913
325,-0.958,-8.1622,-3.6787,-13.2174,27.4087,32.3478
330,-0.958,-8.2005,-3.7554,-13.2174,28.9391,31.0261
335,-0.958,-8.0856,-3.7937,-13.1478,30.2609,29.1478
340,-0.9963,-8.1622,-3.7171,-12.8696,31.6522,27.3391
345,-0.6898,-8.2389,-3.7554,-12.7304,32.7652,25.5304
350,-0.6131,-8.4305,-3.6404,-12.3826,34.0174,23.1652
355,-0.6131,-8.4305,-3.7171,-11.2696,35.5478,20.6609
360,-0.3832,-8.6221,-3.5638,-9.9478,37.2174,18.2261
365,-0.1916,-8.8137,-3.7171,-8.6261,39.1652,15.513
370,-0.0383,-8.967,-3.2572,-7.3739,41.4609,12.5913
375,0.0766,-8.852,-3.1806,-3.3391,43.4087,10.4348
380,0.2299,-9.0436,-2.989,2.5043,45.2174,8.2783
385,0.4215,-9.1969,-2.874,8.9043,46.7478,5.9826
390,0.5365,-9.2352,-2.9123,15.0957,48.2087,3.4783
395,0.5365,-9.2352,-2.9123,20.6609,49.3217,1.0435
400,0.4982,-9.1586,-2.989,24.487,50.5043,-1.113
405,0.4215,-9.0436,-3.1806,26.5043,51.687,-3.3391
410,0.4215,-8.9286,-3.0656,27.1304,52.4522,-5.5652
415,0.1533,-8.967,-3.2189,26.5739,52.3826,-7.7217
420,-0.0766,-8.6987,-3.3722,25.113,51.3391,-9.5304
425,-0.4598,-8.6987,-3.5255,22.7478,49.4609,-10.7826
430,-0.6514,-8.6604,-3.6787,19.4783,47.0261,-11.4783
435,-1.1113,-8.6221,-3.947,15.5826,44.3826,-11.8261
440,-1.2263,-8.6987,-4.062,11.6174,41.7391,-11.4783
445,-1.5328,-8.8137,-3.947,7.5826,39.5826,-10.5043
450,-1.7244,-8.9286,-3.9087,3.9652,37.913,-9.113
455,-1.7627,-9.0053,-3.7937,1.3217,36.8696,-7.5826
460,-2.1843,-9.1586,-3.3722,-0.6957,36.2435,-5.6348
465,-1.7627,-9.3885,-3.4105,-2.087,35.6174,-3.4087
470,-1.7244,-9.5034,-3.1423,-3.0609,34.5043,-1.0435
475,-1.5711,-9.7334,-3.0656,-3.687,32.7652,0.9043
480,-1.4179,-10.0016,-3.0656,-4.1739,30.5391,2.7826
485,-1.2646,-10.1549,-3.0656,-4.5217,27.8957,4.5217
490,-1.073,-10.1932,-3.0656,-4.7304,24.9739,6.1913
495,-0.7664,-10.3082,-3.0273,-4.6609,22.1217,7.7913
500,-0.6131,-10.3465,-3.0656,-4.313,19.3391,8.9043
505,-0.4982,-10.4998,-2.7207,-3.687,16.9739,9.4609
510,-0.4598,-10.4614,-2.6441,-2.8522,15.2348,9.6
515,-0.3449,-10.5764,-2.3759,-1.6,14.1217,9.6
520,-0.3066,-10.768,-2.1843,0.2087,13.8435,9.5304
525,-0.2682,-10.8063,-2.1843,2.6435,14.2609,9.3913
530,-0.3066,-10.9979,-2.031,5.4957,15.3739,9.3217
535,-0.1533,-11.1895,-1.916,9.2522,17.2522,9.6696
540,-0.1916,-11.3045,-1.8011,13.5652,19.1304,9.8087
545,-0.1533,-11.3045,-1.6861,18.087,21.2174,10.087
550,-0.1533,-11.3045,-1.6478,22.887,23.1652,10.3652
555,-0.2682,-11.3811,-1.5328,27.8261,24.487,10.4348
560,-0.3066,-11.1512,-1.8777,31.8609,24.8348,10.5043
565,-0.3449,-10.883,-2.3375,33.2522,24.4174,10.9913
570,-0.4982,-10.7297,-3.1039,30.887,23.7217,12.1739
575,-0.4215,-10.653,-3.7937,24.0,23.0957,13.5652
580,-0.3832,-10.653,-4.5601,12.8,22.7478,15.3043
585,-0.2299,-10.768,-5.0966,-1.8087,22.5391,16.9739
590,-0.0383,-10.9213,-5.4032,-17.3217,23.0261,18.2957
595,-0.1533,-11.2662,-5.5948,-31.3739,23.6522,18.9913
600,-0.5365,-11.5727,-5.6331,-42.087,23.5826,18.9913
605,-0.8814,-11.8027,-5.863,-49.0435,21.4261,18.9913
610,-1.4562,-11.9559,-6.1313,-52.8696,17.6,19.3391
615,-1.8394,-12.1092,-6.3612,-54.3304,12.9391,19.8261
620,-1.8777,-12.2625,-6.4761,-53.287,8.8348,20.3826
625,-2.031,-12.5307,-6.7444,-49.5304,5.2174,21.0783
630,-2.1459,-12.5307,-6.8977,-42.9217,1.9478,21.7739
635,-2.031,-12.7223,-6.8593,-33.6696,-1.2522,22.5391
640,-2.0693,-12.6457,-6.8593,-22.1913,-4.6609,22.7478
645,-2.3759,-12.3008,-7.0126,-8.7652,-8.0,22.3304
650,-2.3759,-11.8793,-7.2425,5.3565,-11.8957,21.4261
655,-2.6058,-11.1512,-7.7024,18.9217,-15.7217,20.1043
660,-2.8357,-10.2315,-8.5071,30.4,-19.2696,18.9913
665,-2.9123,-9.2735,-8.852,39.0261,-22.4,18.6435
670,-2.9123,-8.3921,-9.0436,44.5217,-24.2783,19.2696
675,-2.9507,-7.9706,-9.1969,46.887,-24.6261,20.8
680,-2.4142,-7.4341,-8.8137,46.9565,-23.2348,22.6783
685,-2.031,-7.1276,-8.3921,45.4957,-20.2435,24.4174
690,-1.7627,-6.9743,-7.5491,43.2696,-16.5565,25.9478
695,-1.3029,-6.8977,-7.0126,41.113,-12.8696,26.9217
700,-0.6131,-7.0126,-6.3995,38.9565,-9.3217,27.2696
705,-0.1916,-7.2809,-5.8247,36.2435,-5.9826,26.7826
710,0.3066,-7.4725,-5.7097,33.3217,-2.6435,24.7652
715,0.7281,-7.8557,-5.2882,29.7739,0.5565,22.1913
720,1.1879,-8.0473,-5.1732,26.2261,2.9217,18.713
725,1.4562,-8.2005,-4.9433,22.5391,4.2435,14.1913
730,1.6478,-8.2389,-5.02,19.0609,4.313,9.2522
735,1.8011,-8.3538,-5.0583,15.3043,3.1304,3.7565
740,1.6861,-8.2772,-5.3648,10.5043,0.9739,-2.2957
745,1.4562,-8.3538,-5.5564,4.1739,-1.6696,-8.2783
750,1.0346,-8.3155,-5.6331,-3.5478,-4.3826,-13.7043
755,0.6131,-8.4688,-5.5564,-11.8957,-6.7478,-18.3652
760,0.4215,-8.5838,-5.6714,-19.9652,-8.6261,-22.0522
765,0.0,-8.737,-5.5948,-27.3391,-10.1565,-25.3913
770,-0.2299,-9.0053,-5.4415,-33.6696,-10.9217,-27.687
775,-0.4982,-9.1586,-5.5948,-39.3043,-10.9913,-29.3565
780,-0.6514,-9.3118,-5.6331,-44.1739,-10.6435,-30.9565
785,-0.958,-9.4268,-5.9396,-48.1391,-9.8783,-31.9304
790,-1.073,-9.6567,-5.6714,-50.1565,-8.9739,-32.8348
795,-1.3412,-9.5034,-5.4032,-50.087,-8.4174,-33.3913
800,-1.4945,-9.695,-5.3265,-47.0957,-8.2783,-34.0174
805,-1.5711,-9.6184,-5.0966,-41.3913,-8.9739,-34.3652
810,-1.4562,-9.6184,-5.02,-32.9739,-10.087,-34.7826
815,-1.4562,-9.4651,-4.905,-22.6783,-11.6174,-34.7826
820,-1.2646,-9.4268,-4.9433,-11.4783,-13.0783,-34.713
825,-1.1879,-9.1969,-5.0583,-0.7652,-14.1913,-34.5739
830,-0.8814,-9.0436,-5.02,10.713,-14.9565,-34.5043
835,-0.7664,-8.6604,-5.0966,18.2261,-15.4435,-34.2261
840,-0.6131,-8.3538,-5.0583,23.9304,-15.7913,-34.087
845,-0.5748,-8.0089,-5.2116,27.8957,-15.6522,-34.1565
850,-0.4982,-7.7024,-5.3265,29.9826,-15.2348,-34.1565
855,-0.2299,-7.5108,-5.2116,30.0522,-14.9565,-34.2261
860,-0.115,-7.1659,-4.9816,28.8,-14.887,-34.2261
865,-0.115,-6.9743,-4.9433,26.4348,-14.7478,-34.4348
870,0.0766,-6.7444,-4.8284,23.3043,-14.8174,-34.9913
875,0.0766,-6.4378,-4.5984,19.6174,-14.887,-35.4087
880,0.2682,-6.3612,-4.5601,15.4435,-15.0957,-35.8261
885,0.3832,-6.2462,-4.1003,10.9217,-15.6522,-36.1739
890,0.3449,-6.2462,-4.0236,5.9826,-16.7652,-36.3826
895,0.843,-6.4378,-3.7171,1.1826,-18.2261,-36.1739
900,0.5365,-6.4378,-3.6787,-3.2,-19.7565,-35.8261
905,0.6898,-6.6677,-3.5255,-7.1652,-21.4957,-35.7565
910,0.6514,-6.7444,-3.7171,-10.5739,-23.2348,-35.2696
915,0.4982,-6.936,-3.6787,-13.9826,-24.8348,-34.713
920,0.7281,-7.2042,-3.7554,-17.1826,-26.4348,-34.0174
925,0.7664,-7.3192,-3.7937,-20.1043,-28.2435,-33.5304
930,0.8814,-7.4725,-3.9087,-23.0957,-30.1913,-33.113
935,0.843,-7.5874,-4.0236,-26.087,-31.9304,-32.6957
940,0.8047,-7.7024,-4.062,-29.2174,-33.6,-32.2087
945,0.7664,-7.8173,-4.3302,-32.6261,-34.7826,-31.6522
950,0.6131,-7.779,-4.3302,-35.8957,-35.4087,-31.0261
955,0.4982,-8.0856,-4.4068,-38.6783,-35.8957,-29.9826
960,0.6131,-8.2772,-4.2536,-40.7652,-36.313,-28.6609
965,0.4598,-8.5071,-4.1386,-41.6,-36.7304,-27.0609
970,0.4598,-8.6221,-4.1386,-41.3217,-37.2174,-25.0435
975,0.4215,-8.9286,-3.7171,-39.3043,-37.7739,-22.8174
980,0.4215,-9.0819,-3.6404,-35.8957,-38.1913,-20.5913
985,0.6131,-9.3885,-3.3722,-30.7478,-38.4696,-18.2261
990,0.5365,-9.5034,-3.1423,-24.1391,-38.6087,-16.0
995,0.6131,-9.695,-2.989,-16.3478,-38.6087,-13.7739
1000,0.6514,-9.7717,-3.0273,-7.7217,-38.6783,-11.687
1005,0.7664,-9.695,-2.7207,1.2522,-38.7478,-9.7391
1010,0.6131,-9.7334,-2.9123,9.9478,-39.0261,-7.8609
1015,0.6131,-9.5801,-2.7591,17.4609,-39.513,-6.0522
1020,0.5748,-9.4268,-2.6824,23.6522,-40.2087,-4.3826
1025,0.4982,-9.3118,-2.6058,28.5217,-40.8348,-2.713
1030,0.4982,-8.8903,-2.4142,32.2087,-41.3217,-1.1826
1035,0.5365,-8.6604,-2.3759,34.3652,-41.6696,0.2783
1040,0.5748,-8.5454,-2.5291,35.6174,-41.8087,1.5304
1045,0.5365,-8.2772,-2.3759,35.8261,-41.7391,2.8522
1050,0.6131,-8.2389,-2.4908,34.8522,-41.3217,4.0348
1055,0.5365,-8.1239,-2.6441,32.8348,-40.6957,5.2174
1060,0.6898,-7.9706,-2.7207,30.2609,-39.8609,6.2609
1065,0.843,-7.9706,-2.9123,26.5043,-38.6783,7.0261
1070,1.0346,-7.894,-3.1039,21.913,-37.1478,7.3739
1075,1.1496,-7.9706,-2.989,16.7652,-35.4783,7.2348
1080,1.4179,-8.2005,-3.2572,11.2,-33.6696,6.7478
1085,1.4179,-8.3538,-3.1039,5.7043,-31.9304,5.9826
1090,1.4945,-8.4688,-3.3339,-0.1391,-30.4696,5.0783
1095,1.5328,-8.5454,-3.3339,-6.4,-29.0783,4.2435
1100,1.6095,-8.852,-3.5638,-13.0783,-27.7565,3.5478
1105,1.5711,-8.8903,-3.6021,-20.2435,-26.2957,2.6435
1110,1.8394,-8.9286,-3.9087,-27.5478,-24.6261,1.6696
1115,1.4945,-9.3118,-3.7171,-34.713,-22.5391,0.3478
1120,1.4179,-9.7334,-3.8704,-41.2522,-19.9652,-0.9739
1125,1.4179,-10.0782,-3.8704,-46.6087,-16.6261,-2.713
1130,1.2263,-10.4231,-3.7937,-50.9217,-13.1478,-4.4522
1135,1.2646,-10.768,-3.6404,-53.4957,-9.5304,-6.5391
1140,1.1113,-11.0363,-3.5638,-54.0522,-6.2609,-8.6957
1145,1.073,-11.4961,-3.4105,-52.7304,-3.5478,-11.0609
1150,1.0346,-11.6494,-3.2189,-49.7391,-1.9478,-13.4957
1155,1.073,-11.841,-3.0273,-45.3565,-1.0435,-15.9304
1160,1.1879,-11.9943,-2.8357,-39.7217,-0.6957,-18.087
1165,1.2646,-12.1859,-2.7974,-32.7652,-0.1391,-19.8957
1170,1.1496,-12.1475,-2.4908,-24.8348,0.7652,-21.4261
1175,1.3412,-12.1092,-2.2992,-16.3478,2.2957,-22.2609
1180,1.3412,-12.0709,-2.1076,-7.6522,3.9652,-22.4696
1185,1.3029,-11.9943,-1.8394,0.9043,5.4261,-22.1913
1190,1.4945,-12.0709,-1.5328,8.6957,6.3304,-21.4261
1195,1.4179,-11.9559,-1.4179,15.4435,6.6087,-21.0783
1200,1.6861,-11.7643,-1.7244,20.9391,6.6087,-20.2435
1205,1.7627,-11.9176,-1.5711,24.487,6.4,-19.2
1210,1.8394,-11.8027,-1.916,25.5304,5.8435,-18.2261
1215,1.916,-11.6877,-2.4525,23.0261,4.8696,-17.8087
1220,2.4142,-11.4195,-2.9123,16.9043,3.6174,-18.0174
1225,2.0693,-11.4195,-3.8704,6.6783,2.1565,-18.5043
1230,1.916,-11.2279,-4.5984,-7.2348,1.3913,-18.8522
1235,1.5711,-11.2662,-5.2116,-23.4435,2.1565,-19.2696
1240,1.3795,-11.4578,-5.5181,-39.513,4.5217,-19.0609
1245,1.1113,-11.6494,-5.3648,-52.5217,8.1391,-18.087
1250,1.2646,-11.7643,-5.4415,-60.5913,12.1739,-16.8348
1255,1.6478,-11.726,-5.3265,-63.513,16.1391,-16.0
1260,1.7244,-11.726,-5.4032,-62.5391,19.8261,-14.6783
1265,1.7627,-11.4961,-5.5948,-58.9217,22.6783,-13.7043
1270,1.6478,-11.2662,-5.6714,-53.913,23.9304,-13.4957
1275,1.5711,-11.1895,-5.748,-48.4174,23.513,-13.5652
1280,1.4179,-11.0363,-5.6331,-42.713,21.8435,-13.5652
1285,1.4179,-10.883,-5.863,-36.7304,19.4087,-13.287
1290,1.2646,-10.768,-5.863,-30.1217,17.1826,-13.1478
1295,1.3795,-10.6147,-6.1696,-23.0261,15.6522,-12.6609
1300,1.4179,-10.3848,-6.3229,-15.9304,14.9565,-12.4522
1305,1.4179,-10.0016,-6.7827,-8.8348,15.0957,-12.5913
1310,1.1879,-9.6567,-7.1276,-2.713,15.2348,-13.0087
1315,1.0346,-9.3502,-7.5108,2.4348,15.2348,-13.2174
1320,0.6898,-8.6604,-7.5491,6.4696,14.7478,-13.287
1325,0.843,-7.8557,-7.7407,9.6,13.9826,-12.8
1330,0.3066,-7.5108,-7.8557,11.687,13.4261,-11.6174
1335,0.1916,-7.0126,-7.8173,12.8,13.287,-10.2261
1340,0.0383,-6.6294,-7.6641,13.2174,13.8435,-8.4174
1345,-0.0766,-6.3995,-7.6641,13.2174,15.0957,-6.887
1350,-0.4215,-6.1313,-7.6641,12.4522,16.0696,-5.8435
1355,-0.6131,-5.978,-7.4725,10.0174,16.2087,-4.9391
1360,-0.6898,-6.0546,-7.2042,5.7043,15.5826,-4.2435
1365,-1.073,-6.0929,-6.936,-0.8348,14.2609,-3.0609
1370,-0.843,-6.3612,-6.7827,-8.8348,13.0087,-1.8783
1375,-0.6131,-6.5145,-6.5911,-17.6,11.6174,-1.0435
1380,-0.5365,-6.8977,-6.3995,-26.1565,10.2957,-0.0696
1385,-0.3449,-7.3192,-6.2845,-33.6,9.2522,1.1826
1390,-0.1533,-7.6257,-6.0929,-39.6522,8.5565,3.0609
1395,0.115,-8.0089,-6.2079,-44.5913,8.487,5.287
1400,0.3449,-8.5071,-5.863,-48.0,9.2522,7.6522
1405,0.5748,-8.852,-5.863,-50.713,10.9217,10.3652
1410,0.6898,-9.1586,-5.748,-51.7565,13.4957,14.1217
1415,0.7281,-9.4268,-5.748,-51.5478,16.5565,17.3913
1420,0.9197,-9.6184,-5.5948,-50.4348,19.6174,20.6609
1425,0.958,-9.7717,-5.748,-48.6957,22.4,24.0
1430,1.073,-9.695,-5.748,-46.6783,24.8348,27.7565
1435,1.4562,-9.5034,-6.0546,-44.8,26.9913,31.3739
1440,1.2646,-9.5801,-6.1696,-42.9217,28.2435,34.6435
1445,1.1879,-9.5034,-6.1313,-40.9043,29.2174,37.4261
1450,1.2263,-9.4651,-6.2462,-38.6087,29.7043,40.0
1455,1.2263,-9.2352,-5.9013,-35.7565,29.5652,42.0174
1460,0.9963,-9.0819,-5.8247,-31.3043,29.0087,43.2
1465,0.8047,-8.6604,-5.6331,-26.1565,28.0348,44.2435
1470,0.6514,-8.3921,-5.5948,-19.8261,26.8522,45.7739
1475,0.4982,-8.1239,-5.5564,-13.0783,25.8087,47.2348
1480,0.4215,-7.8557,-5.2116,-5.913,25.6696,48.5565
1485,0.3066,-7.7024,-5.02,0.8348,26.087,49.8087
1490,0.2682,-7.2809,-5.0583,7.2348,26.8522,51.2696
1495,0.0383,-7.1659,-5.02,13.0087,27.9652,52.5217
1500,-0.0766,-6.9743,-4.9433,17.5304,29.4261,53.6348
1505,-0.115,-6.821,-4.9433,20.3826,31.0261,54.3304
1510,-0.1916,-6.4378,-4.8667,21.4261,32.6957,54.8174
1515,-0.3066,-6.2462,-4.9433,20.6609,34.7826,55.4435
1520,-0.4215,-5.9396,-4.79,18.5739,37.0087,55.7217
1525,-0.6131,-5.7864,-4.7134,15.3739,39.3043,55.8609
1530,-0.6514,-5.4798,-4.6368,11.1304,41.2522,56.2087
1535,-0.8814,-5.2116,-4.6751,6.3304,42.8522,56.4174
1540,-0.9197,-4.905,-4.4835,0.6957,43.8261,56.8348
1545,-1.073,-4.7134,-4.9433,-5.913,44.9391,57.1826
1550,-1.2263,-4.8284,-4.4835,-13.4957,46.4696,57.7391
1555,-1.3029,-4.9433,-4.4835,-21.8435,48.6261,58.5043
1560,-1.1879,-5.2499,-4.4452,-30.6783,51.7565,59.3391
1565,-1.1496,-5.5948,-4.4068,-39.0261,55.3739,59.8957
1570,-0.958,-5.7864,-4.3685,-46.6783,59.3391,60.5217
1575,-0.9963,-6.1313,-4.5218,-53.1478,63.9304,61.2174
1580,-0.6898,-6.3612,-4.4452,-58.2261,68.8696,61.9826
1585,-0.7664,-6.7061,-4.5218,-61.8435,73.8087,63.0261
1590,-0.7281,-7.0893,-4.4452,-64.0696,78.4,64.3478
1595,-0.5748,-7.3192,-4.2919,-65.3217,82.3652,66.0174
1600,-0.4982,-7.5874,-4.3302,-65.5304,85.287,67.6174
1605,-0.4598,-7.9706,-4.3302,-65.7391,87.3739,69.0783
1610,-0.3832,-8.2772,-4.5601,-66.087,89.1826,70.2609
1615,-0.2682,-8.3921,-4.7134,-66.8522,90.7826,71.4435
1620,-0.2682,-8.5454,-5.0583,-67.687,92.3826,72.4174
1625,-0.4215,-8.5454,-5.7097,-68.8696,94.0522,73.113
1630,-0.5748,-8.5838,-5.9013,-71.0957,95.513,73.6
1635,-0.6514,-8.6987,-5.978,-73.6696,96.4174,74.2957
1640,-0.6898,-8.852,-6.0546,-75.6174,96.9739,75.4087
1645,-0.8047,-9.0436,-5.9013,-76.313,97.3913,77.0087
1650,-0.6131,-9.3502,-5.978,-75.5478,97.8783,78.887
1655,-0.115,-9.3885,-5.748,-72.7652,98.2957,80.7652
1660,-0.1916,-9.9633,-5.5181,-68.5913,98.3652,82.713
1665,0.1533,-10.3465,-5.2499,-63.3043,97.6,84.3826
1670,0.6131,-10.653,-5.02,-57.3913,95.8609,85.5652
1675,1.2263,-10.9213,-4.8667,-51.4087,93.2174,85.2174
1680,1.6861,-10.9979,-4.7134,-46.3304,89.6696,83.6174
1685,2.1843,-11.0746,-4.7517,-42.5043,85.6348,80.3478
1690,2.7207,-10.883,-4.7134,-39.7913,81.3913,76.1739
1695,2.874,-10.6914,-4.6751,-37.9826,76.5913,70.4696
1700,2.989,-10.4231,-4.8284,-36.3826,71.1652,63.4435
1705,2.5291,-10.1166,-4.905,-35.4783,65.6,56.2087
1710,2.031,-9.695,-5.0583,-35.8957,60.4522,49.113
1715,0.843,-9.4268,-4.8667,-37.7739,55.9304,41.8783
1720,-0.6131,-9.1969,-4.8284,-39.9304,51.6174,34.5739
1725,-1.916,-8.3921,-4.4452,-42.2957,44.5913,27.8957
1730,-2.5291,-7.894,-4.1003,-44.8,34.9913,22.8174
1735,-2.9123,-7.6641,-3.832,-47.3043,24.8348,19.3391
1740,-3.4105,-7.0893,-3.2189,-49.7391,16.0696,16.6957
1745,-3.947,-7.1659,-2.874,-50.5043,10.2957,16.0
1750,-3.9087,-7.0509,-2.5675,-48.6957,7.0957,16.9043
1755,-3.9087,-6.936,-2.6824,-45.4261,5.4957,17.7391
1760,-3.5255,-7.1276,-2.2609,-40.7652,5.4261,17.6696
1765,-3.4871,-7.0893,-2.7207,-35.8957,6.1217,16.3478
1770,-3.5255,-6.7827,-2.874,-32.7652,7.1652,14.6087
1775,-3.1039,-6.821,-3.1423,-31.513,8.5565,13.287
1780,-2.9507,-6.936,-3.5255,-34.6435,10.3652,8.7652
1785,-2.7974,-7.1659,-3.832,-44.1043,13.287,0.0
1790,-2.5675,-7.7407,-4.1003,-56.4174,17.7391,-10.087
1795,-2.4142,-8.2389,-4.4452,-67.6174,24.9739,-19.6174
1800,-2.4908,-8.4688,-4.7134,-76.5217,33.4609,-28.1739
1805,-2.6441,-8.4688,-5.5948,-83.3391,40.4174,-35.7565
1810,-3.0656,-7.9706,-6.6677,-88.487,44.2435,-42.9913
1815,-3.7937,-7.2042,-7.8557,-94.7478,44.3826,-49.8087
1820,-4.4068,-6.5145,-8.6604,-102.4696,39.5826,-55.513
1825,-4.905,-5.5564,-9.4651,-110.0522,29.7739,-60.8696
1830,-5.4798,-4.6368,-9.6184,-116.2435,16.3478,-65.113
1835,-5.8247,-3.947,-10.0399,-119.8609,1.1826,-66.0174
1840,-5.5564,-3.3339,-10.2698,-120.5565,-12.8696,-63.8609
1845,-4.8667,-2.7974,-10.2698,-117.3565,-22.8174,-60.8
1850,-3.9087,-2.1843,-10.2315,-109.4957,-26.6435,-57.4609
1855,-2.9507,-1.8011,-9.695,-94.5391,-23.3739,-53.8435
1860,-1.8011,-1.4945,-9.3885,-72.0696,-14.5391,-49.6
1865,-0.5365,-1.3029,-8.6987,-44.5217,-2.3652,-44.7304
1870,0.843,-0.6898,-8.2005,-15.2348,11.0609,-40.2087
1875,2.0693,-1.2646,-6.936,12.2435,22.5391,-36.7304
1880,2.874,-1.4179,-6.0929,34.1565,28.9391,-35.5478
1885,2.9507,-1.8394,-5.1732,47.9304,28.313,-37.4957
1890,2.4525,-2.7591,-4.8284,53.7739,20.8,-41.7391
1895,1.8011,-4.062,-4.6368,53.0783,7.8609,-48.7652
1900,0.5748,-5.2116,-4.6751,49.3913,-9.3913,-56.7652
1905,-0.3066,-6.3229,-5.5181,44.1043,-30.0522,-63.5826
1910,-1.1879,-6.821,-6.821,36.5913,-52.313,-69.7739
1915,-2.2992,-6.7444,-8.3155,25.3913,-73.5304,-74.4348
1920,-3.2955,-6.5911,-9.5801,9.9478,-91.8261,-75.9652
1925,-4.5218,-6.0546,-10.8446,-8.487,-107.7565,-73.5304
1930,-5.1732,-5.5948,-12.3008,-28.8696,-122.2261,-68.0348
1935,-5.4415,-5.02,-13.4888,-52.6609,-134.6783,-61.8435
1940,-5.6331,-4.5218,-14.83,-80.7652,-143.7913,-57.2522
1945,-6.2462,-4.062,-16.0179,-112.8348,-147.8261,-53.3565
1950,-6.2845,-4.1386,-16.6693,-148.5913,-146.2957,-47.6522
1955,-6.0546,-4.5218,-16.8609,-185.7391,-140.0348,-41.6
1960,-5.2499,-5.2499,-16.2478,-219.4087,-129.113,-37.6348
1965,-4.2536,-6.2845,-15.4431,-244.6609,-113.6696,-38.9565
1970,-3.3339,-7.8173,-14.7533,-259.2696,-96.6957,-45.8435
1975,-1.8394,-10.4231,-14.6,-264.9739,-81.8783,-58.713
1980,-0.6898,-12.799,-15.1365,-266.7826,-69.8435,-78.9565
1985,0.2682,-15.4431,-15.0982,-266.7826,-59.1304,-106.1565
1990,0.9963,-17.6657,-14.5617,-262.4,-49.3913,-136.1391
1995,0.9197,-19.505,-14.1785,-248.8348,-41.7391,-165.3565
2000,1.0346,-20.9995,-14.6384,-220.9391,-36.3826,-190.9565
2005,0.2682,-21.7659,-14.9832,-181.9826,-32.3478,-212.8
2010,-0.115,-22.1491,-15.558,-133.7739,-27.2,-228.2435
2015,-0.4598,-22.3024,-15.5964,-81.8087,-23.5826,-234.5043
2020,-0.2682,-22.6856,-14.9832,-30.1913,-22.887,-233.2522
2025,0.0766,-22.609,-14.6384,17.9478,-26.7826,-229.5652
2030,0.1916,-22.1875,-14.6384,57.4609,-34.713,-225.4609
2035,0.3449,-21.7276,-14.3701,83.4087,-45.913,-220.2435
2040,0.2682,-21.1528,-13.9869,95.513,-59.2,-211.8957
2045,0.7664,-20.2714,-13.3738,96.487,-73.3913,-198.6783
2050,1.916,-19.5817,-12.2625,92.313,-87.3739,-181.4261
2055,3.4488,-18.547,-11.4578,88.487,-98.713,-162.1565
2060,5.2882,-17.6657,-10.653,86.2609,-103.7217,-142.0522
2065,6.7061,-16.3245,-9.7717,84.7304,-102.2609,-125.0087
2070,7.3192,-14.6384,-8.4688,83.0609,-96.6957,-111.5826
2075,7.8173,-13.4888,-6.821,81.2522,-88.8348,-97.6
2080,8.5071,-11.8027,-5.863,80.487,-79.1652,-85.5652
2085,8.6987,-10.4614,-4.7134,81.6696,-68.9391,-74.2261
2090,9.0053,-9.3502,-3.7937,86.887,-57.7391,-65.113
2095,8.8903,-8.2389,-3.7554,95.5826,-45.8435,-58.3652
2100,8.737,-7.4341,-3.7937,103.4435,-33.1826,-51.0609
2105,8.7754,-6.936,-3.5255,108.0348,-22.8174,-42.0174
2110,8.6987,-6.5145,-3.1423,110.6087,-12.1739,-33.7391
2115,8.5454,-5.9396,-2.1843,112.0696,-1.4609,-27.1304
2120,8.0473,-5.4032,-1.1496,114.9913,9.4609,-21.913
2125,7.3575,-4.905,0.0383,120.2087,19.687,-17.9478
2130,6.5145,-4.5218,1.4945,129.4609,28.5217,-14.4
2135,5.3648,-4.0236,2.8357,143.6522,34.9913,-12.1739
2140,4.062,-3.4105,3.7937,162.8522,38.2609,-12.1043
2145,2.989,-2.7591,4.3302,185.7391,37.0783,-13.3565
2150,1.4562,-1.6478,4.3685,207.8609,31.513,-15.0261
2155,-0.1533,-0.4982,3.6021,225.4609,22.887,-14.4
2160,-1.7244,0.7281,3.2955,234.9913,12.313,-12.5913
2165,-3.0656,1.7244,2.7974,235.8261,1.1826,-10.1565
2170,-4.2919,2.6441,2.1843,230.7478,-8.6261,-8.2783
2175,-4.9816,3.4488,0.7664,222.1217,-14.7478,-6.6783
2180,-4.9816,4.2152,-1.1496,208.2783,-16.6261,-6.3304
2185,-5.0583,4.7517,-2.8357,187.5478,-16.0696,-8.7652
2190,-4.79,5.1349,-3.947,162.6435,-15.513,-13.1478
2195,-4.4452,5.2116,-4.2919,139.7565,-16.9739,-16.7652
2200,-4.062,5.0583,-3.7554,123.2,-20.3826,-18.8522
2205,-3.4871,4.905,-3.1039,115.2696,-22.8174,-20.8
2210,-2.9507,4.4452,-2.8357,115.1304,-21.7739,-23.0261
2215,-2.2226,4.4068,-2.989,116.7304,-17.4609,-22.7478
2220,-1.0346,4.062,-4.5218,115.0609,-11.687,-19.1304
2225,0.3066,3.4488,-7.3958,101.0783,-5.0783,-13.4957
2230,-0.0766,3.0656,-10.6147,72.3478,3.3391,-9.5304
2235,-1.3412,2.7591,-13.3355,34.5739,15.2348,-6.7478
2240,-2.6058,2.7974,-14.6767,-6.0522,28.3826,-2.7826
2245,-2.7207,3.2955,-15.0599,-43.1304,38.3304,0.9043
2250,-2.3759,3.2189,-14.9832,-72.4174,41.7391,2.8522
2255,-1.4562,2.031,-14.0252,-94.5391,35.4087,4.1739
2260,-0.2682,-0.3449,-12.5307,-111.3739,15.5826,3.4783
2265,1.3412,-3.3722,-11.7643,-127.1652,-20.5217,-3.4783
2270,2.5291,-6.7061,-12.1092,-149.4957,-70.8174,-19.6174
2275,3.6404,-10.0782,-14.1402,-185.1826,-123.6174,-41.0435
2280,3.947,-13.2588,-17.3591,-239.7913,-160.0,-61.913
2285,4.1769,-16.2095,-20.4247,-311.2348,-165.0087,-77.0783
2290,3.4871,-17.7806,-22.7623,-386.5043,-136.6261,-81.8783
2295,2.2609,-17.9339,-24.8316,-455.0957,-87.3043,-72.0
2300,-0.2299,-16.4011,-24.9465,-501.913,-35.0609,-50.5043
2305,-3.8704,-15.558,-23.8736,-509.3565,3.8261,-26.0174
2310,-5.9013,-16.2095,-23.5287,-475.4783,16.0696,-13.913
2315,-7.1659,-16.8226,-24.3334,-414.5391,2.9913,-24.1391
2320,-7.0509,-16.3245,-26.0195,-339.8957,-20.8696,-43.687
2325,-4.9433,-15.3664,-27.1691,-258.5739,-44.1043,-53.5652
2330,-1.9927,-14.5234,-27.514,-168.7652,-60.313,-49.4609
2335,-0.0383,-14.7533,-26.8242,-66.5043,-65.2522,-39.4435
2340,1.3795,-15.2132,-24.8316,44.0348,-59.6174,-31.7217
2345,2.0693,-15.1365,-22.1875,150.1217,-49.1826,-27.9652
2350,2.3375,-14.5617,-19.5434,240.2783,-38.4696,-26.087
2355,2.6824,-13.2205,-16.6693,310.1217,-28.4522,-23.3739
2360,3.4488,-11.2662,-13.9869,363.2696,-19.6174,-18.8522
2365,3.947,-9.0053,-11.841,402.5043,-13.1478,-14.2609
2370,3.7937,-6.7061,-9.925,427.8957,-9.113,-12.1043
2375,3.0656,-4.4835,-9.3118,439.8609,-6.1217,-10.8522
2380,2.4142,-2.8357,-8.852,437.1478,-3.5478,-8.0696
2385,1.6478,-2.0693,-9.0819,417.3217,-0.9739,-3.2
2390,1.0346,-1.6478,-9.2735,380.1739,2.713,3.6174
2395,0.4982,-1.8011,-9.0819,327.513,7.3043,11.5478
2400,0.3832,-2.031,-8.7754,262.887,11.7565,19.4783
2405,0.8047,-2.5675,-7.6257,192.0696,14.887,26.3652
2410,1.3795,-3.2189,-5.7097,125.6348,14.9565,30.5391
2415,1.5328,-3.7937,-4.2536,74.0174,12.5217,30.7478
2420,1.8777,-4.8284,-4.1003,36.3826,9.0435,31.4435
2425,1.9927,-5.8247,-3.6021,4.6609,6.5391,35.0609
2430,2.031,-6.936,-3.2955,-19.5478,5.4261,40.9043
2435,2.1459,-8.0089,-3.2955,-36.8696,5.0783,45.3565
2440,2.0693,-8.8903,-3.9087,-50.9217,6.0522,48.0
2445,1.8777,-9.3502,-4.4452,-65.3217,9.6696,49.5304
2450,1.4562,-9.3885,-5.0583,-82.087,15.6522,50.2957
2455,1.2646,-9.3502,-5.3648,-101.6348,23.7913,52.5217
2460,1.3029,-9.2352,-5.5948,-120.1391,34.2957,56.9043
2465,1.3412,-8.7754,-6.0546,-136.2783,44.8696,58.9913
2470,1.0346,-8.4688,-6.5145,-149.4261,54.4696,60.1043
2475,0.9963,-8.1622,-6.8593,-157.7043,62.7478,63.0957
2480,0.8814,-7.6257,-7.1659,-161.3217,68.8696,66.2957
2485,1.1879,-7.5108,-7.4725,-160.9043,71.7217,68.4522
2490,1.3029,-7.4725,-7.5874,-156.6609,72.0,68.8696
2495,1.3412,-7.3575,-7.5491,-149.3565,70.5391,68.5913
2500,1.5711,-7.4725,-7.0509,-139.1304,68.313,68.5913
2505,1.3795,-8.0473,-7.3192,-124.8696,65.6,68.6609
2510,1.2263,-8.5071,-6.7061,-106.0174,63.1652,70.3304
2515,1.073,-9.3885,-5.978,-81.3913,62.4696,75.8261
2520,1.1113,-10.1549,-4.9816,-51.4087,64.487,84.8
2525,1.2263,-10.883,-4.1769,-16.9043,69.3565,94.1217
2530,1.073,-11.3811,-3.1423,21.3565,75.6174,102.0522
2535,1.0346,-11.7643,-2.2992,62.0522,83.0609,108.8696
2540,1.1496,-11.7643,-1.4562,104.0696,90.7826,114.2957
2545,1.6095,-11.6877,-1.1879,147.2,98.713,118.5391
2550,2.1076,-11.4961,-1.073,190.1913,106.4348,120.487
2555,2.5291,-10.8063,-1.2263,230.1217,113.2522,120.0696
2560,2.874,-9.6184,-1.7627,265.6,118.8174,117.913
2565,3.1806,-8.1239,-2.1076,296.0,123.4783,114.8522
2570,3.3722,-6.5528,-2.6441,321.4609,127.7217,112.1391
2575,3.7554,-4.7517,-3.1039,340.4522,131.7565,109.5652
2580,4.062,-3.3339,-3.4488,350.8174,134.9565,104.4174
2585,3.947,-1.9927,-3.6787,351.3043,136.1391,95.0261
2590,3.4105,-0.5748,-3.7937,341.8435,136.1391,83.6174
2595,2.989,0.5748,-3.6404,322.5043,135.4435,72.5565
2600,2.2226,1.7627,-3.3722,295.0261,132.3826,61.3565
2605,0.8814,2.4142,-3.6404,261.0087,126.0522,51.9652
2610,-0.3449,2.8357,-3.6404,219.9652,117.287,47.513
2615,-1.0346,3.1039,-3.6021,174.6087,107.8261,46.1913
2620,-1.3795,3.6021,-3.7937,129.8783,98.6435,43.1304
2625,-1.9543,3.6404,-4.5601,86.8174,88.487,32.7652
2630,-2.7974,3.3722,-4.8667,41.8087,79.513,22.887
2635,-2.8357,2.4908,-4.79,-3.687,72.9043,17.7391
2640,-2.4525,1.1113,-4.7517,-45.7739,69.0087,14.9565
2645,-2.3375,-0.8047,-4.8284,-82.713,67.687,10.3652
2650,-2.3375,-2.4908,-4.062,-113.8783,69.7739,6.8174
2655,-2.7207,-4.2536,-2.7974,-132.5913,75.2,3.2
2660,-3.7937,-6.1313,-1.916,-134.5391,81.1826,-0.9043
2665,-5.0966,-7.894,-1.7244,-124.313,86.6087,-0.487
2670,-5.5181,-9.4268,-0.9963,-106.2261,89.8087,3.2696
2675,-5.2499,-10.5764,-1.2646,-83.4783,89.4609,7.0957
2680,-4.6368,-10.768,-1.6861,-60.4522,85.9826,8.1391
2685,-4.3685,-10.4231,-3.1423,-38.1913,81.3217,7.3043
2690,-3.947,-9.4651,-5.0583,-21.913,75.7565,8.3478
2695,-3.7171,-8.0856,-7.9706,-15.3739,68.3826,9.3913
2700,-3.7937,-6.4761,-11.1895,-22.1217,58.9913,10.4348
2705,-3.3722,-4.79,-14.5234,-42.7826,48.7652,12.3826
2710,-2.9507,-3.4871,-16.9376,-73.6,39.3043,13.7739
2715,-3.2572,-2.7974,-18.4704,-108.5913,33.2522,13.3565
2720,-3.3722,-2.1843,-20.0798,-144.9043,29.3565,14.2609
2725,-3.4105,-2.4908,-21.1528,-184.0696,24.3478,16.8348
2730,-3.2955,-3.7171,-21.4594,-225.5304,21.6348,20.1739
2735,-3.0656,-5.978,-19.9266,-265.8783,21.6348,25.6
2740,-2.5291,-9.81,-17.2825,-295.5826,24.7652,32.2783
2745,-1.8394,-14.5234,-14.0636,-305.8087,28.3826,36.4522
2750,-1.3795,-19.4284,-10.8063,-294.7478,29.9826,37.8435
2755,-0.6898,-22.8772,-8.4305,-249.6,27.2696,37.5652
2760,-0.3066,-24.3334,-7.3575,-187.8957,15.3043,30.3304
2765,-0.1533,-23.9119,-8.3155,-114.1565,-7.0957,17.2522
2770,-0.115,-22.4174,-10.1549,-41.8783,-33.9478,4.8696
2775,0.0383,-20.6163,-12.3008,19.7565,-57.5304,-3.7565
2780,0.4598,-18.5854,-14.3701,68.1043,-72.2783,-9.2522
2785,1.1879,-16.631,-15.2898,106.2957,-74.9217,-11.1304
2790,2.2226,-14.9449,-15.8263,138.1565,-65.3217,-10.2261
2795,2.3759,-13.4121,-15.9029,165.1478,-47.7217,-8.5565
2800,1.8011,-12.0709,-14.9449,187.2696,-28.3826,-6.4
2805,1.4945,-10.9979,-13.9869,204.313,-10.7826,-2.5739
2810,1.6095,-10.2315,-12.4158,216.2783,3.4087,0.9043
2815,1.8777,-9.4651,-11.1512,221.6348,14.7478,2.5739
2820,2.3375,-8.967,-10.1549,220.3826,24.2783,2.087
2825,2.4525,-8.1239,-8.9286,213.2174,31.2348,-0.2087
2830,2.1076,-7.4341,-7.7407,201.3913,34.5739,-3.687
2835,1.7627,-6.9743,-6.7827,186.5043,34.4348,-7.1652
2840,1.2263,-6.4761,-5.863,170.713,31.0261,-10.2957
2845,0.7281,-5.978,-5.5181,154.5739,25.113,-13.0087
2850,0.4215,-5.863,-5.1349,137.7391,17.6696,-15.2348
2855,0.1916,-5.6331,-4.9816,120.2087,10.4348,-16.6957
2860,0.115,-5.5181,-4.8284,102.6783,3.9652,-18.2957
2865,0.3066,-5.5948,-4.905,85.4957,-2.087,-19.8957
2870,-0.2299,-5.5948,-4.905,69.4957,-6.9565,-21.287
2875,-0.5748,-5.5181,-4.6368,55.513,-9.3913,-19.8261
2880,-0.7281,-5.6331,-4.7134,43.687,-10.713,-17.0435
2885,-1.1879,-5.5564,-4.6751,33.3217,-12.1739,-15.3043
2890,-1.6095,-5.4798,-4.6751,23.5826,-14.6087,-13.9826
2895,-1.9543,-5.4032,-4.7134,14.8174,-17.2522,-13.4957
2900,-1.9927,-5.1349,-4.8284,6.6087,-20.1739,-14.3304
2905,-2.2992,-5.02,-4.79,-2.087,-23.0261,-15.7217
2910,-2.3375,-4.6368,-4.7517,-11.4783,-26.3652,-17.1826
2915,-2.1076,-4.5218,-4.79,-21.5652,-29.913,-18.6435
2920,-2.1076,-4.4835,-4.6368,-32.5565,-32.9739,-20.8696
2925,-1.8777,-4.4835,-4.5601,-42.7826,-35.4783,-23.5826
2930,-1.6861,-4.5601,-4.4452,-50.5043,-37.287,-26.713
2935,-1.1496,-4.905,-3.9853,-55.3739,-38.1913,-30.1217
2940,-0.6514,-5.2499,-3.9853,-57.0435,-37.9826,-33.3217
2945,-0.3449,-5.6331,-3.6021,-55.9304,-37.2174,-36.4522
2950,0.2682,-6.0163,-3.4105,-51.9652,-36.313,-39.7913
2955,0.4982,-6.3995,-3.2955,-45.5652,-35.7565,-43.8261
2960,0.9197,-6.5145,-3.6021,-37.287,-35.8957,-47.1652
2965,1.2646,-6.7444,-3.6021,-28.313,-36.5913,-49.7391
2970,1.2646,-6.7444,-3.5638,-19.2,-37.913,-51.2
2975,1.3029,-6.9743,-4.1386,-10.8522,-40.0696,-52.313
2980,1.3029,-6.3229,-3.5638,-1.8087,-42.4348,-54.3304
2985,1.1879,-6.2845,-3.4871,12.8,-43.9652,-57.6
2990,1.0346,-6.4378,-4.0236,25.6,-46.3304,-58.713
2995,0.6898,-6.5145,-4.2152,32.9739,-48.7652,-57.6
