timestamp,accX,accY,accZ,gyroX,gyroY,gyroZ
0,-4.3685,-20.7313,-10.3082,-41.6696,-21.9826,52.313
5,-4.1386,-20.0415,-9.3885,-43.8957,-19.1304,45.913
10,-3.5638,-19.2751,-8.3538,-46.7478,-16.487,39.0261
15,-3.3339,-18.547,-7.5874,-48.6261,-13.7739,32.0696
20,-2.8357,-17.3974,-6.5911,-49.8087,-11.1304,25.6
25,-2.1843,-16.0179,-5.4415,-49.6696,-8.0696,18.713
30,-1.6478,-14.5617,-4.4835,-47.7217,-4.8696,11.5478
35,-1.1113,-13.1439,-3.3722,-44.3826,-1.9478,5.287
40,-0.958,-12.1092,-2.7207,-40.9739,0.3478,-1.5304
45,-1.0346,-10.7297,-2.1076,-39.6522,1.5304,-8.8348
50,-1.5328,-9.1969,-1.3029,-41.2522,2.2957,-16.487
55,-1.916,-7.3192,-0.8047,-46.6783,2.5739,-23.2348
60,-2.0693,-5.8247,-0.3066,-57.113,4.0348,-28.3826
65,-2.2226,-4.0236,0.0383,-73.7391,8.0,-30.6783
70,-2.4142,-3.0656,0.6131,-97.1826,13.4957,-30.0522
75,-2.1459,-3.4488,0.7281,-124.5217,17.6696,-27.9652
80,-1.9543,-4.6751,0.6898,-148.7304,18.2261,-26.8522
85,-1.8011,-5.8247,0.6898,-160.2087,17.8087,-26.8522
90,-1.4945,-6.821,0.5748,-151.3739,20.8,-26.2261
95,-1.2646,-6.821,0.3066,-122.713,27.8261,-25.2522
100,-0.9197,-5.7097,0.0,-82.0174,35.2696,-23.9304
105,-0.7281,-4.5218,-0.115,-40.9739,38.1913,-22.1913
110,-0.4215,-4.0236,0.2299,-9.3913,33.7391,-21.3565
115,0.2682,-3.7937,1.1496,9.3913,23.7217,-21.0087
120,1.073,-3.5255,2.3375,19.8261,13.287,-19.687
125,1.8777,-3.4488,3.0656,26.4348,6.6087,-17.0435
130,2.4142,-2.989,3.832,32.6957,5.7043,-14.1217
135,2.7591,-2.3759,4.4452,39.9304,9.8087,-12.8
140,3.0273,-1.4945,4.5218,47.513,16.8348,-13.7043
145,2.989,-0.2299,4.4835,53.8435,23.9304,-16.487
150,3.1039,0.7281,3.947,57.7391,29.287,-20.3826
155,3.0656,1.1496,3.3722,59.1304,32.8348,-25.3217
160,2.9123,1.9927,2.4142,59.2,35.687,-31.7913
165,2.4142,2.6441,0.9963,58.713,38.6783,-37.9826
170,1.3795,2.9507,0.1533,58.0174,41.8087,-43.2
175,0.0,3.7171,-0.8814,58.7826,44.1739,-47.1652
180,-1.0346,4.0236,-1.3412,62.2609,45.287,-46.5391
185,-2.1459,3.7937,-1.9543,67.6174,45.8435,-42.0174
190,-2.9507,3.5255,-2.4142,71.7913,46.8174,-38.3304
195,-3.3339,3.2955,-3.2189,73.9478,47.3043,-36.2435
200,-3.5638,3.2955,-4.79,74.9913,45.7739,-34.8522
205,-3.0273,3.1806,-6.0929,75.4783,41.113,-34.9913
210,-3.947,3.2189,-9.5801,75.4783,32.5565,-36.3826
215,-8.6604,3.4871,-13.9486,72.9739,19.687,-35.0609
220,-15.7496,3.2572,-20.1948,63.3043,-2.087,-28.1043
225,-19.3518,2.1459,-22.8389,44.5217,-44.2435,-17.0435
230,-16.0562,-1.3029,-21.9575,24.9043,-105.0435,-5.0783
235,-6.5911,-7.3192,-14.4084,17.3913,-149.3565,15.2348
240,-1.1496,-13.7187,-8.2005,33.113,-146.9217,45.6348
245,0.3066,-18.9302,-5.4032,58.9217,-126.4696,77.3565
250,0.2299,-21.2295,-4.9816,74.6435,-122.2261,103.3043
255,0.7664,-21.3444,-6.936,73.4609,-136.487,119.7217
260,2.1076,-19.1985,-10.0782,57.5304,-154.713,124.1739
265,4.9816,-17.1675,-12.9906,32.9739,-163.0609,120.9739
270,7.0509,-16.2095,-15.2515,7.0261,-156.2435,103.7217
275,6.3229,-15.8263,-16.4394,-15.4435,-137.4609,70.9565
280,3.3722,-16.8226,-17.1675,-28.1739,-108.5913,36.1739
285,0.4215,-19.2751,-15.788,-31.5826,-71.9304,10.9913
290,-2.1076,-20.9995,-14.4084,-25.9478,-36.2435,-5.6348
295,-3.3339,-21.0379,-13.3738,-12.7304,-7.8609,-21.287
300,-4.3685,-19.735,-11.8793,1.113,10.6435,-36.8
305,-4.6368,-17.8956,-11.2662,11.0609,18.2261,-49.3913
310,-4.4835,-16.0562,-10.4998,17.113,16.4174,-57.3913
315,-4.3685,-14.0252,-9.8866,23.9304,9.0435,-60.5913
320,-4.062,-12.1859,-9.3118,34.2957,0.9739,-60.4522
325,-3.947,-9.7717,-8.2389,48.2087,-5.8435,-57.6696
330,-3.6021,-7.5491,-7.5491,62.1217,-12.0348,-54.1913
335,-3.5255,-6.3995,-6.4378,72.2783,-17.7391,-49.7391
340,-3.1806,-5.5948,-5.3265,77.5652,-24.6957,-44.4522
345,-2.7591,-5.02,-4.8284,77.913,-30.6783,-39.1652
350,-1.8394,-4.79,-4.4068,72.7652,-35.4783,-35.2696
355,-0.8814,-4.3685,-4.7517,58.2957,-37.287,-33.7391
360,-0.1916,-3.832,-5.4798,38.4,-35.8957,-35.8261
365,-0.115,-3.4871,-6.3612,10.6435,-32.1391,-40.5565
370,-0.3449,-3.3722,-6.3612,-23.4435,-27.4087,-46.3304
375,0.0,-3.9087,-6.2462,-59.0609,-21.9826,-51.687
380,0.2299,-5.02,-5.6331,-90.6435,-15.0957,-55.513
385,0.1533,-6.5528,-4.79,-114.4348,-6.6087,-58.2957
390,0.3832,-7.894,-4.3685,-129.6,2.9217,-59.9652
395,0.3832,-9.81,-3.9087,-136.3478,12.2435,-61.1478
400,0.6131,-11.5344,-3.832,-136.1391,19.9652,-62.887
405,0.8047,-12.799,-4.3302,-130.2957,25.2522,-65.2522
410,0.8814,-13.7187,-4.6368,-120.2087,28.7304,-67.687
415,1.0346,-14.0636,-5.1732,-106.087,30.2609,-70.1217
420,0.9197,-14.4084,-5.5181,-88.8348,30.1913,-72.4174
425,0.6514,-14.1402,-5.5948,-70.6783,29.8435,-73.3217
430,0.3449,-13.872,-5.4798,-51.687,29.1478,-72.9043
435,0.3066,-13.4504,-5.2116,-31.6522,27.9652,-71.0261
440,0.3832,-12.8373,-4.905,-10.7826,26.087,-66.8522
445,0.3449,-11.6494,-4.4452,10.2957,23.6522,-61.8435
450,0.3066,-10.2698,-4.062,29.8435,20.7304,-54.8174
455,0.6131,-8.8903,-3.5255,46.4,17.7391,-47.2348
460,1.1113,-7.4341,-3.1806,58.3652,14.4,-41.1826
465,1.3029,-6.4761,-2.9507,64.6957,11.5478,-37.0087
470,1.4562,-5.5181,-2.5675,65.2522,10.4348,-34.8522
475,1.9543,-4.4068,-2.4908,60.9391,11.4087,-34.713
480,2.1076,-3.6404,-2.0693,50.9913,14.1217,-34.6435
485,2.4908,-3.2189,-1.8777,37.3565,19.2,-34.9913
490,2.6824,-2.4525,-1.4179,22.6783,26.087,-36.2435
495,2.8357,-2.1076,-1.1113,9.1826,33.9478,-37.6348
500,2.7207,-1.8394,-0.7664,-2.2957,42.0174,-37.9826
505,2.4525,-1.7627,-0.3066,-10.5739,49.5304,-37.5652
510,2.031,-1.9543,-0.115,-15.4435,55.513,-35.687
515,1.6095,-2.0693,0.0383,-17.3913,59.1304,-32.5565
520,1.0346,-2.4142,0.3832,-16.7652,60.2435,-27.4087
525,0.5365,-2.7591,0.9963,-13.2174,58.9217,-20.3826
530,-0.1533,-3.0656,1.0346,-6.7478,55.5826,-12.4522
535,-0.5748,-3.3722,1.3795,1.1826,50.713,-3.8957
540,-1.1113,-3.6404,1.4945,9.8783,44.1043,4.5217
545,-1.4562,-4.062,1.4945,19.4087,35.8957,12.5913
550,-1.4562,-4.4452,1.6861,29.9826,26.3652,19.3391
555,-1.5328,-4.6751,1.5711,41.3913,16.7652,24.7652
560,-1.2263,-4.8284,1.4179,54.887,9.5304,29.913
565,-1.0346,-4.7517,1.6478,70.1913,5.2174,33.6
570,-0.8814,-4.4835,1.5328,86.6783,3.7565,35.7565
575,-0.3832,-4.2536,1.5711,103.0957,3.5478,36.5217
580,0.0,-3.947,1.6095,116.9391,3.0609,35.687
585,0.3832,-3.6787,1.073,126.6783,0.9739,33.5304
590,0.6131,-3.3339,0.3066,130.6435,-2.5739,30.6087
595,0.8814,-2.5291,-1.4945,129.9478,-6.9565,28.7304
600,0.7281,-0.958,-5.7864,124.9391,-11.687,28.313
605,0.3449,0.3449,-8.1622,115.687,-15.5826,32.5565
610,1.0346,1.6478,-14.1402,105.6,-18.5043,39.7217
615,3.4488,2.874,-22.9922,89.9478,-19.2,40.9739
620,7.1276,4.4452,-32.5723,54.1217,-4.7304,31.7217
625,8.5454,4.5601,-34.9864,-5.287,33.0435,13.0783
630,6.8977,2.2226,-28.357,-67.2696,76.2435,-7.7217
635,4.1769,-7.0893,-12.2625,-99.687,106.9913,-20.8
640,3.6021,-18.7003,3.832,-88.9043,117.5652,-26.1565
645,3.4488,-26.0195,9.1969,-36.8,109.6348,-32.9739
650,2.2226,-27.514,7.3192,28.313,104.4174,-41.8783
655,0.4215,-26.0195,0.3832,76.5913,118.9565,-48.3478
660,-2.0693,-21.651,-8.1239,91.2696,133.4957,-61.0087
665,-7.9323,-17.2058,-14.4468,68.5217,125.1478,-83.8261
670,-12.8756,-14.715,-14.8683,23.5826,93.6348,-100.313
675,-10.5764,-12.8373,-13.1822,-13.7739,55.7217,-94.7478
680,-4.5601,-11.2279,-12.3391,-22.3304,30.6087,-73.6
685,-1.916,-12.0709,-11.8793,-10.713,24.2087,-39.8609
690,-0.6131,-13.5654,-10.9213,2.6435,20.1043,-15.3739
695,0.4215,-14.7533,-9.4651,14.9565,6.7478,0.5565
700,0.9963,-14.6767,-9.1969,32.7652,-19.2,11.2696
705,1.916,-14.0636,-9.2352,55.4435,-43.2,19.6174
710,3.1806,-12.799,-9.8483,79.2348,-60.5913,24.7652
715,3.7937,-11.4961,-10.653,104.9043,-66.8522,25.7391
720,3.5638,-10.2698,-10.8063,120.0696,-62.887,23.2348
725,3.1039,-9.5418,-10.4614,125.7739,-51.8957,18.8522
730,2.1076,-8.6604,-9.1202,123.4087,-38.5391,13.0087
735,0.6514,-8.0856,-7.3192,115.4783,-27.8957,7.5826
740,-0.7281,-8.1622,-6.1696,103.6522,-22.7478,3.6174
745,-1.4945,-8.3538,-5.6331,87.3739,-22.4,0.7652
750,-1.7627,-8.737,-5.4032,67.1304,-23.8609,-1.4609
755,-1.1879,-8.7754,-5.863,44.5913,-23.8609,-2.713
760,-0.5748,-9.2352,-6.3612,20.8696,-21.4957,-2.713
765,-0.0766,-9.8483,-6.5528,-4.5217,-17.3217,-3.2
770,-0.1533,-10.2315,-6.5911,-31.0957,-13.0087,-3.8261
775,-0.0383,-9.8866,-6.936,-54.1217,-8.7652,-1.6
780,0.3066,-9.1969,-7.3192,-70.2609,-4.9391,6.1217
785,0.8047,-9.5418,-6.7827,-80.0,-4.5217,15.3043
790,0.9963,-10.4231,-6.0929,-83.5478,-9.3913,22.4
795,1.1113,-11.2662,-5.5181,-82.3652,-15.9304,27.687
800,1.1879,-12.2625,-5.0583,-79.3739,-20.0348,30.7478
805,1.1496,-13.2971,-4.8667,-74.713,-21.7043,31.513
810,1.1113,-13.8336,-4.8284,-66.2261,-23.3043,31.7913
815,1.1113,-14.0636,-5.1349,-53.1478,-26.1565,31.7913
820,1.073,-13.9869,-5.2116,-36.2435,-29.7739,31.3043
825,1.3029,-13.642,-5.2116,-17.5304,-32.6957,29.4261
830,1.3412,-12.8756,-5.02,0.9739,-34.6435,25.7391
835,1.2646,-11.9943,-4.5218,17.3217,-35.9652,20.6609
840,1.1879,-10.9596,-4.2152,30.6087,-36.4522,14.4
845,0.9197,-9.5801,-3.4105,40.2783,-36.5913,7.5826
850,0.6514,-8.1622,-2.9123,45.913,-35.8957,1.113
855,0.0766,-6.7444,-2.4525,47.9304,-34.087,-3.9652
860,-0.3449,-5.5564,-1.7627,46.3304,-31.513,-7.0261
865,-0.5748,-4.905,-1.1496,41.6,-28.6609,-8.487
870,-1.2646,-4.062,-0.6131,34.2957,-26.2261,-8.487
875,-1.8394,-3.4871,-0.2682,25.6,-24.8348,-7.3043
880,-2.1843,-3.2572,0.1533,16.0696,-24.4174,-5.7739
885,-2.2992,-3.3722,0.6131,7.513,-24.487,-3.687
890,-2.2226,-3.4105,0.5748,1.1826,-24.2783,-1.2522
895,-2.031,-3.3339,0.6514,-3.0609,-23.1652,1.3913
900,-1.6478,-3.2955,0.8047,-5.3565,-21.2174,4.3826
905,-1.2646,-3.1423,0.5748,-5.9826,-18.6435,8.0696
910,-0.6131,-3.0656,0.4215,-6.1913,-15.4435,11.8957
915,0.115,-2.8357,0.3449,-6.5391,-11.3391,15.9304
920,0.7664,-2.7591,0.4598,-7.3739,-6.2609,19.9652
925,1.6478,-3.1423,0.4982,-7.0957,-0.5565,22.1217
930,2.1843,-3.7171,0.843,-4.0348,4.6609,22.3304
935,2.4908,-3.947,1.073,2.8522,8.9043,20.6609
940,2.6441,-4.2152,1.1496,12.7304,11.8261,17.8783
945,2.5675,-4.3302,0.9197,24.6957,12.9391,14.6783
950,2.5291,-4.1003,0.4215,36.8696,11.4087,10.9913
955,2.2226,-3.7554,0.0,47.2348,7.3043,7.1652
960,1.7244,-3.3339,-0.7281,55.3043,1.0435,3.8957
965,1.1113,-2.8357,-1.5328,59.687,-6.3304,0.9043
970,0.8047,-2.6058,-2.5675,60.2435,-12.5217,-0.9043
975,0.4982,-2.6058,-3.2955,57.9478,-14.887,-2.087
980,0.0383,-2.7974,-4.2152,53.8435,-11.9652,-2.2261
985,0.0,-3.1806,-4.7134,49.0435,-5.0783,-1.8087
990,0.2299,-3.4488,-5.7864,45.5652,3.7565,-2.1565
995,0.5748,-3.4871,-7.2809,44.3826,13.0783,-4.2435
1000,0.3832,-3.7937,-9.7334,44.7304,21.913,-7.9304
1005,-0.4982,-3.9087,-12.1092,43.687,28.9391,-10.2957
1010,-2.3759,-3.4105,-15.558,38.0522,29.4261,-8.6957
1015,-4.8284,-3.2189,-17.8189,25.5304,17.5304,-2.0174
1020,-7.8557,-4.5601,-18.0872,5.287,-7.8609,12.1043
1025,-8.4688,-8.1239,-14.7916,-17.3913,-39.3043,33.8783
1030,-5.4798,-11.8793,-10.8446,-29.2174,-63.0957,57.113
1035,-0.2682,-16.2095,-7.0126,-22.7478,-70.9565,75.6174
1040,2.2226,-17.9339,-6.5911,-5.8435,-70.4696,86.4
1045,2.989,-16.746,-7.8173,10.087,-72.8348,91.1304
1050,2.4908,-14.2168,-9.695,19.1304,-75.1304,96.7652
1055,2.6824,-12.8756,-11.2279,22.0522,-71.1652,108.5913
1060,3.0656,-11.8793,-12.5307,20.5217,-59.8957,113.4609
1065,2.5675,-11.9176,-13.0672,19.3391,-45.3565,110.1913
1070,2.1076,-12.7607,-13.0672,20.5217,-29.6348,99.7565
1075,0.8814,-13.5271,-12.5307,25.5304,-18.3652,84.5913
1080,-1.1113,-14.2935,-10.768,35.7565,-8.487,67.0609
1085,-2.7974,-14.7533,-8.9286,50.2957,0.0696,49.2522
1090,-3.947,-14.6,-7.5108,67.2696,8.9043,33.7391
1095,-4.7134,-14.2552,-6.8977,74.9913,15.6522,20.8
1100,-4.8667,-13.3738,-6.3229,75.2,17.2522,8.3478
1105,-5.02,-12.3775,-6.4761,68.2435,13.3565,-3.3391
1110,-5.0966,-11.3045,-6.5911,56.2783,6.0522,-12.7304
1115,-4.6368,-10.2698,-6.5145,42.2957,-1.0435,-19.3391
1120,-4.0236,-9.5418,-6.5528,28.1739,-5.7739,-22.5391
1125,-3.5255,-9.2735,-6.2079,15.2348,-7.3043,-23.1652
1130,-3.1039,-8.7754,-5.8247,4.1043,-7.6522,-21.6348
1135,-2.1843,-8.737,-5.0966,-4.4522,-8.2087,-19.1304
1140,-1.4562,-8.3921,-4.79,-10.9217,-9.8783,-16.9043
1145,-0.5365,-8.3538,-4.6368,-16.487,-12.0348,-15.8609
1150,-0.115,-7.894,-4.5218,-21.7739,-13.4261,-16.0
1155,0.3449,-7.6257,-4.4452,-27.6174,-13.7739,-16.9739
1160,0.6898,-7.4341,-4.1769,-34.6435,-13.3565,-18.7826
1165,0.6131,-7.2425,-4.0236,-42.7826,-12.8696,-20.8696
1170,1.1113,-7.2425,-4.1003,-51.8261,-12.1739,-23.3739
1175,1.1113,-7.1659,-4.1003,-61.5652,-11.1304,-26.087
1180,1.2263,-7.0509,-4.3685,-72.0696,-9.6,-28.5217
1185,1.3412,-7.0509,-4.1386,-82.6435,-7.2348,-30.8174
1190,1.3795,-7.2425,-4.0236,-91.8957,-4.1739,-32.7652
1195,1.2646,-7.0509,-3.947,-98.1565,-1.5304,-34.5043
1200,1.2646,-7.4725,-3.7554,-101.1478,0.4174,-35.7565
1205,1.3029,-7.8173,-3.5638,-100.6609,1.8783,-37.1478
1210,1.4562,-8.2772,-3.3339,-96.8348,2.9913,-38.6783
1215,1.4945,-8.4305,-3.1806,-90.0174,3.8261,-39.9304
1220,1.5711,-8.5838,-3.1806,-80.7652,4.5913,-41.0435
1225,1.4945,-8.5838,-3.1423,-69.8435,5.0087,-41.9478
1230,1.3029,-8.2772,-3.1806,-58.1565,4.9391,-42.2957
1235,1.1496,-7.8557,-3.3339,-46.7478,4.3826,-42.1565
1240,1.1496,-7.5874,-3.1423,-35.9652,3.6174,-41.5304
1245,0.9197,-7.0893,-3.0656,-26.3652,2.9913,-40.1391
1250,0.6514,-6.5911,-2.874,-18.6435,2.2957,-38.3304
1255,0.5748,-5.978,-2.7207,-12.5913,1.5304,-36.0348
1260,0.4598,-5.5948,-2.4908,-8.5565,0.6957,-33.7391
1265,0.4598,-5.2116,-2.3759,-5.4261,-0.6261,-31.2348
1270,0.3449,-4.9433,-1.9927,-3.4087,-2.4348,-28.9391
1275,0.3832,-4.7134,-1.7627,-2.087,-4.6609,-27.2
1280,0.3832,-4.79,-1.5328,-1.8783,-7.0261,-26.0174
1285,0.4215,-4.79,-1.2646,-2.2957,-9.5304,-25.5304
1290,0.3449,-4.9816,-1.2263,-3.7565,-11.9652,-25.6
1295,0.1916,-4.905,-0.843,-5.5652,-14.1217,-25.7391
1300,0.4215,-5.6714,-0.5365,-7.3739,-15.9304,-25.9478
1305,0.5365,-6.3229,-0.2299,-8.6261,-17.3217,-26.3652
1310,0.4982,-6.9743,-0.115,-8.487,-18.2261,-26.5043
1315,0.4598,-7.3192,0.0383,-6.1913,-18.4348,-26.2261
1320,0.2682,-7.7407,0.1916,-1.6696,-18.2261,-25.7391
1325,0.0766,-8.0473,0.1916,5.0087,-17.9478,-24.9043
1330,0.0383,-8.2005,0.3449,14.0522,-17.5304,-23.513
1335,0.115,-8.0856,0.4215,25.2522,-17.3217,-21.4957
1340,0.115,-7.8557,0.3832,37.287,-16.9043,-18.9217
1345,0.1916,-7.4341,0.0383,49.0435,-15.4435,-15.8609
1350,0.0766,-7.0126,-0.5365,59.0609,-12.6609,-12.6609
1355,0.0766,-6.3995,-0.7281,66.5739,-9.2522,-9.6
1360,0.0,-6.2462,-0.958,71.3739,-6.4696,-6.7478
1365,-0.115,-5.7864,-1.3029,73.9478,-5.3565,-3.687
1370,0.0383,-5.7864,-1.5328,75.1304,-6.1217,0.1391
1375,0.5365,-5.5181,-1.8011,75.2696,-7.8609,4.9391
1380,1.3412,-5.7864,-1.8011,75.4087,-8.6261,9.8783
1385,1.6478,-5.863,-1.8777,76.7304,-7.7217,14.5391
1390,2.1076,-6.0546,-1.8394,78.4,-5.0087,18.7826
1395,2.2226,-6.3995,-1.916,80.1391,-2.1565,21.8435
1400,2.1076,-6.4761,-1.916,81.6696,-0.6261,23.5826
1405,2.1076,-6.7061,-1.5328,82.5043,-1.6,24.487
1410,1.5711,-6.6294,-1.9927,81.9478,-5.4261,24.5565
1415,0.958,-6.7061,-2.9123,79.5826,-11.2,24.6261
1420,0.1916,-6.0163,-5.02,74.3652,-17.8783,25.4609
1425,0.2299,-5.6714,-8.3155,64.6261,-22.9565,28.1739
1430,0.6898,-5.1349,-11.726,51.687,-24.3478,29.8435
1435,1.4945,-4.5218,-18.4704,34.5739,-22.4696,25.113
1440,2.2609,-4.1386,-25.7513,8.6957,-13.0087,8.0
1445,2.2226,-5.5564,-26.4027,-28.8,12.1043,-9.9478
1450,1.8777,-9.1586,-18.3554,-65.1826,45.8435,-23.0261
1455,1.8394,-12.4924,-10.6914,-78.4,71.3739,-30.6783
1460,1.2646,-16.5927,-2.4525,-62.8174,85.2174,-35.1304
1465,0.2682,-18.7003,0.9963,-29.0783,83.8957,-39.7217
1470,-1.073,-18.9686,0.6514,6.5391,72.2087,-47.3739
1475,-3.1423,-17.4741,-2.4142,38.1217,58.9913,-55.4435
1480,-4.7517,-16.2478,-5.02,50.1565,51.2696,-59.4087
1485,-6.8593,-14.9832,-7.3575,51.687,44.7304,-60.1739
1490,-7.9323,-14.3318,-8.2772,51.6174,35.2,-59.687
1495,-7.5874,-13.757,-8.5454,54.9565,23.6522,-57.0435
1500,-6.4761,-13.5654,-8.5071,59.9652,14.3304,-51.9652
1505,-4.4068,-13.7953,-8.737,63.0957,8.4174,-43.8957
1510,-3.0656,-14.1019,-9.0053,62.6087,4.1739,-37.5652
1515,-1.7627,-13.9103,-8.967,58.7826,-0.1391,-35.3391
1520,-0.4598,-13.7187,-9.1202,53.3565,-5.3565,-36.313
1525,0.3832,-13.2205,-9.1969,48.6957,-10.7826,-38.1913
1530,1.6478,-12.684,-9.0436,45.9826,-14.2609,-40.0
1535,2.6058,-12.3391,-8.2772,46.4,-14.4,-40.7652
1540,3.0656,-12.0709,-7.1659,50.6435,-11.4087,-40.0
1545,3.2189,-11.6111,-6.5145,57.6696,-7.0957,-37.287
1550,3.2955,-10.6147,-6.1313,65.8783,-3.1304,-33.3913
1555,3.3339,-9.4268,-5.6714,73.1826,0.0696,-28.5217
1560,3.6021,-7.8557,-5.3648,76.7304,2.4348,-22.5391
1565,3.6787,-6.5911,-5.3648,74.8522,4.1739,-15.1652
1570,3.7554,-6.0929,-5.0966,67.0609,5.7043,-6.887
1575,3.4871,-5.7864,-5.2116,54.5391,7.0957,1.8087
1580,3.1423,-5.9013,-5.1732,38.887,8.7652,10.1565
1585,2.5675,-6.0929,-5.1732,21.9826,10.6435,17.7391
1590,2.5675,-6.5911,-5.4798,4.313,12.8,24.2783
1595,2.4908,-7.0509,-5.4032,-13.3565,15.1652,28.9391
1600,2.1459,-7.5108,-4.9816,-29.2174,18.087,31.3739
1605,1.7627,-8.0856,-4.7134,-41.8783,20.6609,31.9304
1610,1.6478,-8.737,-4.062,-50.087,22.4696,31.3043
1615,1.1496,-9.0436,-3.7554,-53.3565,23.6522,30.2609
1620,0.8814,-9.4651,-3.7937,-52.1739,24.1391,29.7043
1625,0.9197,-9.2352,-3.5255,-47.1652,24.3478,29.5652
1630,0.6514,-9.1202,-3.2955,-38.9565,24.6957,29.6348
1635,0.4598,-8.5838,-3.1806,-28.5217,25.2522,29.5652
1640,0.2682,-8.2772,-3.2189,-17.113,25.8783,29.2174
1645,0.115,-7.7024,-3.0656,-5.0783,26.1565,28.3826
1650,0.0,-6.9743,-2.9507,6.5391,25.7391,27.8957
1655,-0.4982,-6.2462,-2.7974,16.9739,24.6957,27.5478
1660,-0.6514,-5.4415,-2.5675,25.5304,23.0261,27.5478
1665,-0.8047,-4.905,-2.5675,31.2348,20.8696,27.5478
1670,-1.2263,-4.1003,-2.4142,34.2261,18.5043,27.4783
1675,-1.4179,-3.5255,-2.1459,34.2957,16.2087,27.4783
1680,-1.7244,-2.7974,-2.2992,31.7913,14.1913,27.0609
1685,-1.9543,-2.4908,-2.3759,26.9217,12.6609,26.6435
1690,-1.9543,-2.4525,-2.2992,20.3826,11.8261,26.3652
1695,-2.2609,-2.4525,-2.4142,12.1739,11.4087,26.1565
1700,-2.2609,-2.6824,-2.4525,2.7826,11.4783,25.3913
1705,-2.3375,-3.0656,-2.4142,-6.6783,12.0348,24.3478
1710,-2.3375,-3.5255,-2.2226,-15.5826,12.6609,22.5391
1715,-2.2226,-3.947,-1.9927,-23.0261,13.0783,20.0348
1720,-2.1843,-4.7517,-1.7627,-27.7565,13.0783,17.3217
1725,-2.1459,-5.1732,-1.4945,-29.9826,12.7304,14.4696
1730,-1.9543,-6.1696,-1.4945,-29.9826,11.8957,12.1043
1735,-1.6478,-6.3612,-1.2646,-28.8,10.8522,10.2957
1740,-1.4945,-6.7827,-0.9197,-25.5304,9.8087,8.9043
1745,-1.1113,-7.2042,-0.9963,-20.0348,8.9043,7.8609
1750,-0.6898,-7.4725,-0.9963,-13.287,7.9304,7.2348
1755,-0.3066,-7.5108,-1.1113,-6.7478,7.3739,6.5391
1760,-0.115,-7.6257,-1.0346,-1.0435,6.887,5.6348
1765,0.0766,-7.6257,-1.3029,4.1043,6.0522,4.5913
1770,0.0383,-7.7024,-1.2646,9.0435,5.2174,3.4087
1775,0.3449,-7.8557,-1.1113,14.0522,4.1739,2.0174
1780,0.5365,-7.9323,-1.0346,19.2696,3.8957,0.4174
1785,0.6514,-8.0473,-0.8814,24.6957,4.3826,-1.113
1790,0.843,-8.1622,-0.4982,30.887,5.287,-2.5739
1795,0.8047,-8.1239,-0.3832,37.287,6.0522,-3.8957
1800,0.843,-8.2772,-0.3832,43.6174,6.6783,-5.4261
1805,0.8047,-8.2005,-0.2682,48.9043,6.5391,-6.6783
1810,0.6514,-8.2389,-0.3066,52.7304,5.5652,-7.6522
1815,0.8814,-8.3155,-0.5748,54.6087,3.687,-8.1391
1820,0.8047,-8.3921,-0.843,54.3304,0.9739,-8.6957
1825,0.5748,-8.4688,-1.1113,51.6174,-1.8087,-9.0435
1830,0.6898,-8.4305,-1.2263,46.8174,-4.313,-8.9043
1835,0.8047,-8.6604,-1.5711,40.487,-6.2609,-8.1391
1840,0.8814,-8.8903,-1.2646,33.5304,-7.3043,-6.887
1845,0.6514,-8.967,-1.3412,27.7565,-7.2348,-4.7304
1850,0.2299,-9.4651,-1.4179,23.513,-6.7478,-1.6696
1855,0.115,-9.695,-1.3412,20.3826,-6.7478,2.0174
1860,-0.1916,-9.9633,-1.2263,18.0174,-6.9565,5.7043
1865,-0.4982,-10.3465,-1.3029,17.1826,-7.513,9.0435
1870,-0.7281,-10.7297,-1.9543,15.9304,-7.6522,12.1043
1875,-0.7664,-11.3428,-2.6824,13.4261,-6.6087,14.887
1880,-1.1113,-11.7643,-3.5255,10.5043,-5.3565,17.0435
1885,-1.3412,-12.5691,-5.2116,7.6522,-5.7739,19.1304
1890,-1.9927,-13.3355,-7.0509,4.5913,-10.4348,21.5652
1895,-2.874,-13.7187,-8.8903,2.3652,-20.4522,25.6696
1900,-2.2609,-14.4084,-9.695,1.2522,-32.3478,33.6
1905,-1.6861,-14.83,-9.5418,0.487,-44.2435,42.8522
1910,-0.115,-15.4814,-8.967,0.7652,-50.5043,53.0087
1915,0.958,-15.8646,-8.3921,1.113,-50.5043,61.4261
1920,-0.3832,-15.6347,-7.9706,1.0435,-47.7913,67.3391
1925,-1.1879,-15.0216,-8.4688,1.1826,-44.1739,72.487
1930,-1.5711,-14.1785,-9.5034,2.2261,-39.8609,75.2696
1935,-1.5711,-13.1439,-10.6914,4.1739,-33.3913,75.4783
1940,-0.5365,-12.4924,-10.9596,7.7217,-22.1913,72.6261
1945,0.115,-12.1475,-10.653,12.7304,-5.9826,66.0174
1950,0.7664,-11.8793,-10.0016,17.9478,13.0087,57.0435
1955,1.1113,-11.7643,-9.5801,21.7739,30.3304,47.1652
1960,1.2646,-11.5727,-9.5034,23.1652,42.4348,37.4261
1965,0.843,-11.0363,-9.3885,21.5652,50.2957,29.2174
1970,0.7281,-10.4231,-8.967,18.2261,55.4435,23.4435
1975,1.1496,-9.81,-8.2772,14.8174,57.9478,19.4087
1980,1.7627,-9.0053,-7.5491,11.7565,57.8087,15.7913
1985,2.0693,-8.737,-7.1276,9.1826,55.3739,12.8
1990,1.916,-8.1239,-6.0546,7.3739,51.0609,11.0609
1995,1.1879,-8.3921,-5.9013,6.4,45.4261,10.9913
2000,0.6131,-8.3155,-5.3648,6.5391,39.4435,12.5217
2005,-0.1916,-8.5454,-5.02,7.9304,33.8783,14.6087
2010,-1.1879,-8.6604,-4.8667,10.5043,29.0783,16.2783
2015,-2.031,-9.0053,-4.6751,14.4,24.9739,16.8348
2020,-2.3759,-9.1586,-4.2919,19.4783,21.3565,16.5565
2025,-2.7207,-8.967,-4.2536,25.0435,18.2957,15.2348
2030,-3.1039,-8.8903,-3.9853,29.7739,15.9304,12.5913
2035,-3.2955,-8.737,-3.8704,33.1826,13.913,8.7652
2040,-3.4488,-8.3155,-3.9087,34.9217,11.8261,3.687
2045,-3.4105,-8.2772,-3.9087,33.6696,10.087,-2.4348
2050,-3.2955,-7.9323,-4.2152,30.2609,8.7652,-9.3217
2055,-2.874,-7.5491,-3.832,24.8348,8.2087,-16.5565
2060,-2.4142,-7.3575,-4.1003,18.2957,8.1391,-23.3739
2065,-2.2609,-7.3192,-3.8704,10.6435,8.6957,-29.5652
2070,-1.7627,-7.2425,-3.7554,2.713,9.3217,-34.5043
2075,-1.2646,-7.3192,-3.4105,-5.0087,9.9478,-38.3304
2080,-0.8814,-7.2809,-3.2955,-12.1043,10.4348,-41.4609
2085,-0.3832,-7.3192,-3.1423,-18.6435,10.713,-43.9652
2090,-0.1916,-7.2042,-3.1806,-24.0,10.2957,-45.913
2095,0.0383,-7.3192,-2.989,-28.313,9.1826,-47.0957
2100,0.2682,-7.1659,-3.0656,-31.7913,7.4435,-47.6522
2105,0.3449,-7.2425,-2.9507,-34.713,5.4261,-47.2348
2110,0.2682,-7.0893,-2.9123,-36.5217,3.0609,-46.0522
2115,0.2682,-7.0509,-2.7591,-36.8,0.0696,-43.8957
2120,0.3066,-6.8977,-2.6058,-35.2,-3.6174,-41.7391
2125,0.4215,-6.7827,-2.6441,-31.513,-7.9304,-39.3739
2130,0.7281,-6.6294,-2.5291,-26.3652,-12.1043,-36.7304
2135,0.8047,-6.3612,-2.5291,-20.0348,-16.0696,-33.7391
2140,0.958,-6.0546,-2.4142,-13.0783,-19.3391,-30.7478
2145,1.0346,-5.8247,-2.5291,-6.4,-22.0522,-27.6174
2150,1.073,-5.6331,-2.4142,-0.2783,-23.9304,-24.6261
2155,1.2646,-5.2882,-2.3375,5.0087,-25.0435,-21.9826
2160,1.5328,-5.2499,-2.0693,9.113,-25.6,-19.6174
2165,1.3795,-5.1349,-2.4525,12.0348,-25.9478,-17.5304
2170,1.3412,-4.9816,-2.4908,13.5652,-25.8783,-15.7217
2175,1.4562,-5.1349,-2.4142,13.287,-25.0435,-14.0522
2180,1.4945,-5.3265,-2.4525,12.313,-24.0,-12.5913
2185,1.4945,-5.4415,-2.6058,10.7826,-22.4696,-11.4087
2190,1.6478,-5.748,-2.4525,8.9043,-20.5913,-10.5043
2195,1.5711,-5.978,-2.5675,6.6783,-18.4348,-9.7391
2200,1.7244,-6.4378,-2.4908,4.4522,-16.2783,-9.3913
2205,1.6861,-6.7444,-2.7974,2.0174,-14.4,-9.0435
2210,1.5711,-6.7444,-2.7974,-0.6261,-12.8696,-8.6261
2215,1.6478,-7.0126,-2.7591,-3.3391,-11.7565,-8.1391
2220,1.3029,-7.2042,-2.7974,-5.4957,-10.9913,-7.3739
2225,1.1113,-7.3958,-2.6824,-7.4435,-10.4348,-6.1217
2230,1.1113,-7.6257,-2.6058,-8.8348,-10.1565,-4.8696
2235,0.958,-8.0089,-2.3759,-9.1826,-9.8783,-3.687
2240,0.8047,-8.2005,-2.2992,-8.1391,-9.8087,-2.5043
2245,0.6898,-8.3921,-2.031,-6.1913,-9.8087,-1.3913
2250,0.5365,-8.5454,-1.7244,-3.0609,-9.9478,-0.3478
2255,0.4982,-8.6221,-1.8394,0.7652,-10.1565,0.6261
2260,0.5365,-8.852,-1.2646,5.0783,-10.3652,1.3217
2265,0.3449,-8.9286,-1.0346,10.5739,-10.6435,1.8783
2270,0.115,-9.0436,-1.1496,15.0957,-10.9217,2.4348
2275,0.115,-9.1202,-0.9197,19.4783,-11.6174,2.8522
2280,0.0,-9.2735,-0.843,23.3043,-12.8696,3.0609
2285,-0.115,-9.4651,-1.073,26.713,-14.6783,3.4087
2290,-0.5748,-9.5034,-0.6898,29.7043,-16.5565,3.9652
2295,-0.6131,-9.695,-0.6514,32.4174,-18.4348,4.6609
2300,-0.6898,-9.81,-0.6131,35.1304,-20.1739,5.4261
2305,-0.6514,-10.0399,-0.6514,38.1913,-21.2174,5.8435
2310,-0.4982,-10.0782,-0.7281,41.5304,-21.0087,6.1217
2315,-0.1533,-10.0016,-0.958,44.7304,-19.3391,5.9826
2320,0.115,-9.925,-0.9197,47.3043,-16.487,5.8435
2325,0.6898,-9.8866,-1.1879,48.6957,-12.1739,5.3565
2330,0.6898,-9.7334,-1.6478,48.8348,-6.8174,4.5217
2335,0.9197,-9.6184,-2.1459,47.5826,-1.4609,3.0609
2340,0.9963,-9.3885,-2.5675,44.8696,3.3391,1.6
2345,1.1496,-8.967,-3.2955,40.4174,7.9304,0.8348
2350,1.4562,-8.5454,-3.6404,34.5739,12.7304,1.0435
2355,1.8394,-8.0473,-3.9853,27.6174,17.1826,1.5304
2360,2.5291,-7.8557,-3.8704,19.8261,20.8696,2.1565
2365,2.7591,-7.9323,-3.3722,12.6609,23.0261,2.6435
2370,2.8357,-8.0856,-2.4142,7.6522,23.3739,3.2696
2375,2.4908,-8.8903,-1.3029,5.8435,21.287,3.8261
2380,1.9543,-9.3502,-0.1916,7.3043,16.6957,4.2435
2385,1.1496,-9.81,0.3832,10.5043,10.6435,4.5217
2390,0.5748,-10.4231,0.8814,13.3565,3.9652,4.5217
2395,0.115,-10.768,0.843,15.513,-1.8783,4.2435
2400,-0.4215,-11.2662,0.1916,16.4174,-6.4696,3.9652
2405,-0.958,-11.4195,-1.1496,15.3739,-9.8087,3.6174
2410,-1.6095,-11.726,-3.1423,11.1304,-12.8,2.1565
2415,-2.2992,-12.0709,-5.6714,3.4087,-15.8609,-0.5565
2420,-2.2992,-12.3391,-7.3958,-5.7739,-15.9304,-4.8696
2425,-1.4945,-12.9906,-8.737,-13.8435,-7.6522,-10.4348
2430,0.115,-13.6804,-8.9286,-18.1565,9.8087,-18.5739
2435,1.1879,-13.9869,-8.4305,-17.7391,30.6783,-28.6609
2440,2.0693,-13.9869,-8.1239,-13.9826,48.9043,-40.0
2445,2.2992,-13.9103,-7.7024,-10.713,61.287,-48.0
2450,2.3759,-13.7953,-6.936,-9.7391,69.8435,-52.4522
2455,2.2609,-13.9869,-5.8247,-9.7391,75.8957,-55.3043
2460,2.1459,-14.2168,-4.8284,-9.3913,78.6087,-56.9043
2465,1.8394,-14.0636,-4.5601,-6.9565,77.2174,-57.8783
2470,0.9963,-13.5654,-4.5601,-2.713,71.5826,-57.6696
2475,0.1533,-12.684,-4.6751,3.4087,61.913,-55.8609
2480,-0.4215,-11.726,-5.2882,11.3391,48.2783,-52.4522
2485,-0.6514,-10.2698,-5.978,19.687,31.4435,-48.0696
2490,-1.7244,-9.6184,-6.3995,26.2261,13.0783,-43.2
2495,-2.1076,-8.5454,-6.7444,29.5652,-5.4957,-38.1913
2500,-3.0273,-7.779,-7.0126,29.9826,-22.7478,-33.3913
2505,-4.062,-7.3575,-7.1659,28.2435,-38.1913,-28.8696
2510,-4.905,-7.3192,-7.2809,24.5565,-51.0609,-24.5565
2515,-5.1349,-7.2425,-7.1276,19.687,-60.4522,-19.8957
2520,-5.1349,-7.3958,-6.8977,14.9565,-65.5304,-15.0957
2525,-4.7134,-7.7407,-6.6294,10.9913,-65.8783,-10.713
2530,-4.0236,-8.0473,-6.1696,7.0957,-61.9826,-8.0
2535,-3.2189,-8.2772,-5.978,3.4783,-55.7217,-7.3043
2540,-2.4908,-8.6221,-4.905,1.3913,-49.0435,-8.2087
2545,-1.4945,-8.852,-4.4452,1.3913,-42.7826,-10.0174
2550,-0.4982,-9.0819,-4.2152,3.0609,-36.8696,-12.5217
2555,0.1533,-8.852,-4.3302,5.5652,-30.6783,-15.513
2560,0.4598,-8.4305,-4.3302,7.513,-24.0,-18.2957
2565,0.8047,-8.1239,-4.4452,8.0,-17.1826,-20.313
2570,1.2646,-7.779,-4.5218,7.0957,-10.9217,-21.1478
2575,1.5328,-7.5874,-4.4068,5.4957,-6.3304,-20.8696
2580,1.9927,-7.3575,-4.1003,3.687,-3.3391,-19.7565
2585,2.1459,-7.2425,-3.7937,2.0174,-2.0174,-17.5304
2590,2.4908,-7.3575,-3.7937,0.6261,-1.6,-14.6087
2595,2.7974,-7.6641,-3.8704,-0.487,-1.6696,-10.7826
2600,2.9123,-7.894,-4.062,-1.5304,-1.8087,-6.8174
2605,3.1039,-8.3155,-4.1003,-2.8522,-2.087,-2.8522
2610,3.0273,-8.6604,-4.062,-4.3826,-2.5739,0.2783
2615,2.7591,-8.6987,-3.9853,-5.3565,-2.9217,2.9217
2620,2.5675,-8.9286,-4.062,-4.8696,-3.1304,5.9826
2625,2.4525,-9.1202,-3.9853,-3.4783,-2.5043,8.2783
2630,2.1843,-8.9286,-4.1769,-2.087,-1.3217,10.5043
2635,1.7627,-8.852,-3.9853,-0.6957,0.3478,12.7304
2640,1.4945,-8.5838,-3.832,0.9739,1.9478,14.7478
2645,1.1496,-8.1622,-3.947,2.2957,3.4783,16.487
2650,0.9197,-7.9323,-3.6021,2.9217,4.9391,17.7391
2655,0.6514,-7.894,-3.4871,3.687,6.3304,18.7826
2660,0.3832,-7.6257,-3.3339,4.8,7.2348,19.4087
2665,0.0383,-7.3192,-3.1806,6.4696,7.7913,19.8261
2670,-0.1533,-7.1276,-3.1423,8.4174,8.1391,20.0348
2675,-0.2299,-6.7444,-2.8357,10.6435,8.3478,20.2435
2680,-0.3832,-6.4761,-2.6824,12.7304,8.6957,20.3826
2685,-0.4215,-6.1313,-2.4908,14.6087,9.3217,20.3826
2690,-0.6514,-5.9396,-2.6058,16.0696,10.2261,19.9652
2695,-0.6898,-5.6714,-2.7207,17.113,11.0609,19.2696
2700,-0.7664,-5.4798,-2.6824,17.3217,12.1739,18.2957
2705,-0.6898,-5.4415,-2.7974,16.2783,13.5652,16.6957
2710,-0.7281,-5.5181,-2.989,14.2609,15.2348,14.887
2715,-0.8814,-5.6331,-2.9123,10.8522,16.6261,12.6609
2720,-0.9963,-5.7864,-3.0656,7.4435,17.8087,10.3652
2725,-1.0346,-5.9396,-2.989,4.0348,18.5043,8.0696
2730,-1.1879,-6.2462,-3.0273,0.8348,18.713,6.2609
2735,-1.3412,-6.5145,-3.2189,-2.5043,18.6435,4.7304
2740,-1.3795,-6.7061,-2.9123,-6.0522,18.0174,3.6174
2745,-1.4945,-7.0893,-2.874,-8.7652,17.0435,2.7826
2750,-1.5711,-7.2425,-2.874,-10.5739,15.4435,1.8783
2755,-1.6095,-7.4341,-3.0656,-11.7565,13.3565,0.9739
2760,-1.3795,-7.8557,-2.7207,-12.313,11.2696,0.2783
2765,-1.4945,-7.9323,-2.5675,-12.313,9.0435,-0.5565
2770,-1.3795,-8.3155,-2.5291,-11.8261,6.9565,-1.4609
2775,-1.2263,-8.5071,-2.4525,-10.9913,5.0087,-2.2957
2780,-1.1879,-8.6987,-2.4908,-9.9478,3.3391,-2.9217
2785,-1.0346,-8.9286,-2.4908,-8.6261,2.2261,-3.687
2790,-0.843,-9.1202,-2.4142,-6.8174,1.3913,-4.5913
2795,-0.7281,-9.5034,-2.3759,-5.0087,0.8348,-5.4261
2800,-0.6131,-9.5801,-1.9543,-2.2957,0.7652,-6.4
2805,-0.3449,-9.5418,-2.1459,1.5304,1.0435,-7.513
2810,-0.1533,-9.7334,-1.8394,5.4957,1.6696,-8.5565
2815,0.0,-9.7334,-1.916,9.8783,2.5739,-9.8087
2820,-0.0766,-9.6184,-1.9927,14.5391,3.4783,-10.8522
2825,0.0383,-9.4651,-1.8777,18.5043,3.9652,-11.687
2830,0.0766,-9.3502,-1.6478,21.6348,4.4522,-12.5913
2835,0.2299,-9.4268,-1.7244,24.4174,4.8,-13.5652
2840,0.3832,-9.1969,-1.5328,26.3652,4.8696,-14.1217
2845,0.3066,-9.1202,-1.6861,27.4087,4.6609,-14.6087
2850,0.4215,-8.852,-1.6478,27.2,4.3826,-15.0957
2855,0.2682,-8.8137,-1.5711,26.0174,3.9652,-15.513
2860,0.2299,-8.6604,-1.6095,24.6261,3.2,-15.8609
2865,0.1916,-8.2772,-1.8777,23.7217,1.9478,-16.3478
2870,0.0,-8.5838,-1.7244,23.0261,0.7652,-16.3478
2875,0.0383,-8.3921,-1.8394,22.3304,-0.2087,-16.3478
2880,0.0766,-8.2772,-1.6095,21.287,-0.9043,-16.2087
2885,0.1533,-8.2389,-1.5328,20.313,-1.3217,-15.7217
2890,0.2682,-8.1622,-1.6095,19.0609,-1.4609,-15.0957
2895,0.3066,-8.4305,-1.6861,17.0435,-1.0435,-14.6087
2900,0.4215,-8.3155,-1.4945,14.7478,-0.6261,-14.1217
2905,0.4598,-8.2772,-1.4562,12.1739,-0.0696,-13.4957
2910,0.4215,-8.4688,-1.4562,9.8783,0.2087,-12.7304
2915,0.6514,-8.6221,-1.3795,7.4435,0.4174,-11.8261
2920,0.7664,-8.852,-1.6478,4.8696,0.5565,-10.713
2925,0.843,-8.7754,-1.4562,2.7826,0.3478,-9.6
2930,0.9197,-9.0053,-1.3795,0.9739,0.0696,-8.0696
2935,0.9963,-9.1586,-1.4179,0.4174,-0.2087,-6.1913
2940,0.9197,-9.1969,-1.3029,0.1391,-0.2783,-4.2435
2945,0.9197,-9.3885,-1.4562,0.2087,-0.0696,-2.5043
2950,0.6514,-9.5034,-1.1496,0.3478,0.2087,-0.8348
2955,0.5748,-9.5801,-1.2263,1.8087,0.5565,0.7652
2960,0.4215,-9.4651,-1.2263,3.4783,0.5565,2.2261
2965,0.4598,-9.6184,-1.1113,4.9391,0.9043,3.8957
2970,0.3449,-9.7717,-0.8814,6.8174,1.8783,5.287
2975,0.2682,-9.8866,-0.8047,8.8348,3.687,6.7478
2980,0.4215,-10.0016,-0.6131,10.4348,6.2609,7.9304
2985,0.3449,-10.1549,-0.4982,11.7565,9.6,9.1826
2990,0.6514,-10.2698,-0.5365,12.5913,13.1478,9.6
2995,0.6514,-10.2698,-0.4982,13.287,16.9739,9.8783
