timestamp,accX,accY,accZ,gyroX,gyroY,gyroZ
0,-0.2682,-0.9963,-9.81,0.3478,5.2174,1.3217
5,-0.3066,-0.9963,-9.7717,-0.2087,4.7304,1.3217
10,-0.1916,-0.958,-9.8483,-0.9043,4.3826,1.3913
15,-0.1916,-0.9963,-9.8483,-1.4609,4.313,1.3217
20,-0.2299,-1.0346,-9.7717,-1.8783,4.5217,1.2522
25,-0.3832,-0.843,-9.7334,-2.1565,4.8696,1.3217
30,-0.3449,-0.9963,-9.695,-2.5739,5.287,1.4609
35,-0.3832,-0.9963,-9.7717,-2.7826,5.6348,1.6696
40,-0.3449,-0.8814,-9.6184,-2.7826,5.8435,1.8087
45,-0.4982,-0.7664,-9.7717,-2.7826,5.7043,2.0174
50,-0.3832,-0.9197,-9.7334,-2.6435,5.4957,2.1565
55,-0.3832,-0.6514,-9.7717,-2.5739,5.1478,2.1565
60,-0.2299,-1.073,-9.7334,-2.5739,4.5913,2.1565
65,-0.3066,-1.0346,-9.6184,-2.7826,4.3826,1.9478
70,-0.3066,-0.9963,-9.695,-3.0609,3.9652,1.9478
75,-0.115,-0.9197,-9.7334,-3.4783,3.6174,2.087
80,-0.3066,-0.9963,-9.6184,-3.8261,3.5478,2.3652
85,-0.3449,-0.958,-9.695,-4.0348,3.6174,2.713
90,-0.1916,-0.958,-9.6567,-4.2435,3.7565,3.0609
95,-0.1533,-0.958,-9.7334,-4.5217,4.0348,3.2
100,-0.3066,-0.9197,-9.6184,-4.8696,4.0348,3.2696
105,-0.3066,-0.9963,-9.6567,-5.2174,4.1043,3.2
110,-0.3066,-1.073,-9.6567,-5.4957,4.1739,3.1304
115,-0.3449,-1.0346,-9.5418,-5.4261,4.0348,3.2696
120,-0.2682,-1.0346,-9.695,-5.1478,4.1043,3.1304
125,-0.2299,-1.1113,-9.7334,-4.8,3.9652,3.0609
130,-0.2299,-0.958,-9.8483,-4.3826,3.8957,2.9913
135,-0.2299,-1.1113,-9.695,-4.1739,3.687,2.7826
140,-0.0766,-1.1879,-9.695,-3.8957,3.6174,2.5043
145,-0.1533,-1.1496,-9.6184,-3.5478,3.7565,2.4348
150,-0.115,-1.073,-9.7334,-3.1304,3.8261,2.2261
155,-0.2682,-1.073,-9.7334,-2.7826,4.1739,2.087
160,-0.115,-0.958,-9.6184,-2.7826,4.4522,2.1565
165,-0.3066,-1.073,-9.5801,-2.9217,4.7304,2.1565
170,-0.2682,-0.7664,-9.5801,-2.9913,4.8,2.087
175,-0.3066,-0.843,-9.695,-3.2,4.7304,1.8783
180,-0.1916,-0.958,-9.4651,-3.4087,4.5217,1.5304
185,-0.2682,-0.9963,-9.5418,-3.4783,4.4522,1.3913
190,-0.2299,-0.8814,-9.7717,-3.5478,4.2435,1.1826
195,-0.3066,-0.843,-9.6567,-3.4783,4.1043,1.113
200,-0.3832,-0.8814,-9.7334,-3.2696,4.1739,1.0435
205,-0.3449,-0.8047,-9.695,-2.9217,4.2435,1.113
210,-0.2299,-0.958,-9.7717,-2.9913,3.9652,1.1826
215,-0.1533,-0.958,-9.6567,-3.0609,3.8261,1.3217
220,-0.2682,-0.9963,-9.7717,-3.0609,3.7565,1.6
225,-0.2299,-0.9197,-9.7334,-3.1304,3.8261,1.8087
230,-0.3066,-0.7664,-9.7717,-3.0609,3.8957,1.9478
235,-0.2682,-0.9197,-9.7717,-2.9913,3.8261,1.8783
240,-0.2299,-0.9963,-9.81,-2.5043,3.9652,1.8783
245,-0.3832,-0.9963,-9.9633,-1.6696,3.8261,1.7391
250,-0.2682,-0.9197,-9.7717,-0.6957,3.687,1.4609
255,-0.2299,-0.8047,-9.7717,-0.0696,3.8957,1.113
260,-0.3832,-0.8047,-9.7334,0.3478,4.1739,1.113
265,-0.3066,-0.6898,-9.695,0.1391,4.7304,1.113
270,-0.5748,-0.9197,-9.6184,-0.2087,5.2174,1.1826
275,-0.3832,-0.7664,-9.5418,-0.9739,5.4261,1.3913
280,-0.3066,-0.843,-9.6184,-1.6696,5.5652,1.5304
285,-0.3066,-0.7281,-9.5034,-2.2261,5.5652,1.6696
290,-0.3066,-0.958,-9.695,-2.9913,5.287,1.6
295,-0.4215,-0.8047,-9.7717,-3.5478,4.8,1.3913
300,-0.1916,-0.958,-9.695,-3.8957,4.5217,1.113
305,-0.3066,-1.073,-9.7334,-4.1043,4.2435,0.9043
310,-0.4598,-0.9963,-9.8866,-4.1739,4.0348,0.6957
315,-0.4215,-1.0346,-9.695,-4.1739,3.8957,0.5565
320,-0.3066,-0.843,-9.8483,-4.2435,3.6174,0.6957
325,-0.2682,-0.843,-9.81,-4.5913,3.4783,0.6261
330,-0.4598,-0.7281,-9.7717,-4.5913,3.2696,0.0
335,-0.4982,-0.6131,-9.8866,-4.313,2.9913,-0.2783
340,-0.5748,-0.3832,-9.8866,-4.5217,2.9913,-0.3478
345,-0.3066,-0.5365,-9.81,-4.8,3.1304,-0.487
350,-0.4215,-0.5365,-9.7717,-4.9391,3.2696,0.1391
355,-0.3066,-0.6131,-9.81,-5.0087,3.3391,0.2087
360,-0.2299,-0.6131,-9.9633,-4.8,3.4783,0.3478
365,-0.2682,-0.6131,-9.81,-4.3826,3.7565,0.4174
370,-0.3066,-0.6514,-9.8866,-4.1739,4.1043,0.5565
375,-0.3449,-0.6514,-9.81,-4.1043,4.5913,0.7652
380,-0.2299,-0.7664,-9.8483,-4.2435,5.0783,1.113
385,-0.3832,-0.7664,-9.8483,-4.5913,5.7739,1.3913
390,-0.2682,-0.8047,-9.7717,-4.8,6.0522,1.6
395,-0.4215,-0.6131,-9.5801,-4.8,6.2609,1.8087
400,-0.2682,-0.7281,-9.6184,-4.8696,6.3304,1.8783
405,-0.0383,-0.7281,-9.7717,-4.8696,6.2609,2.0174
410,-0.3449,-0.6898,-9.6567,-4.7304,6.4696,2.5043
415,-0.3449,-0.6898,-9.7334,-5.0783,6.7478,2.3652
420,-0.4215,-0.6131,-9.8483,-5.0087,6.887,2.2957
425,-0.4598,-0.4598,-9.8866,-5.0783,7.0261,2.5739
430,-0.4598,-0.5748,-9.8483,-5.1478,7.4435,2.3652
435,-0.3449,-0.6898,-9.8483,-4.8696,7.6522,1.8783
440,-0.3066,-0.5365,-9.8483,-4.2435,7.7217,1.6696
445,-0.3832,-0.4598,-9.925,-3.687,7.513,1.6696
450,-0.2682,-0.5748,-9.8483,-3.2,7.3043,1.3217
455,-0.3066,-0.6514,-9.8483,-2.5043,6.9565,1.113
460,-0.4215,-0.5365,-9.9633,-1.9478,6.6087,1.0435
465,-0.3066,-0.5748,-9.695,-2.087,6.3304,0.4174
470,-0.4215,-0.6514,-10.0016,-1.7391,6.3304,0.7652
475,-0.3449,-0.6514,-9.7717,-1.113,6.3304,0.9043
480,-0.2682,-0.6131,-9.8866,-0.5565,6.1913,0.9043
485,-0.3449,-0.6898,-9.81,-0.1391,6.1913,0.8348
490,-0.3449,-0.8047,-9.7334,0.0696,6.1217,0.8348
495,-0.3066,-0.6898,-9.6567,0.0696,6.1913,0.8348
500,-0.1916,-0.6898,-9.7717,0.1391,6.1217,0.5565
505,-0.1533,-0.6898,-9.8483,0.3478,6.0522,0.4174
510,-0.2682,-0.6514,-9.8866,0.6957,5.8435,0.2087
515,-0.3449,-0.6514,-9.7334,0.9739,5.6348,0.0696
520,-0.1916,-0.7664,-9.7717,1.1826,5.4957,0.0
525,-0.2682,-0.6898,-9.81,1.3217,5.287,-0.2087
530,-0.1533,-0.6514,-9.7717,1.4609,5.0087,-0.3478
535,-0.1916,-0.6514,-9.7334,1.6696,4.8,-0.4174
540,-0.1916,-0.6131,-9.7717,1.8087,4.6609,-0.3478
545,-0.1533,-0.6514,-9.7717,1.7391,4.7304,-0.2783
550,-0.115,-0.4982,-9.7717,1.5304,4.9391,-0.2087
555,-0.1916,-0.6131,-9.5801,1.3913,5.287,-0.0696
560,-0.115,-0.6131,-9.7717,1.113,5.5652,-0.1391
565,-0.1916,-0.6898,-9.7717,0.9043,5.7739,0.0
570,-0.2299,-0.8047,-9.8483,0.5565,5.9826,0.0
575,-0.2299,-0.7664,-9.695,0.3478,5.913,0.0696
580,-0.1533,-0.8814,-9.6567,0.2087,5.7739,0.0696
585,-0.2299,-0.8814,-9.7717,0.2087,5.5652,-0.0696
590,-0.2682,-0.8814,-9.7717,0.2783,5.4261,-0.2087
595,-0.1916,-0.843,-9.8866,0.487,5.2174,-0.4174
600,-0.3066,-0.7281,-9.8866,0.7652,5.1478,-0.6261
605,-0.1916,-0.8047,-9.695,1.113,5.287,-0.9043
610,-0.1533,-0.7281,-9.7717,1.4609,5.1478,-1.0435
615,-0.2682,-0.7281,-9.81,1.7391,5.1478,-1.2522
620,-0.3832,-0.6898,-9.7334,1.8087,4.9391,-1.3217
625,-0.1533,-0.8814,-9.695,1.8087,4.6609,-1.3913
630,-0.3066,-0.8047,-9.7717,1.8087,4.2435,-1.4609
635,-0.1533,-0.8047,-9.81,1.7391,3.8957,-1.6696
640,-0.2299,-0.7664,-9.5801,1.7391,3.5478,-1.9478
645,-0.3449,-0.8047,-9.5801,1.6696,3.5478,-2.2261
650,-0.4215,-0.7664,-9.6567,1.6,3.7565,-2.5739
655,-0.1916,-0.9197,-9.695,1.5304,3.9652,-2.713
660,-0.2299,-0.7281,-9.8483,1.7391,4.1739,-2.9217
665,-0.1533,-0.8047,-9.81,1.9478,4.3826,-2.9217
670,-0.2682,-0.8047,-9.7717,2.1565,4.4522,-2.713
675,-0.1916,-0.8047,-9.9633,2.4348,4.4522,-2.5043
680,-0.2299,-0.8047,-9.81,2.5739,4.5217,-2.3652
685,-0.115,-0.958,-9.8866,2.713,4.3826,-2.0174
690,-0.0766,-0.8047,-9.7717,2.8522,4.5217,-2.0174
695,-0.0766,-0.9197,-9.6567,2.8522,4.8,-1.8783
700,-0.1533,-0.958,-9.695,2.8522,5.1478,-1.7391
705,-0.1916,-0.843,-9.695,2.9217,5.4261,-1.7391
710,-0.2299,-0.8814,-9.695,2.5739,5.6348,-1.7391
715,-0.2682,-0.7664,-9.5801,2.2957,5.7739,-1.7391
720,-0.3449,-0.8047,-9.5418,1.9478,5.7739,-1.6
725,-0.3449,-0.7664,-9.5034,1.8087,5.6348,-1.6
730,-0.3449,-0.8814,-9.7334,1.8087,5.4261,-1.6696
735,-0.2682,-0.958,-9.7334,2.0174,5.0783,-1.7391
740,-0.2682,-0.958,-9.7717,2.087,4.8,-1.7391
745,-0.3066,-0.958,-9.6567,2.2957,4.5217,-1.8087
750,-0.3066,-0.958,-9.695,2.5043,4.2435,-1.8783
755,-0.115,-0.9197,-9.8483,2.6435,4.0348,-1.9478
760,-0.3066,-0.9197,-9.7717,2.713,3.7565,-2.0174
765,-0.1916,-0.843,-9.81,2.713,3.687,-2.2261
770,-0.2299,-0.7281,-9.6567,2.6435,3.7565,-2.087
775,-0.0766,-0.8814,-9.695,2.6435,4.0348,-1.9478
780,-0.2299,-0.8814,-9.7717,2.713,4.7304,-1.8087
785,-0.1533,-0.8814,-9.8483,2.713,5.3565,-1.6696
790,-0.3066,-0.8814,-9.8483,2.713,5.9826,-1.2522
795,-0.2682,-0.9197,-9.7334,2.6435,6.1913,-1.2522
800,-0.3066,-0.843,-9.8483,2.7826,6.2609,-1.0435
805,-0.3066,-0.9197,-9.8483,2.9913,6.0522,-1.0435
810,-0.3832,-0.9197,-9.695,3.2,5.6348,-1.1826
815,-0.2682,-0.843,-9.8483,3.4087,5.1478,-1.4609
820,-0.3832,-1.0346,-9.7717,3.4783,4.9391,-1.5304
825,-0.1533,-0.9197,-9.6184,3.4783,4.4522,-1.6696
830,-0.3832,-0.9197,-9.7717,3.3391,4.1739,-1.8087
835,-0.2299,-0.9963,-9.695,3.2,4.0348,-1.8783
840,-0.3066,-0.8047,-9.695,2.9217,4.0348,-1.8087
845,-0.3449,-0.958,-9.7717,2.7826,4.0348,-1.7391
850,-0.3449,-0.958,-9.695,2.8522,4.3826,-1.7391
855,-0.3832,-0.9197,-9.7334,2.8522,4.5913,-1.4609
860,-0.3066,-0.9963,-9.6567,2.713,5.0087,-1.5304
865,-0.3449,-1.073,-9.7717,2.713,5.2174,-1.3217
870,-0.0766,-1.1879,-9.5801,2.5043,5.1478,-1.1826
875,-0.115,-0.958,-9.6567,2.2261,5.0087,-1.2522
880,-0.1916,-1.1113,-9.81,2.0174,4.7304,-1.1826
885,-0.3832,-0.958,-9.81,2.0174,4.5217,-1.113
890,-0.1916,-0.958,-9.8483,1.9478,4.3826,-1.0435
895,-0.1916,-0.958,-9.8483,1.8087,4.313,-1.1826
900,-0.1916,-1.073,-9.695,1.6,4.313,-1.2522
905,-0.3832,-0.7664,-9.695,1.5304,4.313,-1.3217
910,-0.2299,-0.8814,-9.7717,1.5304,4.3826,-1.3217
915,-0.1916,-0.958,-9.7334,1.3217,4.1043,-1.2522
920,-0.2682,-0.843,-9.5801,1.0435,3.8957,-1.2522
925,-0.2299,-0.8814,-9.695,0.6957,3.5478,-1.1826
930,-0.1533,-0.958,-9.81,0.4174,3.4087,-1.1826
935,-0.1916,-0.843,-9.8866,0.3478,3.3391,-1.1826
940,-0.115,-1.073,-9.7717,0.487,3.4783,-1.0435
945,-0.1916,-0.9963,-9.81,0.7652,3.6174,-1.0435
950,-0.0766,-1.1113,-9.7334,1.2522,3.8261,-1.113
955,-0.1916,-1.073,-9.925,1.8783,4.1739,-1.113
960,-0.2299,-0.958,-9.8866,2.5739,4.5913,-1.1826
965,-0.2299,-1.073,-9.695,2.9913,5.1478,-0.9739
970,-0.1916,-0.958,-9.7717,2.8522,5.4957,-0.8348
975,-0.115,-0.9963,-9.7334,2.2957,5.8435,-0.6261
980,-0.3066,-0.8047,-9.6184,1.6696,6.1217,-0.4174
985,-0.1533,-0.958,-9.695,0.9739,6.2609,-0.2087
990,0.0,-1.1113,-9.81,0.6957,6.2609,-0.0696
995,-0.115,-0.9963,-9.7717,0.5565,6.1217,0.0696
1000,-0.1916,-1.0346,-9.5034,0.5565,5.8435,0.0696
1005,-0.2299,-1.1496,-9.5801,0.3478,5.5652,0.0
1010,-0.2682,-1.0346,-9.925,0.4174,5.2174,-0.2087
1015,-0.2682,-1.1879,-9.7334,0.4174,4.7304,-0.487
1020,-0.2682,-1.073,-9.8866,0.5565,4.3826,-0.6957
1025,-0.1916,-1.1879,-9.8483,0.6957,4.0348,-1.0435
1030,-0.2299,-0.9963,-9.81,0.9739,3.9652,-1.3217
1035,-0.2299,-0.958,-9.8866,1.113,3.9652,-1.5304
1040,-0.2682,-1.1113,-9.6184,1.1826,4.1043,-1.4609
1045,-0.2682,-0.9963,-9.7717,1.2522,4.313,-1.3913
1050,-0.1533,-1.0346,-9.7717,1.2522,4.6609,-1.1826
1055,-0.1533,-1.0346,-9.6567,1.0435,5.0087,-0.9043
1060,-0.0766,-1.1113,-9.7717,0.9043,5.2174,-0.6261
1065,-0.0766,-0.9963,-9.6184,0.6261,5.3565,-0.3478
1070,-0.2299,-0.958,-9.7334,0.4174,5.4261,0.0
1075,-0.115,-1.073,-9.8483,0.3478,5.3565,0.2783
1080,-0.2299,-0.958,-9.695,0.2087,5.4261,0.6261
1085,-0.1916,-0.958,-9.695,0.1391,5.5652,0.6957
1090,-0.1533,-1.0346,-9.6184,0.1391,5.6348,0.7652
1095,-0.3066,-1.073,-9.5801,0.1391,5.6348,0.9043
1100,-0.1916,-1.0346,-9.6567,0.0,5.4957,0.7652
1105,-0.1916,-1.073,-9.695,-0.1391,5.2174,0.8348
1110,-0.2299,-1.1113,-9.6567,-0.2087,5.0087,0.8348
1115,-0.3832,-1.0346,-9.7717,-0.2087,4.7304,0.9043
1120,-0.115,-1.1113,-9.6567,-0.2783,4.5217,0.9739
1125,-0.2682,-1.0346,-9.7334,-0.2087,4.3826,1.0435
1130,-0.2299,-1.073,-9.7334,-0.2087,4.5217,1.113
1135,-0.115,-1.1113,-9.6184,-0.2087,4.7304,1.113
1140,-0.1916,-1.073,-9.7717,-0.2087,5.0087,1.1826
1145,-0.1916,-0.9963,-9.695,-0.0696,5.1478,1.2522
1150,-0.0766,-1.1113,-9.81,-0.1391,5.3565,1.1826
1155,-0.1533,-1.1113,-9.7334,-0.2087,5.4261,1.1826
1160,-0.1533,-0.958,-9.695,-0.1391,5.4261,1.2522
1165,-0.1533,-0.958,-9.81,-0.1391,5.3565,1.2522
1170,-0.1533,-0.8814,-9.7334,0.0696,5.3565,1.3913
1175,-0.2299,-0.958,-9.695,0.0696,5.3565,1.5304
1180,-0.2682,-0.958,-9.7717,0.0,5.4261,1.6
1185,-0.3832,-0.843,-9.81,-0.0696,5.5652,1.6
1190,-0.1533,-0.9963,-9.7334,0.0,5.6348,1.7391
1195,-0.0766,-0.958,-9.8483,0.0,5.6348,1.7391
1200,-0.115,-1.0346,-9.7334,0.0,5.7739,1.8087
1205,-0.115,-0.958,-9.8483,-0.0696,5.7739,1.9478
1210,-0.2682,-0.958,-9.8866,-0.0696,5.913,1.8783
1215,-0.115,-1.073,-9.8866,0.0696,6.0522,1.6696
1220,-0.2299,-1.0346,-9.8866,0.2087,6.1217,1.6696
1225,-0.3449,-0.9963,-9.8483,0.4174,6.0522,1.6696
1230,-0.3066,-1.1113,-9.81,0.487,5.913,1.6696
1235,-0.2299,-1.073,-9.81,0.5565,5.5652,1.6
1240,-0.3066,-0.9963,-9.6567,0.6261,5.287,1.5304
1245,-0.3449,-0.958,-9.81,0.7652,5.0087,1.3217
1250,-0.2682,-0.9963,-9.7717,0.7652,4.8,1.1826
1255,-0.2299,-0.958,-9.7334,0.7652,4.6609,1.113
1260,-0.3449,-0.8814,-9.7334,0.5565,4.5913,0.9739
1265,-0.1916,-1.0346,-9.7334,0.4174,4.5217,1.0435
1270,-0.3066,-0.958,-9.6567,0.3478,4.5913,1.113
1275,-0.1533,-0.958,-9.7334,0.1391,4.4522,1.1826
1280,-0.2299,-1.1496,-9.6184,-0.1391,4.5217,1.1826
1285,-0.1533,-0.9963,-9.5801,-0.4174,4.5913,1.3913
1290,-0.115,-0.958,-9.81,-0.8348,4.5217,1.3913
1295,-0.0383,-1.1496,-9.7717,-1.1826,4.5217,1.4609
1300,-0.2682,-1.1113,-9.7334,-1.2522,4.5217,1.3217
1305,-0.1533,-1.073,-9.7717,-1.2522,4.3826,1.3217
1310,-0.2682,-1.2263,-9.81,-1.1826,4.3826,1.1826
1315,-0.2682,-0.9963,-9.7717,-1.0435,4.5217,1.0435
1320,-0.2299,-1.073,-9.7334,-1.113,4.5217,0.9043
1325,-0.2682,-1.0346,-9.5801,-1.0435,4.4522,0.8348
1330,-0.115,-1.073,-9.7334,-1.0435,4.4522,0.8348
1335,-0.2682,-1.0346,-9.5801,-0.9739,4.3826,0.8348
1340,-0.1916,-1.1496,-9.695,-0.9043,4.313,0.9043
1345,-0.2299,-1.1496,-9.6567,-0.8348,4.2435,0.9739
1350,-0.1533,-1.1113,-9.7334,-0.8348,4.1739,0.9739
1355,-0.0766,-1.073,-9.6567,-0.9043,4.3826,0.9739
1360,-0.2682,-1.0346,-9.695,-1.0435,4.5217,0.9739
1365,-0.1533,-1.1113,-9.8866,-1.113,4.8,1.0435
1370,-0.115,-1.073,-9.695,-1.1826,5.0087,0.9739
1375,-0.2299,-1.1113,-9.6567,-1.1826,5.2174,0.9739
1380,-0.2682,-0.9963,-9.6567,-1.1826,5.4261,0.9739
1385,-0.2682,-1.1113,-9.6567,-1.0435,5.287,1.0435
1390,-0.2682,-1.0346,-9.6184,-0.9043,5.287,1.113
1395,-0.2682,-1.073,-9.5034,-0.7652,5.287,1.113
1400,-0.3832,-0.958,-9.6184,-0.6957,5.287,1.3217
1405,-0.2299,-1.1496,-9.5801,-0.6957,5.4957,1.3217
1410,-0.2299,-1.1496,-9.5801,-0.8348,5.7739,1.3217
1415,-0.2299,-1.2646,-9.6184,-1.0435,5.8435,1.5304
1420,-0.2682,-0.9963,-9.695,-1.0435,5.5652,1.3913
1425,-0.2299,-1.0346,-9.5418,-1.113,5.2174,1.3217
1430,-0.3066,-1.0346,-9.695,-1.0435,4.8696,1.2522
1435,-0.2682,-1.0346,-9.695,-1.0435,4.6609,1.2522
1440,-0.1916,-1.073,-9.8866,-0.9043,4.5913,1.2522
1445,-0.2299,-1.1879,-9.695,-0.9739,4.5913,1.113
1450,-0.2682,-0.958,-9.6184,-1.0435,4.9391,0.9739
1455,-0.115,-0.9197,-9.5418,-1.1826,5.0783,0.8348
1460,-0.1533,-1.2263,-9.3502,-1.3217,5.287,0.7652
1465,-0.1916,-1.2646,-9.8866,-1.3217,5.4957,0.8348
1470,-0.3066,-1.073,-9.6567,-1.3217,5.4957,0.9739
1475,-0.2299,-1.1113,-9.8866,-1.2522,5.5652,1.113
1480,-0.3449,-0.9197,-9.81,-1.3217,5.4957,1.1826
1485,-0.2299,-1.073,-9.7717,-1.3913,5.3565,1.2522
1490,-0.3832,-0.958,-9.7717,-1.3913,5.1478,1.3913
1495,-0.3066,-1.1113,-9.6567,-1.3913,5.0783,1.4609
1500,-0.1916,-0.9963,-9.695,-1.3217,5.0783,1.3913
1505,-0.1533,-1.073,-9.6567,-1.2522,5.2174,1.3217
1510,-0.1916,-1.0346,-9.5418,-1.1826,5.287,1.3217
1515,-0.3449,-0.958,-9.5801,-1.113,5.4957,1.3913
1520,-0.3832,-1.0346,-9.7334,-1.113,5.5652,1.4609
1525,-0.2299,-1.0346,-9.6567,-0.9739,5.7739,1.5304
1530,-0.3066,-1.0346,-9.5801,-0.8348,5.8435,1.4609
1535,-0.2299,-1.073,-9.695,-0.7652,5.913,1.5304
1540,-0.2299,-1.073,-9.695,-0.9043,5.7739,1.6696
1545,-0.2299,-1.1113,-9.7334,-1.0435,5.8435,1.8783
1550,-0.2299,-1.073,-9.695,-1.113,6.0522,2.087
1555,-0.2299,-1.073,-9.6184,-1.1826,6.1217,2.2261
1560,-0.2299,-1.0346,-9.6567,-1.3913,6.1913,2.2261
1565,-0.2299,-1.0346,-9.695,-1.5304,6.3304,2.2261
1570,-0.2682,-0.9963,-9.7334,-1.6,6.4696,2.2261
1575,-0.3832,-0.9963,-9.6567,-1.4609,6.4696,2.1565
1580,-0.3449,-1.0346,-9.7334,-1.3217,6.5391,2.1565
1585,-0.3449,-0.958,-9.7334,-0.9043,6.4,2.1565
1590,-0.3449,-1.073,-9.7334,-0.6957,6.2609,2.1565
1595,-0.2682,-0.843,-9.7717,-0.6957,6.1217,2.0174
1600,-0.3066,-0.958,-9.7334,-0.6261,6.0522,1.8783
1605,-0.3449,-1.0346,-9.695,-0.6261,5.8435,1.9478
1610,-0.1533,-0.8814,-9.6184,-0.6261,5.6348,2.087
1615,-0.2299,-1.0346,-9.695,-0.6957,5.6348,2.2261
1620,-0.3832,-1.073,-9.7717,-0.6957,5.5652,2.3652
1625,-0.3066,-1.0346,-9.6567,-0.8348,5.6348,2.5739
1630,-0.3832,-0.9963,-9.5801,-1.0435,5.8435,2.5739
1635,-0.3449,-1.0346,-9.7717,-1.2522,6.0522,2.5739
1640,-0.2299,-1.0346,-9.7334,-1.3913,6.3304,2.5739
1645,-0.2299,-1.1879,-9.7717,-1.3913,6.5391,2.5043
1650,-0.3066,-1.0346,-9.6567,-1.2522,6.5391,2.3652
1655,-0.3832,-0.958,-9.7334,-1.1826,6.4,2.0174
1660,-0.3066,-1.073,-9.5034,-1.2522,6.1913,1.9478
1665,-0.1533,-1.073,-9.6184,-0.9043,5.6348,1.8783
1670,-0.2299,-0.958,-9.7717,-0.6957,5.2174,1.8087
1675,-0.2682,-1.0346,-9.6567,-0.6957,4.7304,1.8087
1680,-0.2682,-0.9963,-9.6567,-0.9043,4.5913,1.8783
1685,-0.1533,-1.073,-9.7334,-1.0435,4.6609,1.8087
1690,-0.2682,-1.1113,-9.6567,-1.113,4.8,1.7391
1695,-0.2682,-1.073,-9.7717,-0.9739,5.1478,1.7391
1700,-0.115,-1.1113,-9.6184,-0.9043,5.287,1.6696
1705,-0.1916,-1.0346,-9.8483,-0.9043,5.4957,1.8087
1710,-0.1533,-1.0346,-9.7334,-0.9739,5.5652,1.8783
1715,-0.2299,-0.9963,-9.81,-0.8348,5.6348,2.0174
1720,-0.1533,-0.958,-9.7334,-0.7652,5.6348,2.087
1725,-0.1916,-1.1496,-9.695,-0.6957,5.4261,2.2957
1730,-0.0383,-0.9963,-9.81,-0.5565,5.3565,2.2957
1735,-0.1533,-1.073,-9.7717,-0.5565,5.2174,2.3652
1740,-0.1533,-0.9197,-9.81,-0.6261,5.287,2.2261
1745,-0.2682,-0.9197,-9.8866,-0.5565,5.4957,2.1565
1750,-0.2299,-1.073,-9.695,-0.6261,5.7739,2.0174
1755,-0.2682,-0.9963,-9.695,-0.6957,5.913,1.8087
1760,-0.3066,-1.073,-9.7334,-0.9739,6.0522,1.6696
1765,-0.0766,-0.9963,-9.6567,-1.113,5.913,1.6
1770,-0.1533,-1.073,-9.6567,-1.2522,5.5652,1.6
1775,-0.2299,-0.9963,-9.5801,-1.1826,5.0783,1.6
1780,-0.115,-1.0346,-9.81,-1.113,4.8696,1.5304
1785,-0.0766,-0.9963,-9.925,-1.1826,4.6609,1.5304
1790,-0.2682,-0.9963,-9.695,-1.2522,4.8696,1.4609
1795,-0.2682,-0.9963,-9.81,-1.2522,5.0783,1.3913
1800,-0.2299,-1.0346,-9.81,-1.1826,5.3565,1.3913
1805,-0.0383,-0.9963,-9.695,-1.113,5.6348,1.4609
1810,-0.0766,-1.0346,-9.7334,-1.0435,5.913,1.3913
1815,-0.1916,-0.9963,-9.5801,-1.113,6.0522,1.4609
1820,-0.0383,-1.1113,-9.8866,-0.9739,5.913,1.2522
1825,-0.2682,-1.1113,-9.695,-0.8348,5.8435,1.0435
1830,-0.2299,-0.9963,-9.6567,-0.6957,5.5652,1.0435
1835,-0.0383,-0.958,-9.7717,-0.6261,5.3565,0.9043
1840,-0.115,-1.073,-9.6184,-0.8348,5.2174,0.9043
1845,-0.1533,-1.0346,-9.7334,-0.9043,5.0783,0.8348
1850,-0.1533,-0.9963,-9.5034,-0.9043,5.0783,1.0435
1855,-0.0766,-0.958,-9.695,-1.0435,5.2174,1.0435
1860,-0.2299,-0.9963,-9.7717,-1.3913,5.3565,0.9739
1865,-0.1916,-0.9963,-9.7334,-1.6696,5.5652,0.9739
1870,-0.115,-1.073,-9.7334,-1.6696,5.8435,0.9739
1875,-0.3066,-0.9963,-9.7334,-1.3217,6.0522,0.8348
1880,-0.0383,-1.0346,-9.81,-0.9739,6.1217,0.6957
1885,-0.1916,-1.1113,-9.6567,-0.8348,6.1913,0.2087
1890,-0.1916,-1.1496,-9.695,-0.6261,6.0522,0.3478
1895,-0.2682,-0.9197,-9.6567,-0.6261,5.8435,0.487
1900,-0.1533,-1.0346,-9.7717,-0.6957,5.5652,0.3478
1905,-0.2299,-0.9963,-9.6567,-0.8348,5.287,0.2783
1910,-0.1916,-0.958,-9.6567,-0.9739,4.8696,0.0696
1915,-0.2299,-1.073,-9.695,-1.113,4.5913,-0.2087
1920,-0.2299,-1.073,-9.7334,-1.113,4.3826,-0.3478
1925,-0.2682,-0.9197,-9.7334,-1.2522,4.1739,-0.5565
1930,-0.1916,-1.1113,-9.7717,-1.1826,4.1739,-0.9043
1935,-0.0766,-1.0346,-9.81,-1.0435,4.1043,-1.0435
1940,-0.1916,-1.0346,-9.8483,-0.6957,3.9652,-1.2522
1945,-0.1533,-1.1113,-9.695,-0.2783,3.8261,-1.4609
1950,-0.115,-1.073,-9.695,0.0,3.7565,-1.6
1955,-0.115,-1.0346,-9.7717,0.2783,3.5478,-1.5304
1960,-0.2299,-1.1496,-9.7334,0.4174,3.6174,-1.4609
1965,-0.2299,-0.9963,-9.7717,0.3478,3.687,-1.4609
1970,-0.1916,-0.958,-9.7717,0.3478,3.9652,-1.6
1975,-0.115,-0.9197,-9.7717,0.1391,4.1043,-1.6
1980,-0.115,-0.9197,-9.7334,-0.1391,4.313,-1.7391
1985,-0.1533,-0.9963,-9.695,-0.4174,4.313,-1.6
1990,-0.0766,-0.9963,-9.7334,-0.6261,4.2435,-1.5304
1995,-0.1533,-0.843,-9.5801,-0.8348,4.2435,-1.5304
2000,-0.0383,-1.0346,-9.6567,-0.9739,4.1739,-1.2522
2005,-0.0383,-1.1113,-9.7334,-0.9043,4.1739,-1.113
2010,-0.1533,-0.9197,-9.695,-0.9739,4.313,-1.113
2015,0.0,-1.1113,-9.6184,-1.0435,4.5217,-1.0435
2020,-0.2682,-1.0346,-9.6567,-1.1826,4.6609,-0.9739
2025,-0.2682,-1.0346,-9.695,-1.1826,4.8,-0.7652
2030,-0.1916,-1.0346,-9.695,-1.113,4.9391,-0.7652
2035,-0.3066,-1.073,-9.695,-1.0435,4.8696,-0.8348
2040,-0.1916,-1.2646,-9.7717,-1.113,4.8696,-0.9043
2045,-0.3066,-1.0346,-9.7334,-1.3217,4.7304,-0.9739
2050,-0.2299,-0.9963,-9.6184,-1.4609,4.5913,-0.9043
2055,-0.1916,-1.1113,-9.695,-1.5304,4.2435,-0.8348
2060,-0.115,-1.1496,-9.81,-1.5304,3.9652,-0.8348
2065,-0.0383,-1.073,-9.8483,-1.4609,3.8261,-0.9043
2070,-0.3066,-1.1496,-9.81,-1.3913,3.8261,-0.9739
2075,-0.2299,-1.073,-9.7334,-1.3913,3.8957,-1.0435
2080,-0.0766,-1.1113,-9.7717,-1.4609,3.8957,-0.8348
2085,-0.0383,-1.1113,-9.7717,-1.4609,4.1739,-0.7652
2090,-0.2299,-0.9963,-9.81,-1.6,4.313,-0.6261
2095,-0.0766,-1.073,-9.7717,-1.6,4.5217,-0.4174
2100,-0.1533,-1.0346,-9.6184,-1.5304,4.5913,-0.4174
2105,-0.1533,-1.1879,-9.81,-1.5304,4.8,-0.3478
2110,-0.2299,-0.9963,-9.5034,-1.5304,4.9391,-0.1391
2115,-0.3066,-1.073,-9.695,-1.7391,5.0783,0.0
2120,-0.1916,-1.1113,-9.7334,-2.0174,5.1478,0.1391
2125,-0.0766,-1.1113,-9.695,-2.2261,5.0783,0.1391
2130,-0.1533,-1.0346,-9.7717,-2.4348,5.1478,0.1391
2135,-0.0383,-1.0346,-9.81,-2.2957,5.2174,0.2087
2140,-0.2682,-1.0346,-9.6184,-2.1565,5.0783,0.2087
2145,-0.2682,-1.0346,-9.81,-2.087,4.9391,0.2783
2150,-0.2299,-1.073,-9.695,-2.0174,4.9391,0.2783
2155,-0.3066,-0.9963,-9.6567,-1.9478,4.9391,0.1391
2160,-0.2299,-0.9963,-9.7334,-2.087,4.7304,0.0696
2165,-0.3449,-1.0346,-9.7717,-2.2957,4.8,0.0696
2170,-0.2299,-1.1496,-9.5034,-2.3652,4.6609,0.0696
2175,-0.3066,-0.8814,-9.6184,-2.4348,4.5217,0.0
2180,-0.2299,-0.9963,-9.7717,-2.4348,4.5913,0.0
2185,-0.3449,-0.9197,-9.695,-2.5043,4.5217,0.0
2190,-0.2682,-1.1496,-9.695,-2.5739,4.6609,0.0
2195,-0.2299,-1.1113,-9.695,-2.5739,4.7304,-0.1391
2200,-0.1916,-1.1496,-9.7334,-2.3652,4.9391,-0.2087
2205,-0.1916,-0.958,-9.7717,-2.0174,4.9391,-0.2087
2210,-0.2682,-0.958,-9.7334,-1.7391,4.9391,0.0
2215,-0.3066,-0.9963,-9.5801,-1.6696,4.8696,0.0
2220,-0.3066,-1.0346,-9.7334,-1.8087,4.7304,0.2087
2225,-0.2299,-1.0346,-9.4651,-2.0174,4.6609,0.2783
2230,-0.2299,-0.9197,-9.5801,-2.2261,4.5913,0.3478
2235,-0.1533,-1.0346,-9.695,-2.5043,4.4522,0.2783
2240,-0.1533,-1.073,-9.5418,-2.9217,4.5217,0.1391
2245,-0.1533,-0.9197,-9.695,-3.1304,4.5217,0.0696
2250,-0.2299,-1.0346,-9.7334,-2.9913,4.5913,0.0696
2255,-0.0766,-1.1113,-9.695,-2.7826,4.6609,0.2087
2260,-0.0383,-1.0346,-9.5418,-2.713,4.7304,0.3478
2265,-0.2299,-1.0346,-9.6184,-2.5043,4.8,0.4174
2270,-0.3066,-0.843,-9.7334,-2.5739,5.0087,0.6261
2275,-0.3449,-0.8814,-9.7717,-2.713,5.0087,0.6261
2280,-0.2682,-0.8814,-9.6184,-2.9913,5.0087,0.487
2285,-0.1533,-0.958,-9.6184,-3.0609,4.9391,0.4174
2290,-0.2299,-0.9963,-9.81,-2.9217,4.8,0.2783
2295,-0.2299,-0.9197,-9.695,-2.713,4.6609,0.2087
2300,-0.1916,-0.9197,-9.6184,-2.6435,4.4522,0.0
2305,-0.115,-1.1113,-9.7717,-2.9217,4.2435,0.0
2310,-0.1533,-0.958,-9.6184,-3.2696,4.0348,-0.1391
2315,-0.1916,-1.1113,-9.695,-3.4087,3.8957,-0.2783
2320,-0.1916,-0.9197,-9.7717,-3.1304,3.8957,-0.3478
2325,-0.1916,-0.9963,-9.81,-2.7826,4.1043,-0.3478
2330,-0.1916,-0.958,-9.7717,-2.2957,4.3826,-0.2783
2335,-0.1916,-1.1113,-9.81,-1.8783,4.5217,-0.3478
2340,-0.0766,-1.0346,-9.695,-1.7391,4.5217,-0.2783
2345,-0.2682,-0.958,-9.81,-1.6696,4.5913,-0.1391
2350,-0.115,-1.0346,-9.6567,-1.6,4.9391,-0.0696
2355,-0.1533,-0.9963,-9.81,-1.6696,5.0783,-0.1391
2360,-0.0383,-0.9963,-9.695,-1.6696,5.0087,-0.2783
2365,-0.0766,-0.9963,-9.4651,-1.8087,4.9391,-0.2783
2370,-0.1533,-0.8814,-9.695,-1.6696,4.9391,-0.3478
2375,-0.2299,-0.9197,-9.7334,-1.5304,5.0087,-0.2783
2380,-0.115,-0.958,-9.6184,-1.3217,4.8696,-0.2783
2385,-0.1533,-0.9197,-9.8483,-0.9739,4.9391,-0.3478
2390,-0.2299,-1.0346,-9.7717,-0.8348,4.8,-0.4174
2395,-0.0383,-0.958,-9.8483,-0.5565,4.8696,-0.487
2400,-0.0766,-0.958,-9.7717,-0.5565,4.9391,-0.4174
2405,-0.115,-0.9197,-9.81,-0.6261,5.0783,-0.2087
2410,-0.1916,-0.9197,-9.925,-0.7652,5.1478,-0.0696
2415,-0.0766,-0.8814,-9.8483,-0.7652,5.287,0.0696
2420,-0.1916,-0.8814,-9.9633,-0.6261,5.5652,0.2087
2425,-0.2682,-0.843,-9.81,-0.5565,5.7043,0.4174
2430,-0.1533,-0.843,-9.8483,-0.6261,5.7739,0.487
2435,-0.115,-0.958,-9.6184,-0.6261,5.7739,0.6261
2440,-0.3449,-0.843,-9.7717,-0.7652,5.913,0.7652
2445,-0.3066,-0.8047,-9.8483,-0.9043,5.8435,0.6957
2450,-0.1916,-0.843,-9.6567,-1.1826,5.7739,0.7652
2455,-0.2299,-0.8047,-9.7717,-1.2522,5.7739,0.8348
2460,-0.3066,-0.7281,-9.6567,-1.2522,5.7043,0.8348
2465,-0.3832,-0.7664,-9.7717,-1.3217,5.6348,0.6957
2470,-0.3832,-0.7281,-9.6567,-1.2522,5.7739,0.7652
2475,-0.3449,-0.7664,-9.7717,-1.113,5.8435,0.5565
2480,-0.2682,-0.8814,-9.695,-1.0435,5.7043,0.487
2485,-0.3449,-0.9197,-9.7334,-1.1826,5.7043,0.487
2490,-0.115,-0.8047,-9.695,-1.1826,5.5652,0.487
2495,-0.1533,-0.8047,-9.695,-1.2522,5.287,0.6957
2500,-0.1533,-0.843,-9.6567,-1.3217,5.1478,0.6957
2505,-0.0766,-0.843,-9.925,-1.3913,5.0783,0.8348
2510,-0.3066,-0.9197,-9.81,-1.5304,5.2174,0.8348
2515,-0.2682,-0.8814,-9.8483,-1.3913,5.4957,0.6261
2520,-0.0766,-0.8814,-9.695,-1.3217,5.6348,0.6261
2525,-0.2682,-0.7664,-9.8483,-1.3913,5.5652,0.6957
2530,-0.2682,-0.8814,-9.81,-1.2522,5.4261,0.6261
2535,-0.1533,-0.843,-9.7717,-1.1826,5.1478,0.5565
2540,-0.2682,-0.843,-9.6184,-1.113,5.0087,0.3478
2545,-0.1916,-0.9197,-9.7717,-1.113,4.8,0.2783
2550,-0.2299,-0.8814,-9.7717,-1.113,4.5913,0.0696
2555,-0.0766,-0.843,-9.695,-1.0435,4.5217,0.0696
2560,-0.1533,-0.8814,-9.7334,-0.9043,4.5217,0.1391
2565,-0.1916,-0.843,-9.7334,-0.7652,4.6609,0.1391
2570,-0.115,-0.9963,-9.8866,-0.6957,5.0783,0.0
2575,-0.115,-0.8814,-9.8866,-0.5565,5.5652,-0.2087
2580,-0.1916,-0.8814,-9.695,-0.5565,5.7739,-0.3478
2585,-0.2682,-0.9197,-9.7717,-0.5565,5.8435,-0.4174
2590,-0.2682,-0.9197,-9.6184,-0.6957,5.7739,-0.487
2595,-0.1533,-0.8814,-9.81,-0.6957,5.4261,-0.6261
2600,-0.2299,-0.843,-9.5418,-0.7652,4.8696,-0.6261
2605,0.0,-0.9963,-9.695,-0.6957,4.3826,-0.6957
2610,-0.0383,-1.0346,-9.7334,-0.6957,3.9652,-0.7652
2615,-0.0383,-0.8047,-9.7334,-0.6957,3.8957,-0.7652
2620,-0.0766,-0.9963,-9.7717,-0.6957,4.0348,-0.9043
2625,-0.115,-0.958,-9.7334,-0.6957,4.4522,-0.9043
2630,-0.2682,-0.9197,-9.7717,-0.7652,4.9391,-0.8348
2635,-0.0383,-0.9197,-9.7334,-0.9739,5.1478,-0.9043
2640,-0.2299,-0.843,-9.6184,-1.1826,5.3565,-0.9739
2645,-0.115,-0.958,-9.6567,-1.2522,5.2174,-0.9739
2650,-0.1533,-0.958,-9.695,-1.3217,5.0087,-0.9739
2655,-0.0766,-0.9197,-9.6567,-1.3913,4.7304,-0.9739
2660,-0.0383,-0.958,-9.81,-1.3913,4.5217,-0.9739
2665,-0.1533,-0.9197,-9.7334,-1.3913,4.3826,-0.9043
2670,-0.0766,-0.9197,-9.7717,-1.4609,4.313,-1.0435
2675,-0.115,-0.9197,-10.0016,-1.5304,4.2435,-0.9739
2680,-0.1533,-1.0346,-9.81,-1.6696,4.1739,-1.0435
2685,-0.115,-0.958,-9.8483,-1.6,4.1739,-0.8348
2690,-0.2299,-0.958,-9.81,-1.4609,4.3826,-0.7652
2695,-0.115,-0.9963,-9.8866,-1.2522,4.8,-0.6261
2700,-0.2682,-0.8814,-9.8866,-1.3217,5.0087,-0.5565
2705,-0.1916,-0.8047,-9.81,-1.4609,5.2174,-0.5565
2710,-0.1533,-0.8047,-9.9633,-1.7391,5.287,-0.6261
2715,-0.115,-0.8814,-9.8483,-1.6,5.0783,-0.487
2720,0.0,-0.9197,-10.0016,-1.3217,4.8696,-0.5565
2725,-0.115,-0.9197,-9.8866,-0.9043,4.6609,-0.6957
2730,-0.2299,-0.9197,-9.7717,-0.7652,4.4522,-0.6261
2735,-0.0766,-0.9197,-9.8483,-0.9739,4.313,-0.6261
2740,-0.1916,-0.843,-9.7717,-1.2522,4.3826,-0.6261
2745,-0.1916,-0.8814,-9.695,-1.6696,4.4522,-0.487
2750,-0.0766,-0.8814,-9.8483,-1.9478,4.5217,-0.6261
2755,-0.2299,-0.843,-9.81,-2.1565,4.5217,-0.8348
2760,-0.115,-0.9197,-9.8866,-2.087,4.6609,-1.0435
2765,-0.1916,-0.8814,-9.7334,-2.2957,4.8,-1.113
2770,-0.2299,-0.8814,-9.6567,-2.713,4.7304,-1.113
2775,-0.2299,-0.843,-9.81,-3.3391,4.4522,-1.1826
2780,-0.0766,-0.9963,-9.925,-3.7565,4.2435,-1.2522
2785,0.0,-0.9963,-9.9633,-3.9652,4.0348,-1.0435
2790,-0.0766,-1.0346,-9.925,-3.9652,3.9652,-0.9739
2795,-0.1916,-0.8814,-9.9633,-3.8957,3.8957,-0.9043
2800,-0.1916,-0.9963,-10.0399,-3.4783,4.0348,-0.9739
2805,-0.1533,-0.843,-10.0399,-2.9913,3.8957,-1.113
2810,-0.0383,-0.9963,-9.925,-2.713,3.8261,-1.1826
2815,-0.115,-0.7664,-9.81,-2.6435,3.7565,-1.1826
2820,-0.115,-0.7664,-9.7334,-3.1304,3.7565,-1.113
2825,-0.2682,-0.7281,-9.695,-3.8261,3.8957,-0.9739
2830,-0.1533,-0.843,-9.7717,-4.5913,4.1043,-1.0435
2835,-0.0766,-0.843,-9.7717,-5.287,4.3826,-1.0435
2840,-0.115,-0.9197,-9.7334,-5.5652,4.5913,-1.1826
2845,-0.115,-0.9197,-9.7717,-5.5652,4.6609,-1.2522
2850,-0.0766,-0.8814,-9.81,-5.5652,4.6609,-1.2522
2855,-0.0766,-0.9197,-9.8866,-5.7739,4.6609,-1.3217
2860,-0.1916,-0.8814,-9.8866,-6.0522,4.3826,-1.3913
2865,-0.115,-0.9197,-9.925,-6.5391,4.1043,-1.4609
2870,0.0,-0.9197,-10.0399,-6.887,3.8261,-1.3217
2875,-0.1916,-0.9197,-10.0016,-7.1652,3.7565,-1.2522
2880,-0.0766,-0.843,-10.0016,-7.2348,3.687,-1.3217
2885,0.0,-1.1113,-10.1549,-7.1652,3.6174,-1.2522
2890,-0.0766,-1.073,-10.2315,-7.0261,3.6174,-1.3217
2895,-0.2299,-0.8814,-10.0399,-7.0261,3.687,-1.4609
2900,-0.115,-0.7281,-10.1166,-7.2348,3.8957,-1.3217
2905,-0.1533,-0.6514,-10.1166,-7.4435,4.2435,-1.2522
2910,-0.115,-0.7281,-10.0016,-7.9304,4.6609,-1.113
2915,-0.1916,-0.5365,-10.0399,-8.1391,5.287,-1.113
2920,-0.0383,-0.6514,-9.9633,-8.3478,5.7043,-1.113
2925,-0.0766,-0.7281,-9.925,-8.4174,5.9826,-1.2522
2930,-0.115,-0.8814,-10.0782,-8.5565,5.913,-1.1826
2935,-0.115,-0.7281,-9.8866,-8.8348,5.7043,-1.2522
2940,-0.1533,-0.7664,-9.81,-9.1826,5.1478,-1.3217
2945,-0.0766,-0.843,-9.81,-9.6696,4.6609,-1.3913
2950,-0.115,-0.7281,-9.695,-9.9478,4.4522,-1.3217
2955,-0.2299,-0.8047,-9.925,-10.3652,4.3826,-1.3913
2960,-0.2299,-0.843,-9.7717,-10.9913,4.3826,-1.5304
2965,-0.2299,-0.8047,-9.81,-11.687,4.3826,-1.6696
2970,-0.1916,-0.7664,-9.8483,-12.5217,4.5217,-1.7391
2975,-0.1533,-0.843,-9.9633,-13.287,4.2435,-1.6696
2980,-0.0383,-0.8047,-9.7717,-14.1217,3.8957,-1.3913
2985,-0.0766,-0.8814,-9.8866,-15.0261,3.6174,-1.1826
2990,-0.2299,-0.8047,-9.9633,-15.513,3.687,-0.8348
2995,-0.115,-0.9963,-9.9633,-15.9304,3.9652,-0.5565
