timestamp,accX,accY,accZ,gyroX,gyroY,gyroZ
0,-7.894,-2.0693,0.1916,39.7913,63.7913,-2.9913
5,-7.8173,-2.1459,0.115,34.087,60.1043,0.7652
10,-8.0856,-2.2609,0.1916,28.4522,55.7217,4.9391
15,-8.1239,-2.1076,0.3449,23.3739,50.5043,9.3913
20,-8.4305,-1.8777,0.1916,19.1304,44.5913,14.1217
25,-8.5838,-1.7627,0.3832,15.6522,38.8174,19.1304
30,-8.8903,-1.5328,0.3449,13.9826,34.0174,24.3478
35,-9.0053,-1.1879,0.3832,14.1913,30.3304,29.1478
40,-8.967,-1.4179,0.5365,15.7913,27.8957,33.6696
45,-9.0436,-1.1879,0.5748,18.5043,26.3652,37.7043
50,-8.8137,-1.3412,0.6514,21.7739,25.6,40.6957
55,-8.6604,-1.073,0.5748,24.1391,25.6696,41.9478
60,-8.5838,-0.9963,0.5748,25.1826,25.9478,41.7391
65,-8.1622,-0.9197,0.4982,25.7391,26.713,40.6261
70,-8.2389,-0.6898,0.3449,26.5739,27.7565,38.7478
75,-8.0089,-0.5365,0.3832,27.2,27.9652,37.7043
80,-8.0473,-0.4982,0.0766,27.4087,27.4087,36.5913
85,-7.7407,-0.5365,-0.0766,27.0609,26.3652,34.9913
90,-7.9323,-0.6514,0.0,26.3652,25.1826,33.2522
95,-8.0856,-0.5365,-0.1916,25.6696,23.9304,31.7913
100,-8.0856,-0.5748,-0.2682,24.6957,22.4,31.1652
105,-8.2772,-0.5365,-0.1533,24.0,20.6609,31.1652
110,-8.6221,-0.7664,-0.2682,24.2783,18.087,31.3043
115,-9.1202,-0.9963,0.0383,25.1826,14.887,31.7217
120,-9.2735,-1.073,0.0766,27.2696,9.6696,30.9565
125,-9.5418,-1.2263,0.2299,30.887,4.9391,29.6348
130,-9.81,-1.3029,0.2299,36.2435,-0.2087,28.7304
135,-10.1166,-1.4179,0.1916,40.6957,-5.7043,26.713
140,-10.2315,-1.3412,0.0383,44.2435,-11.2696,24.6261
145,-10.883,-1.4945,-0.115,46.5391,-16.0696,22.3304
150,-10.9213,-1.2646,-0.0383,47.4435,-19.4087,20.9391
155,-11.2662,-1.2646,-0.115,47.1652,-21.287,20.5217
160,-10.9979,-1.4945,0.115,46.3304,-21.4957,20.1739
165,-11.0746,-1.7244,0.3066,44.5913,-20.9391,17.8087
170,-11.2279,-1.8777,0.3832,42.713,-20.2435,15.1652
175,-11.3428,-2.1076,0.4982,41.7391,-18.8522,13.4261
180,-11.4195,-1.8777,0.2299,41.3913,-17.6696,12.9391
185,-11.1895,-1.8777,0.115,40.9043,-16.5565,12.3826
190,-10.883,-1.916,0.2299,40.2783,-16.0696,10.9217
195,-10.7297,-1.8011,0.1533,38.8174,-16.4174,8.6261
200,-10.4998,-2.1459,0.3066,37.1478,-17.9478,5.6348
205,-10.8446,-1.8394,0.2682,35.687,-20.5217,2.7826
210,-10.6147,-2.1843,0.6131,35.687,-23.6522,1.6
215,-11.1129,-2.031,0.8814,37.2174,-26.7826,0.7652
220,-11.2662,-2.0693,1.3412,39.3739,-30.4696,0.9739
225,-11.8027,-1.8777,1.6861,42.4348,-36.313,1.0435
230,-12.2242,-1.916,2.4142,45.287,-43.687,1.3913
235,-12.1092,-1.7627,2.8357,47.4435,-52.313,2.1565
240,-11.6877,-1.8777,3.4488,47.7913,-61.5652,2.3652
245,-11.4195,-1.5711,3.3339,45.5652,-70.1913,1.9478
250,-11.3428,-1.4562,3.1423,39.3043,-76.1739,2.087
255,-11.0363,-1.3029,2.7974,27.8261,-78.1217,2.8522
260,-10.9596,-0.9197,2.3759,12.3826,-75.3391,3.5478
265,-11.1512,-0.7664,2.1459,-4.3826,-68.8,4.7304
270,-11.2279,-0.5748,1.8777,-20.1043,-60.1739,6.887
275,-11.1895,-0.2682,1.5711,-33.1826,-50.6435,8.7652
280,-11.0746,-0.2682,1.3029,-41.9478,-40.9739,10.2261
285,-10.9979,-0.3832,1.073,-45.5652,-31.6522,11.4783
290,-10.9213,-0.2299,0.4982,-43.0609,-23.9304,10.2261
295,-11.1129,-0.4215,-0.0766,-34.7826,-18.4348,6.7478
300,-10.883,-0.8814,-0.2682,-22.7478,-14.7478,2.713
305,-10.8446,-1.5328,-0.3066,-8.8348,-12.313,-1.3913
310,-10.8063,-1.9543,-0.3066,5.8435,-10.3652,-5.287
315,-10.653,-2.4142,-0.2299,20.3826,-8.6957,-9.8087
320,-10.4231,-2.7591,-0.0383,34.0174,-7.0261,-13.7739
325,-10.1166,-2.989,0.0383,46.0522,-5.287,-18.2261
330,-9.9633,-3.1423,0.4215,56.2087,-3.7565,-22.9565
335,-9.925,-2.9507,0.8047,66.1565,-2.4348,-27.4087
340,-9.8866,-2.6441,1.1496,73.9478,-1.6696,-30.7478
345,-9.925,-1.9927,1.6095,82.7826,-1.3913,-32.3478
350,-9.9633,-1.1113,1.9927,91.7565,-2.0174,-32.6261
355,-9.8866,-0.8814,2.3375,98.5739,-4.0348,-32.5565
360,-9.5801,-0.4598,2.4142,101.6348,-7.513,-32.9043
365,-9.2352,0.0,2.4525,99.8261,-11.7565,-33.6
370,-8.8903,0.0383,2.5675,93.1478,-15.6522,-34.8522
375,-8.6987,0.2682,2.5675,82.6435,-18.6435,-36.313
380,-8.5838,0.2682,2.7207,69.8435,-20.4522,-36.8696
385,-8.3538,0.2299,2.8357,56.9043,-21.287,-36.5217
390,-8.2772,0.115,2.9123,44.8,-21.0783,-35.4087
395,-8.1239,-0.0766,2.9123,34.5739,-20.313,-33.6696
400,-8.2005,-0.2682,3.0656,26.713,-19.2696,-31.3739
405,-8.1239,-0.5748,3.0656,21.287,-17.6,-28.7304
410,-8.2389,-0.9197,2.7974,18.4348,-15.8609,-26.1565
415,-8.1239,-1.1496,3.1423,17.2522,-13.8435,-23.4435
420,-8.0089,-1.2263,2.989,16.9043,-11.9652,-21.0783
425,-7.9706,-1.1496,3.0273,16.9043,-10.2957,-18.9913
430,-7.8173,-1.2263,3.1039,16.7652,-8.487,-17.3913
435,-7.779,-1.2263,3.0656,16.1391,-6.4,-16.2087
440,-7.779,-1.0346,3.1806,15.1652,-3.8957,-15.0957
445,-7.7407,-0.843,3.1039,13.913,-1.6,-13.8435
450,-7.6641,-0.6131,3.2955,12.1043,0.2087,-12.8
455,-7.6257,-0.5365,3.1423,9.8783,1.5304,-11.687
460,-7.6641,-0.115,3.1423,6.8174,2.0174,-10.2957
465,-7.6641,-0.0766,3.1806,3.1304,2.087,-8.8348
470,-7.9323,0.0,3.0656,-0.8348,1.6,-7.1652
475,-8.1239,0.0383,3.1039,-5.2174,0.6957,-5.2174
480,-8.3538,0.0,2.9507,-10.1565,-0.487,-3.4087
485,-8.6987,0.0,2.9507,-15.2348,-1.4609,-1.8087
490,-8.967,0.0,2.7974,-20.2435,-2.2957,0.0
495,-9.3118,-0.115,2.7207,-24.9043,-2.7826,1.9478
500,-9.6567,-0.2682,2.4142,-28.5913,-3.3391,3.8957
505,-9.925,-0.3449,2.2609,-31.4435,-3.7565,5.5652
510,-10.0782,-0.2682,2.1843,-33.6696,-4.313,6.887
515,-10.1549,-0.1533,2.1843,-35.0609,-4.6609,7.7913
520,-10.4998,-0.2299,2.1076,-35.5478,-4.9391,7.9304
525,-10.2698,0.0,2.1459,-35.3391,-5.0087,7.4435
530,-10.3848,0.0,2.1459,-34.1565,-4.8696,6.0522
535,-10.5764,0.0383,2.0693,-33.0435,-4.5217,4.6609
540,-10.3848,0.0,2.031,-30.887,-3.9652,3.7565
545,-10.3082,0.0,2.1076,-28.5217,-3.4087,2.1565
550,-10.3465,0.0766,2.1459,-26.1565,-2.5739,0.4174
555,-10.1166,0.0,2.031,-23.6522,-1.6696,-1.6
560,-10.0782,0.115,2.0693,-21.6348,-0.5565,-3.687
565,-9.9633,0.0766,2.1076,-20.313,0.7652,-5.8435
570,-9.8866,0.0,2.1076,-19.9652,2.3652,-7.513
575,-9.8866,-0.1533,1.8777,-20.1739,4.2435,-8.9043
580,-9.6567,-0.0766,1.7244,-20.7304,6.3304,-9.6696
585,-9.5418,-0.2682,1.8394,-21.6348,8.3478,-10.087
590,-9.5418,-0.5748,1.8011,-22.7478,10.4348,-9.9478
595,-9.5418,-0.6131,1.916,-23.513,12.313,-9.3913
600,-9.6184,-0.7664,1.8777,-24.1391,13.6348,-8.5565
605,-9.5801,-0.958,1.8011,-24.6261,14.5391,-7.7913
610,-9.5418,-1.1496,1.8777,-24.7652,15.0957,-6.7478
615,-9.7334,-1.2263,1.916,-24.4174,15.1652,-5.5652
620,-9.7334,-1.4179,1.9543,-23.1652,15.0261,-3.9652
625,-9.695,-1.5328,1.8777,-20.9391,14.8174,-2.5739
630,-9.7717,-1.6861,2.0693,-17.8087,14.9565,-1.0435
635,-9.8866,-1.6095,1.9927,-14.0522,14.9565,0.487
640,-9.9633,-1.6478,1.8777,-10.5043,14.9565,1.9478
645,-9.81,-1.8011,1.916,-7.3043,14.6087,3.4087
650,-9.7717,-1.8011,1.916,-4.2435,14.2609,4.6609
655,-9.81,-1.7244,1.8394,-1.113,13.8435,5.4261
660,-9.81,-1.5711,1.9543,2.1565,13.5652,6.1217
665,-9.695,-1.4945,1.8011,5.2174,13.3565,6.1217
670,-9.5801,-1.3795,1.8394,7.8609,13.4957,5.8435
675,-9.6184,-1.2646,1.916,10.0174,13.6348,5.2174
680,-9.7334,-1.1113,1.9927,11.8261,13.7739,4.4522
685,-9.3118,-1.2263,2.0693,13.4261,14.0522,3.9652
690,-9.4651,-1.1113,1.9543,14.4,14.2609,3.3391
695,-9.4651,-1.1113,2.0693,15.1652,14.5391,2.5739
700,-9.5034,-1.1496,2.031,15.4435,14.8174,2.4348
705,-9.4651,-1.2263,1.9543,15.0957,15.0261,2.4348
710,-9.5801,-1.2263,1.916,14.2609,15.1652,2.7826
715,-9.5418,-1.1113,1.7627,13.0783,15.6522,3.0609
720,-9.5034,-1.2263,1.6861,12.1043,16.1391,3.6174
725,-9.5801,-1.2646,1.6478,10.9217,16.9043,4.0348
730,-9.4651,-1.2646,1.4562,10.0174,17.8087,4.5217
735,-9.6184,-1.2646,1.5328,9.113,19.1304,5.0783
740,-9.5801,-1.4179,1.3412,8.487,20.2435,5.6348
745,-9.5034,-1.4562,1.3029,8.4174,21.4957,6.2609
750,-9.3885,-1.6095,1.3795,8.5565,22.6783,6.8174
755,-9.3885,-1.5711,1.3795,8.8348,23.7217,7.2348
760,-9.3118,-1.7627,1.2646,9.3217,24.3478,7.5826
765,-9.2735,-1.7244,1.3795,10.0174,24.7652,8.0
770,-9.3118,-1.7627,1.4179,11.2,24.8348,7.8609
775,-9.3502,-1.8011,1.3795,12.4522,24.5565,7.6522
780,-9.4268,-1.916,1.4562,13.7043,24.2783,7.513
785,-9.4268,-1.9543,1.5328,15.2348,23.7217,7.0957
790,-9.5418,-1.7627,0.9963,16.6261,22.9565,7.0261
795,-9.5034,-1.6478,1.3029,17.9478,21.7739,6.7478
800,-9.5034,-1.7627,1.2646,19.0609,20.2435,6.2609
805,-9.5801,-1.6095,1.073,19.8957,18.5043,5.7739
810,-9.5801,-1.5328,1.2263,20.5913,16.6957,5.1478
815,-9.6567,-1.4179,1.073,21.0783,15.0261,4.7304
820,-9.8483,-1.1113,0.8814,21.5652,13.287,4.3826
825,-9.695,-1.1113,0.958,21.7739,11.3391,4.1043
830,-9.81,-0.9963,1.1496,21.5652,9.113,3.6174
835,-9.8483,-0.958,0.958,20.7304,6.887,3.2696
840,-9.81,-0.9963,0.7664,18.9217,4.9391,3.5478
845,-10.0016,-0.9197,0.843,16.5565,3.0609,4.0348
850,-10.0399,-0.9197,0.9197,13.8435,1.2522,4.8
855,-10.0782,-0.8814,0.8047,11.2,-0.2087,5.1478
860,-10.1549,-0.7664,0.6514,8.6957,-1.3913,5.3565
865,-10.1549,-0.6898,0.7664,6.6087,-1.8783,5.2174
870,-10.1932,-0.6514,0.6514,5.2174,-1.9478,5.2174
875,-10.4231,-0.6514,0.5365,4.4522,-1.5304,5.2174
880,-10.3082,-0.7664,0.4598,4.0348,-0.7652,5.2174
885,-10.3465,-0.9197,0.6131,3.687,0.4174,5.1478
890,-10.2698,-0.843,0.5365,3.6174,1.5304,5.0783
895,-10.3465,-0.9197,0.6514,3.7565,2.5043,4.9391
900,-10.1932,-0.843,0.6131,3.687,3.4087,5.0087
905,-10.2698,-0.8814,0.6131,3.9652,3.8957,4.9391
910,-10.1166,-1.073,0.8047,4.5913,4.0348,4.5217
915,-10.2698,-0.9197,0.7281,5.4261,3.8957,3.9652
920,-10.0782,-0.958,0.8814,6.4696,3.6174,3.1304
925,-10.2698,-0.8814,0.9197,8.0696,3.1304,2.2261
930,-10.1932,-0.8814,0.8814,9.6696,2.713,1.4609
935,-10.0399,-0.8047,0.958,11.5478,2.3652,0.9043
940,-10.0399,-0.958,1.0346,13.2174,2.087,0.5565
945,-9.9633,-0.7664,0.958,15.2348,1.9478,0.1391
950,-9.8866,-0.958,0.9963,16.6957,1.7391,-0.2783
955,-9.8866,-0.7664,1.1879,17.8087,1.4609,-0.6261
960,-9.7717,-0.6898,1.2263,18.5739,0.9739,-1.0435
965,-9.925,-0.6131,1.2263,18.8522,0.4174,-1.5304
970,-9.81,-0.6131,1.1496,18.713,-0.3478,-1.9478
975,-9.8483,-0.6514,1.3029,18.2261,-1.1826,-2.2957
980,-9.6567,-0.6131,1.3029,17.4609,-2.0174,-2.713
985,-9.81,-0.4598,1.2646,16.2783,-2.713,-2.8522
990,-9.7334,-0.4598,1.4179,15.0261,-3.5478,-2.9217
995,-9.7334,-0.4982,1.3412,13.7043,-4.1739,-3.0609
1000,-9.7717,-0.4982,1.1879,12.1739,-4.8,-3.0609
1005,-9.695,-0.4598,1.4179,10.713,-5.4261,-2.9217
1010,-9.6184,-0.4215,1.5328,9.0435,-5.9826,-3.0609
1015,-9.6567,-0.3832,1.5328,7.2348,-6.7478,-3.1304
1020,-9.6567,-0.3832,1.5328,5.2174,-7.513,-3.2696
1025,-9.5801,-0.2682,1.6095,3.2,-8.2087,-3.4087
1030,-9.6567,-0.3832,1.4562,0.9739,-8.6957,-3.4783
1035,-9.6184,-0.4215,1.6861,-1.1826,-9.1826,-3.3391
1040,-9.4268,-0.5748,1.7244,-3.6174,-9.5304,-3.1304
1045,-9.5034,-0.5748,1.8777,-6.1913,-9.6696,-3.1304
1050,-9.4268,-0.5365,1.8777,-8.6261,-9.6696,-2.9217
1055,-9.5801,-0.6898,1.8011,-11.4087,-9.6696,-2.8522
1060,-9.5801,-0.6514,1.7627,-13.913,-9.6,-2.713
1065,-9.5801,-0.6898,1.8777,-16.487,-9.4609,-2.5739
1070,-9.6567,-0.6514,1.6861,-18.7826,-9.4609,-2.5739
1075,-9.6184,-0.7281,1.7244,-20.8,-9.3913,-2.2957
1080,-9.7334,-0.7281,1.6095,-22.4696,-9.4609,-2.2261
1085,-9.7334,-0.6514,1.8011,-23.8609,-9.4609,-2.2261
1090,-9.695,-0.5748,1.5328,-24.6957,-9.5304,-2.2957
1095,-9.8866,-0.843,1.4562,-25.2522,-9.4609,-2.6435
1100,-9.6567,-0.9197,1.4945,-25.3913,-9.3913,-2.8522
1105,-9.8866,-0.8814,1.5711,-25.0435,-9.2522,-3.2
1110,-9.81,-0.843,1.6478,-24.2783,-9.2522,-3.6174
1115,-9.81,-0.843,1.3029,-23.1652,-9.2522,-3.9652
1120,-9.7717,-0.8814,1.4179,-21.7043,-9.1826,-4.4522
1125,-9.8866,-0.958,1.3412,-19.7565,-9.2522,-4.9391
1130,-9.81,-0.843,1.2646,-17.8087,-9.2522,-5.6348
1135,-9.8866,-0.8814,1.3029,-15.513,-9.3913,-6.3304
1140,-9.8483,-0.8814,1.073,-13.2174,-9.5304,-6.9565
1145,-9.925,-0.8814,1.4179,-11.0609,-9.5304,-7.5826
1150,-9.8866,-0.9963,1.2263,-8.487,-9.6,-8.0
1155,-9.925,-1.1496,1.1879,-6.4,-9.6,-8.487
1160,-10.0399,-0.6898,1.0346,-4.5217,-9.5304,-8.9043
1165,-10.0016,-1.0346,1.1496,-2.6435,-9.3913,-9.2522
1170,-9.8866,-1.073,1.073,-0.9739,-9.3913,-9.6696
1175,-10.0016,-1.0346,1.1113,0.6957,-9.4609,-9.9478
1180,-9.8866,-1.073,1.3029,2.2261,-9.8087,-10.2261
1185,-9.8483,-1.1496,1.0346,3.7565,-10.1565,-10.5043
1190,-9.8866,-1.1496,1.3029,5.3565,-10.713,-10.9217
1195,-9.8866,-1.2263,1.3029,7.0957,-11.2,-11.1304
1200,-9.8866,-1.1879,1.4562,8.9739,-11.687,-11.3391
1205,-9.7334,-1.2263,1.4945,11.2,-12.0348,-11.4783
1210,-9.7334,-1.2263,1.3795,13.4957,-12.3826,-11.5478
1215,-9.925,-1.5711,1.1879,15.8609,-12.4522,-11.4783
1220,-9.81,-1.3412,1.5711,18.0174,-12.313,-11.4087
1225,-9.81,-1.3412,1.6478,19.687,-12.2435,-11.0609
1230,-9.7334,-1.3412,1.6478,20.9391,-12.2435,-10.8522
1235,-9.5418,-1.3795,1.7244,21.8435,-12.3826,-10.5739
1240,-9.6567,-1.3412,1.8011,22.4,-12.5217,-10.5739
1245,-9.6184,-1.1879,1.7244,22.5391,-12.5913,-10.4348
1250,-9.5801,-1.2646,1.9543,22.5391,-12.5913,-10.2261
1255,-9.3885,-1.1879,1.8011,22.0522,-12.313,-10.087
1260,-9.4651,-1.1879,1.9543,21.1478,-11.7565,-9.8783
1265,-9.3885,-1.1113,1.9927,20.0348,-11.2696,-9.6
1270,-9.4268,-1.5328,1.9927,18.713,-10.6435,-9.1826
1275,-9.3885,-1.1879,2.0693,17.1826,-10.1565,-8.7652
1280,-9.4268,-1.1496,2.1459,15.7217,-9.8783,-8.2783
1285,-9.3502,-1.1879,2.1076,14.1217,-9.8087,-7.9304
1290,-9.4268,-1.1113,2.1076,12.5913,-9.7391,-7.6522
1295,-9.3885,-1.1879,2.1843,11.0609,-9.9478,-7.3739
1300,-9.3885,-1.1113,2.1843,9.4609,-10.2261,-7.1652
1305,-9.5418,-1.1879,2.1459,7.9304,-10.5739,-7.3043
1310,-9.4651,-1.2263,1.8777,6.3304,-10.7826,-7.2348
1315,-9.3502,-1.3795,2.1459,4.9391,-10.9217,-7.2348
1320,-9.5034,-1.5328,1.7627,3.6174,-10.8522,-7.513
1325,-9.5418,-1.4179,1.9927,2.3652,-10.5739,-7.5826
1330,-9.4651,-1.3412,2.0693,1.3217,-10.2261,-7.5826
1335,-9.5418,-1.4179,1.916,0.487,-9.7391,-7.6522
1340,-9.4651,-1.4945,1.9543,-0.1391,-9.113,-7.6522
1345,-9.5034,-1.5328,2.1076,-0.5565,-8.2087,-7.6522
1350,-9.5034,-1.3795,2.031,-0.7652,-7.6522,-7.9304
1355,-9.3502,-1.5328,2.2226,-0.7652,-7.1652,-8.0696
1360,-9.4268,-1.4945,2.0693,-0.6261,-6.7478,-8.0
1365,-9.4651,-1.4945,1.9927,-0.6957,-6.6087,-8.0696
1370,-9.3885,-1.4562,2.2609,-0.6261,-6.5391,-8.0696
1375,-9.3885,-1.6095,1.8777,-0.487,-6.5391,-8.0
1380,-9.2352,-1.4562,2.1076,-0.3478,-6.6783,-8.0696
1385,-9.1969,-1.4945,2.2226,-0.2087,-6.6783,-7.8609
1390,-9.2735,-1.3029,2.1843,-0.2087,-6.7478,-7.6522
1395,-9.3118,-1.3795,2.2226,-0.0696,-6.9565,-7.4435
1400,-9.3118,-1.4179,2.2609,0.0696,-7.0957,-7.1652
1405,-9.3502,-1.3412,2.1843,0.1391,-7.0957,-6.887
1410,-9.3885,-1.2646,2.1843,0.1391,-7.2348,-6.7478
1415,-9.3502,-1.3029,2.1076,0.1391,-7.1652,-6.4696
1420,-9.4651,-1.2646,2.2226,0.0,-7.0957,-6.3304
1425,-9.4268,-1.1879,2.1076,-0.4174,-6.9565,-6.0522
1430,-9.3502,-1.4945,2.1843,-1.0435,-6.6783,-5.9826
1435,-9.4268,-1.4179,2.1459,-2.0174,-6.4,-5.913
1440,-9.5034,-1.2263,2.1843,-2.8522,-6.1217,-5.913
1445,-9.5034,-1.3029,2.1076,-3.7565,-5.8435,-5.7739
1450,-9.3885,-1.3795,2.1459,-4.5217,-5.4261,-5.7043
1455,-9.4651,-1.1879,2.031,-5.0783,-4.9391,-5.6348
1460,-9.5034,-1.3412,2.0693,-5.5652,-4.3826,-5.6348
1465,-9.4651,-1.3412,2.0693,-5.7043,-3.8957,-5.5652
1470,-9.4268,-1.5711,2.1459,-5.6348,-3.4087,-5.6348
1475,-9.4268,-1.4562,2.0693,-5.3565,-2.9913,-5.7043
1480,-9.3885,-1.5711,2.0693,-5.0783,-2.5739,-5.7043
1485,-9.2735,-1.4945,2.031,-4.7304,-2.3652,-5.6348
1490,-9.4268,-1.4945,2.0693,-4.1739,-2.087,-5.6348
1495,-9.4651,-1.4945,2.031,-3.4087,-1.9478,-5.6348
1500,-9.5034,-1.4945,2.1459,-2.7826,-1.7391,-5.6348
1505,-9.4268,-1.5711,1.916,-2.2957,-1.6,-5.4957
1510,-9.5418,-1.4945,2.0693,-1.6696,-1.5304,-5.4261
1515,-9.4268,-1.6095,2.1459,-1.0435,-1.5304,-5.3565
1520,-9.4268,-1.6861,2.0693,-0.487,-1.4609,-5.2174
1525,-9.2735,-1.6095,2.1076,-0.0696,-1.5304,-5.1478
1530,-9.3885,-1.4179,2.0693,0.487,-1.3913,-4.9391
1535,-9.4651,-1.7244,2.1459,0.9043,-1.3913,-4.7304
1540,-9.3118,-1.5711,2.0693,1.4609,-1.3217,-4.5913
1545,-9.3885,-1.6478,2.1843,1.8087,-1.2522,-4.313
1550,-9.4268,-1.6095,2.1459,2.0174,-1.113,-4.1043
1555,-9.3502,-1.5711,2.1459,2.2261,-0.9739,-3.8261
1560,-9.3502,-1.6095,2.1459,2.3652,-0.7652,-3.5478
1565,-9.3885,-1.5711,2.2992,2.3652,-0.6261,-3.2696
1570,-9.3118,-1.6095,2.1843,2.3652,-0.487,-2.9913
1575,-9.2735,-1.6861,2.3375,2.2261,-0.2087,-2.7826
1580,-9.2735,-1.7244,2.2226,1.9478,0.0696,-2.6435
1585,-9.1969,-1.5328,2.2992,1.6696,0.4174,-2.4348
1590,-9.3118,-1.4179,2.2226,1.3913,0.6957,-2.2261
1595,-9.3885,-1.6478,2.2226,1.113,0.9739,-2.087
1600,-9.3502,-1.5711,2.2992,0.9739,1.2522,-2.087
1605,-9.4268,-1.5711,2.1843,0.7652,1.4609,-1.8087
1610,-9.2735,-1.6478,2.1459,0.6957,1.7391,-1.8087
1615,-9.4268,-1.4945,2.2609,0.6957,2.0174,-1.8087
1620,-9.3885,-1.5328,2.1076,0.6261,1.9478,-1.6696
1625,-9.4651,-1.4945,1.9927,0.5565,2.2261,-1.7391
1630,-9.4268,-1.6095,2.1843,0.5565,2.2261,-1.6
1635,-9.5418,-1.4945,2.1459,0.5565,2.2261,-1.5304
1640,-9.3118,-1.5711,2.1843,0.5565,2.3652,-1.3913
1645,-9.2352,-1.7244,2.5675,0.5565,2.5043,-1.4609
1650,-9.3502,-1.6478,2.1076,0.6957,2.5739,-1.5304
1655,-9.4268,-1.6478,2.1076,0.9043,2.8522,-1.5304
1660,-9.5801,-1.7244,2.0693,1.113,2.9913,-1.4609
1665,-9.4268,-1.6861,1.9927,1.3913,3.2696,-1.4609
1670,-9.4651,-1.6095,2.1076,1.7391,3.4087,-1.3913
1675,-9.3885,-1.7244,2.1076,2.087,3.6174,-1.3913
1680,-9.3885,-1.8394,2.031,2.5043,3.7565,-1.6
1685,-9.5034,-1.6478,2.1076,3.0609,3.8957,-1.5304
1690,-9.3885,-1.7627,2.0693,3.3391,3.8957,-1.6
1695,-9.4268,-1.8777,2.031,3.7565,3.8261,-1.4609
1700,-9.5418,-1.7244,2.1459,4.2435,3.6174,-1.5304
1705,-9.3502,-1.7627,2.1076,4.6609,3.5478,-1.3217
1710,-9.5034,-1.6478,1.9927,5.0087,3.4087,-1.1826
1715,-9.4268,-1.7244,2.1076,5.4957,3.1304,-1.113
1720,-9.3885,-1.6478,1.9927,5.7739,2.8522,-0.8348
1725,-9.4268,-1.7244,2.031,6.0522,2.5739,-0.5565
1730,-9.4268,-1.6478,1.9927,6.1217,2.3652,-0.5565
1735,-9.3502,-1.5328,2.1076,6.1913,2.087,-0.3478
1740,-9.3502,-1.5328,2.031,6.3304,2.087,-0.3478
1745,-9.3885,-1.4945,2.1076,6.1913,2.0174,-0.3478
1750,-9.4651,-1.4945,1.9543,6.0522,2.087,-0.1391
1755,-9.4651,-1.4562,2.0693,5.8435,2.087,0.0696
1760,-9.3885,-1.4945,2.031,5.4261,2.1565,0.2087
1765,-9.3885,-1.4945,2.0693,5.1478,2.087,0.3478
1770,-9.3118,-1.5328,2.1076,4.6609,1.9478,0.487
1775,-9.4268,-1.4562,2.1459,4.0348,1.8087,0.487
1780,-9.3502,-1.4179,2.1843,3.5478,1.7391,0.6957
1785,-9.4268,-1.3795,2.1076,2.8522,1.7391,0.6261
1790,-9.3502,-1.5328,2.1076,2.2261,1.7391,0.8348
1795,-9.3885,-1.4945,2.1076,1.6,1.7391,0.7652
1800,-9.4268,-1.7244,2.1076,1.0435,1.7391,0.7652
1805,-9.3502,-1.5328,2.1076,0.5565,1.9478,0.6261
1810,-9.3885,-1.5711,2.1459,0.1391,2.1565,0.5565
1815,-9.4268,-1.3795,2.031,-0.0696,2.2957,0.5565
1820,-9.5801,-1.5328,2.1076,-0.2087,2.5043,0.3478
1825,-9.3885,-1.6095,2.0693,-0.2783,2.713,0.3478
1830,-9.6184,-1.4179,1.9927,-0.2087,2.7826,0.2783
1835,-9.5418,-1.5711,1.9927,-0.0696,2.7826,0.1391
1840,-9.4268,-1.4562,2.031,0.2783,2.9217,-0.0696
1845,-9.3885,-1.5328,1.9927,0.5565,2.9217,-0.1391
1850,-9.6184,-1.4945,1.8011,0.8348,2.9217,-0.2087
1855,-9.3885,-1.5711,1.9927,1.2522,2.8522,-0.4174
1860,-9.4651,-1.3795,1.916,1.5304,2.7826,-0.3478
1865,-9.5034,-1.5711,2.031,1.8087,2.5043,-0.487
1870,-9.5418,-1.4562,1.9927,2.087,2.5739,-0.487
1875,-9.5801,-1.5711,2.031,2.2261,2.3652,-0.5565
1880,-9.5418,-1.4945,2.1076,2.2957,2.2261,-0.487
1885,-9.4268,-1.4562,2.031,2.087,2.087,-0.5565
1890,-9.5801,-1.4562,2.031,2.0174,2.0174,-0.4174
1895,-9.4651,-1.4562,2.1076,1.8783,1.8783,-0.487
1900,-9.6567,-1.4562,2.1843,1.6696,1.8783,-0.487
1905,-9.4268,-1.5328,2.031,1.3217,1.8087,-0.4174
1910,-9.5418,-1.5328,2.0693,1.0435,1.7391,-0.3478
1915,-9.4651,-1.6095,1.9543,0.6957,1.7391,-0.3478
1920,-9.5418,-1.4945,1.916,0.3478,1.7391,-0.2087
1925,-9.4651,-1.5328,2.0693,-0.1391,1.8783,-0.2783
1930,-9.3885,-1.4562,2.0693,-0.5565,2.0174,-0.2087
1935,-9.4268,-1.4945,1.9543,-0.9043,2.087,-0.3478
1940,-9.4268,-1.4945,1.9543,-1.3217,2.087,-0.2087
1945,-9.4651,-1.5328,2.1459,-1.6696,2.1565,-0.2087
1950,-9.4651,-1.4562,2.1459,-1.9478,2.2261,-0.2783
1955,-9.4651,-1.4945,2.031,-2.2261,2.1565,-0.487
1960,-9.4651,-1.5711,1.9927,-2.3652,2.1565,-0.4174
1965,-9.5418,-1.4562,2.0693,-2.5739,2.1565,-0.487
1970,-9.4268,-1.6478,2.0693,-2.6435,2.1565,-0.4174
1975,-9.5801,-1.5711,2.031,-2.713,2.2261,-0.4174
1980,-9.5418,-1.5711,2.031,-2.5739,2.1565,-0.3478
1985,-9.5418,-1.6478,1.9927,-2.2957,2.2261,-0.2783
1990,-9.5801,-1.6095,1.916,-2.0174,2.2957,-0.3478
1995,-9.5418,-1.5711,2.0693,-1.6,2.2957,-0.4174
2000,-9.5418,-1.6861,1.8777,-1.2522,2.3652,-0.3478
2005,-9.5418,-1.7244,1.916,-0.7652,2.2261,-0.2783
2010,-9.5801,-1.5711,1.8777,-0.2783,2.2261,-0.3478
2015,-9.4268,-1.7627,2.1076,0.0696,2.1565,-0.2783
2020,-9.6184,-1.6095,1.8777,0.487,2.0174,-0.2783
2025,-9.5034,-1.6095,1.9543,0.8348,1.8783,-0.0696
2030,-9.4651,-1.6095,2.031,0.9739,1.9478,-0.1391
2035,-9.3885,-1.6095,1.9543,1.113,1.8087,-0.1391
2040,-9.3502,-1.6861,1.9927,1.113,1.8783,0.0696
2045,-9.4268,-1.6478,2.0693,1.113,1.8783,0.1391
2050,-9.3502,-1.6095,1.9543,1.0435,1.9478,0.3478
2055,-9.3118,-1.6095,2.0693,0.9739,1.9478,0.487
2060,-9.3118,-1.6478,2.1076,0.7652,2.087,0.6261
2065,-9.3502,-1.5328,2.2226,0.6957,2.2261,0.6261
2070,-9.3885,-1.4945,2.031,0.487,2.2957,0.7652
2075,-9.3502,-1.6478,2.1459,0.3478,2.3652,0.7652
2080,-9.3502,-1.6861,1.9927,0.1391,2.5739,0.9043
2085,-9.3885,-1.5711,2.1459,-0.1391,2.713,0.9739
2090,-9.3885,-1.6095,2.1459,-0.2087,2.8522,0.8348
2095,-9.3885,-1.6861,2.0693,-0.2087,2.7826,0.8348
2100,-9.4268,-1.6095,1.9927,-0.0696,2.9913,0.8348
2105,-9.5034,-1.6095,1.9543,-0.0696,3.1304,0.6957
2110,-9.5418,-1.6095,2.1076,0.0,3.1304,0.7652
2115,-9.5801,-1.4945,1.916,-0.0696,3.0609,0.9043
2120,-9.4268,-1.5328,2.031,0.0696,2.9913,0.8348
2125,-9.4651,-1.6095,2.1459,0.0,3.0609,0.7652
2130,-9.4268,-1.6478,2.1076,0.0696,2.9913,0.8348
2135,-9.5034,-1.5711,1.9543,0.0696,2.9217,0.7652
2140,-9.5034,-1.4945,1.9543,0.0696,2.9217,0.6957
2145,-9.5418,-1.5711,2.031,-0.0696,2.8522,0.6957
2150,-9.4651,-1.4945,2.1076,-0.2783,2.8522,0.6261
2155,-9.5801,-1.4562,1.916,-0.2783,2.8522,0.5565
2160,-9.4651,-1.6478,1.9543,-0.487,3.0609,0.5565
2165,-9.5034,-1.6095,2.1459,-0.6261,2.9913,0.6261
2170,-9.5801,-1.5328,1.9543,-0.6957,3.0609,0.6261
2175,-9.4651,-1.6095,2.031,-0.9043,3.2,0.6261
2180,-9.4268,-1.6861,1.9543,-0.9043,3.2696,0.5565
2185,-9.4268,-1.6861,2.0693,-0.9739,3.3391,0.7652
2190,-9.4268,-1.6478,1.8777,-1.0435,3.4087,0.9043
2195,-9.5034,-1.5711,1.8394,-1.1826,3.6174,1.0435
2200,-9.4651,-1.5711,2.0693,-1.1826,3.7565,1.113
2205,-9.5418,-1.4562,2.031,-1.3217,3.8261,1.1826
2210,-9.5418,-1.5711,1.9543,-1.3913,3.9652,1.3217
2215,-9.3885,-1.7244,1.9543,-1.5304,4.0348,1.4609
2220,-9.4651,-1.5328,1.8777,-1.7391,3.8957,1.5304
2225,-9.5034,-1.4945,1.8394,-1.6696,3.9652,1.4609
2230,-9.4651,-1.5328,1.9927,-1.6,3.8957,1.4609
2235,-9.6567,-1.4562,1.9927,-1.6,3.7565,1.4609
2240,-9.7334,-1.5328,2.1076,-1.5304,3.687,1.4609
2245,-9.4268,-1.4179,2.0693,-1.4609,3.4783,1.4609
2250,-9.5034,-1.4179,1.7627,-1.4609,3.4783,1.4609
2255,-9.7334,-1.4562,1.8011,-1.3217,3.3391,1.2522
2260,-9.5801,-1.5328,1.8011,-1.1826,3.3391,1.1826
2265,-9.5418,-1.4945,1.916,-1.0435,3.3391,1.0435
2270,-9.5801,-1.5711,1.8011,-0.6261,3.4087,0.9043
2275,-9.6184,-1.4945,1.8394,-0.0696,3.4783,0.6957
2280,-9.6184,-1.6861,1.7627,0.487,3.5478,0.487
2285,-9.6184,-1.4562,1.7244,1.1826,3.687,0.3478
2290,-9.4651,-1.5711,1.9927,1.8783,3.687,0.1391
2295,-9.5418,-1.5711,1.8011,2.5043,3.5478,-0.0696
2300,-9.5418,-1.6478,1.8394,3.2,3.2696,-0.2087
2305,-9.5418,-1.6478,1.7627,3.7565,3.0609,-0.3478
2310,-9.5034,-1.6478,1.6861,4.1043,2.6435,-0.2087
2315,-9.5034,-1.6861,1.8777,4.5217,2.2957,-0.3478
2320,-9.5034,-1.7244,1.7244,4.7304,1.8783,-0.2087
2325,-9.5801,-1.6478,1.6861,4.8696,1.7391,-0.1391
2330,-9.6184,-1.5711,1.8777,4.7304,1.5304,0.0696
2335,-9.4268,-1.6861,1.8394,4.5913,1.4609,0.2087
2340,-9.4268,-1.6478,1.8011,4.3826,1.5304,0.4174
2345,-9.5034,-1.6095,1.8777,4.1739,1.7391,0.4174
2350,-9.5034,-1.6478,1.7244,3.7565,1.8087,0.5565
2355,-9.3885,-1.6478,1.916,3.5478,1.9478,0.6261
2360,-9.5034,-1.5328,1.8394,3.2696,2.1565,0.7652
2365,-9.4651,-1.7244,1.9543,2.7826,2.4348,0.9739
2370,-9.5034,-1.5328,2.031,2.4348,2.5739,0.9739
2375,-9.4651,-1.6095,1.8394,2.0174,2.713,0.9739
2380,-9.4268,-1.5328,2.031,1.6696,2.6435,1.0435
2385,-9.4651,-1.6861,1.9543,1.3217,2.713,1.1826
2390,-9.5034,-1.4179,2.0693,1.2522,2.5739,1.113
2395,-9.5418,-1.2263,1.9927,1.1826,2.5043,1.113
2400,-9.4268,-1.6861,1.916,1.1826,2.2957,1.1826
2405,-9.5801,-1.5328,1.8011,1.2522,2.1565,1.1826
2410,-9.4651,-1.4945,1.8777,1.1826,1.8783,0.9739
2415,-9.6184,-1.3412,1.9927,1.3913,1.8087,1.0435
2420,-9.4651,-1.5711,1.8394,1.3217,1.8783,0.9043
2425,-9.4651,-1.5711,1.8394,1.4609,1.8783,0.9043
2430,-9.5418,-1.5711,1.7627,1.3913,1.8087,0.8348
2435,-9.4651,-1.5711,1.7627,1.3913,2.0174,0.6957
2440,-9.5034,-1.3795,1.7627,1.6,2.087,0.6957
2445,-9.6184,-1.4945,1.9543,1.8087,1.9478,0.6957
2450,-9.6567,-1.4562,1.8394,1.9478,2.0174,0.6261
2455,-9.5801,-1.4562,1.7627,2.2261,2.0174,0.6261
2460,-9.6184,-1.3795,1.8394,2.4348,2.0174,0.6261
2465,-9.4651,-1.5711,1.8394,2.5739,2.0174,0.6957
2470,-9.5034,-1.5711,1.8394,2.6435,1.8783,0.8348
2475,-9.5418,-1.5328,1.8011,2.713,1.8087,0.7652
2480,-9.5034,-1.6861,1.8394,2.713,1.6,0.7652
2485,-9.5418,-1.4945,1.916,2.6435,1.5304,0.6957
2490,-9.4268,-1.4945,1.8011,2.5043,1.5304,0.7652
2495,-9.6184,-1.4562,1.916,2.4348,1.3913,0.8348
2500,-9.3885,-1.6861,2.0693,2.087,1.6,0.8348
2505,-9.5801,-1.4179,1.9543,2.0174,1.6,0.9043
2510,-9.5418,-1.3795,1.8777,1.8783,1.8087,0.7652
2515,-9.5801,-1.4562,1.9927,1.6696,1.9478,0.7652
2520,-9.5034,-1.4179,1.916,1.2522,2.087,0.8348
2525,-9.5418,-1.5328,1.916,0.9739,2.087,0.8348
2530,-9.5418,-1.4179,1.8777,0.6957,2.1565,0.8348
2535,-9.6567,-1.3795,1.8777,0.487,2.2957,0.9043
2540,-9.5034,-1.4562,1.7627,0.2087,2.3652,0.8348
2545,-9.4268,-1.5711,2.0693,0.0696,2.3652,0.7652
2550,-9.4651,-1.5328,1.8777,0.0,2.3652,0.9043
2555,-9.695,-1.7244,1.7244,0.0,2.2957,0.7652
2560,-9.4651,-1.4562,1.7244,-0.0696,2.1565,0.7652
2565,-9.5418,-1.4562,1.8394,-0.0696,2.087,0.6957
2570,-9.6184,-1.5328,1.6861,-0.1391,2.087,0.6957
2575,-9.6184,-1.4945,1.8011,-0.1391,1.9478,0.6261
2580,-9.5418,-1.5328,1.8011,-0.1391,1.8783,0.5565
2585,-9.5418,-1.5711,1.8011,-0.1391,1.8783,0.6261
2590,-9.6567,-1.5328,1.6861,0.0696,1.9478,0.6957
2595,-9.6184,-1.4562,1.5328,0.2087,1.9478,0.6261
2600,-9.6567,-1.5328,1.6478,0.5565,1.9478,0.487
2605,-9.4651,-1.5711,1.7627,1.113,1.9478,0.5565
2610,-9.5418,-1.6478,1.7244,1.6,2.0174,0.4174
2615,-9.5418,-1.5328,1.7627,2.0174,1.9478,0.3478
2620,-9.6567,-1.5711,1.8394,2.5043,1.8087,0.2783
2625,-9.695,-1.4945,1.6478,2.9217,1.6696,0.2087
2630,-9.5418,-1.4179,1.6478,3.2,1.4609,0.0696
2635,-9.5418,-1.6478,1.6861,3.6174,1.2522,0.1391
2640,-9.695,-1.3029,1.5711,3.7565,0.9739,0.0696
2645,-9.5801,-1.3795,1.7244,3.9652,0.8348,0.0
2650,-9.4651,-1.4562,1.7244,3.8957,0.6261,0.0
2655,-9.6184,-1.4179,1.916,3.8261,0.6261,0.0696
2660,-9.4651,-1.3795,1.916,3.8261,0.4174,0.1391
2665,-9.5034,-1.4945,1.8777,3.687,0.487,0.0696
2670,-9.5801,-1.4945,1.916,3.6174,0.4174,0.0696
2675,-9.6184,-1.3412,1.8394,3.4783,0.5565,0.0696
2680,-9.7334,-1.3412,1.8011,3.3391,0.6957,-0.0696
2685,-9.5418,-1.3795,1.8394,3.1304,0.6957,-0.0696
2690,-9.4651,-1.4562,1.7627,2.9913,0.6957,-0.0696
2695,-9.6184,-1.6095,1.7627,2.9913,0.6957,-0.1391
2700,-9.6567,-1.5328,1.7627,2.9217,0.6957,-0.2783
2705,-9.6567,-1.3412,1.8394,2.8522,0.6957,-0.2087
2710,-9.5418,-1.6861,1.8011,2.8522,0.5565,-0.2783
2715,-9.6184,-1.4179,2.2609,3.0609,0.5565,-0.3478
2720,-9.6567,-1.2646,1.8394,3.1304,0.4174,-0.4174
2725,-9.6567,-1.4179,1.7244,3.2696,0.3478,-0.487
2730,-9.5418,-1.4945,1.7244,3.2696,0.3478,-0.487
2735,-9.5801,-1.4562,1.8011,3.2696,0.2783,-0.6261
2740,-9.695,-1.4945,1.7627,3.4087,0.2783,-0.6261
2745,-9.5418,-1.4945,1.6861,3.3391,0.2783,-0.5565
2750,-9.4651,-1.5711,1.8394,3.2696,0.2783,-0.487
2755,-9.5418,-1.4179,1.8777,3.2,0.2783,-0.6957
2760,-9.5034,-1.4562,1.8777,3.1304,0.3478,-0.5565
2765,-9.5801,-1.4945,1.8011,3.0609,0.4174,-0.5565
2770,-9.3885,-1.6478,1.8394,2.9217,0.487,-0.6957
2775,-9.4651,-1.3795,1.8777,2.8522,0.487,-0.6261
2780,-9.4651,-1.5328,1.9543,2.7826,0.6261,-0.4174
2785,-9.5801,-1.4945,1.916,2.713,0.6957,-0.487
2790,-9.5801,-1.4945,1.8394,2.5043,0.8348,-0.5565
2795,-9.5418,-1.5328,1.916,2.4348,0.8348,-0.5565
2800,-9.5418,-1.4562,1.8777,2.2261,0.7652,-0.4174
2805,-9.5801,-1.4179,1.7627,2.2261,0.9043,-0.5565
2810,-9.4651,-1.6095,1.916,2.0174,0.9043,-0.4174
2815,-9.6567,-1.4562,1.7244,1.9478,1.0435,-0.487
2820,-9.7334,-1.6861,1.7627,1.9478,1.0435,-0.3478
2825,-9.5418,-1.4945,1.916,2.0174,1.113,-0.3478
2830,-9.4651,-1.6095,1.8394,2.087,1.113,-0.2087
2835,-9.5801,-1.4562,1.7627,2.2261,0.9739,-0.1391
2840,-9.5801,-1.4562,1.8011,2.3652,0.9043,-0.2087
2845,-9.5418,-1.4179,1.9543,2.5043,0.8348,-0.0696
2850,-9.6567,-1.3795,1.7627,2.4348,0.7652,-0.1391
2855,-9.5418,-1.4945,1.916,2.5043,0.6957,-0.2783
2860,-9.4651,-1.6478,1.916,2.3652,0.6261,-0.1391
2865,-9.5801,-1.2646,1.8011,2.3652,0.6957,-0.0696
2870,-9.5034,-1.4562,1.7244,2.3652,0.8348,-0.2783
2875,-9.6184,-1.6861,1.8394,2.5043,1.0435,-0.4174
2880,-9.4651,-1.6478,1.6861,2.6435,1.1826,-0.5565
2885,-9.5418,-1.5328,1.8777,3.0609,1.3217,-0.6957
2890,-9.5418,-1.5328,1.8394,3.4783,1.3913,-0.8348
2895,-9.5418,-1.6095,1.8394,3.8957,1.3913,-0.8348
2900,-9.4268,-1.6095,1.8394,4.313,1.1826,-1.0435
2905,-9.5034,-1.5711,1.7244,4.7304,1.1826,-1.113
2910,-9.5801,-1.5711,1.7627,5.0783,0.9739,-1.1826
2915,-9.5418,-1.6095,1.7627,5.4957,0.5565,-1.3217
2920,-9.695,-1.5711,1.8394,5.913,0.487,-1.3913
2925,-9.5801,-1.4562,1.8394,6.2609,0.3478,-1.3913
2930,-9.4268,-1.4945,1.8777,6.5391,0.2087,-1.3217
2935,-9.6184,-1.4562,1.8011,6.887,0.2783,-1.2522
2940,-9.6184,-1.4562,1.7244,7.1652,0.2783,-1.2522
2945,-9.4651,-1.5328,1.7244,7.3739,0.2087,-1.1826
2950,-9.4651,-1.4562,1.916,7.7217,0.3478,-1.2522
2955,-9.5034,-1.5711,1.8394,7.8609,0.4174,-1.3217
2960,-9.5418,-1.3795,1.8777,8.0696,0.3478,-1.3913
2965,-9.5418,-1.4179,1.8777,8.0,0.4174,-1.3217
2970,-9.3502,-1.5328,1.7627,8.0,0.5565,-1.1826
2975,-9.6567,-1.4562,1.8777,7.7217,0.5565,-1.113
2980,-9.5418,-1.5711,1.7244,7.513,0.6261,-1.113
2985,-9.5801,-1.4179,1.8394,7.3739,0.5565,-0.9739
2990,-9.5418,-1.4945,1.9543,7.2348,0.4174,-0.8348
2995,-9.5418,-1.4179,1.8394,7.0261,0.2783,-0.8348
