timestamp,accX,accY,accZ,gyroX,gyroY,gyroZ
0,-9.6567,-1.3795,1.5711,21.0783,-17.7391,-7.9304
5,-9.7717,-1.3412,1.6478,19.7565,-17.6,-7.9304
10,-9.7717,-1.4179,1.7244,18.3652,-17.8783,-7.7217
15,-9.7334,-1.4179,1.6095,16.9739,-18.4348,-7.4435
20,-9.7334,-1.4179,1.4179,15.6522,-19.2,-7.0261
25,-9.8866,-1.3795,1.6861,14.7478,-20.313,-6.4696
30,-9.7717,-1.6095,1.5711,14.3304,-21.5652,-5.9826
35,-9.7334,-1.4945,1.6861,14.5391,-22.7478,-5.4957
40,-9.7717,-1.5711,1.4945,15.3043,-23.9304,-5.287
45,-9.6184,-1.5328,1.6095,16.6957,-24.7652,-5.0783
50,-9.6567,-1.4945,1.4179,18.8522,-25.2522,-4.8696
55,-9.4268,-1.5328,1.7244,21.287,-25.2522,-4.9391
60,-9.4268,-1.4179,1.7244,24.4174,-25.113,-5.287
65,-9.3118,-1.6095,1.8777,27.8261,-24.7652,-5.4957
70,-9.5418,-1.3412,2.031,31.5826,-24.4174,-5.8435
75,-9.6184,-1.1879,2.1459,35.5478,-24.0,-6.3304
80,-9.6184,-1.4179,2.0693,39.0261,-23.513,-6.6783
85,-9.7717,-1.1496,2.1843,42.0174,-22.9565,-6.887
90,-9.6567,-1.0346,2.0693,44.2435,-22.1913,-7.513
95,-9.6567,-0.958,1.9927,45.4261,-21.2174,-8.2783
100,-9.6184,-0.8047,1.9543,45.3565,-19.9652,-9.2522
105,-9.5801,-0.7664,1.8394,44.7304,-18.2261,-10.3652
110,-9.5034,-0.7281,1.8394,43.4783,-16.2087,-11.5478
115,-9.6567,-0.843,1.5711,41.8087,-14.1217,-13.2174
120,-9.695,-0.7664,1.3412,39.7913,-12.1043,-14.4
125,-9.7334,-0.8814,1.4562,37.6348,-10.087,-15.6522
130,-9.7334,-0.8047,1.1113,35.687,-8.5565,-16.6957
135,-9.5801,-0.843,1.073,34.2261,-7.3043,-17.5304
140,-9.7334,-0.7664,1.0346,33.2522,-6.1913,-18.087
145,-9.6567,-0.7281,1.1113,33.0435,-5.4957,-18.3652
150,-9.7334,-0.6514,1.3029,33.1826,-5.0783,-18.2957
155,-9.6184,-0.4598,1.3412,33.8087,-4.7304,-18.0174
160,-9.6184,-0.4598,1.4179,34.9913,-4.5913,-17.3913
165,-9.5801,-0.4215,1.2263,35.9652,-4.5913,-16.487
170,-9.4651,-0.2299,1.4562,37.3565,-4.5217,-15.0957
175,-9.5801,-0.1533,1.4179,38.4,-4.8696,-14.0522
180,-9.5034,0.1533,1.4945,39.2348,-5.4957,-12.6609
185,-9.5034,0.1916,1.4945,39.5826,-6.2609,-11.2696
190,-9.1586,0.2682,1.4179,39.513,-6.9565,-10.0174
195,-9.3502,0.3832,1.3795,38.6087,-7.7217,-8.6261
200,-9.5418,0.4598,1.3412,36.9391,-8.4174,-7.3043
205,-9.3885,0.4598,1.1496,34.5043,-9.0435,-6.1217
210,-9.3502,0.4598,1.073,31.513,-9.2522,-5.4957
215,-9.2352,0.4215,1.1496,28.0348,-9.0435,-4.6609
220,-9.1202,0.3832,1.1113,24.2783,-8.4174,-4.4522
225,-8.9286,0.115,1.1113,20.5913,-7.513,-4.3826
230,-9.1202,0.2299,1.1113,16.9739,-6.2609,-4.5913
235,-9.1969,0.115,1.3412,13.3565,-4.8696,-5.0783
240,-9.1969,0.0766,1.3412,10.0174,-3.5478,-5.4957
245,-9.3118,-0.1916,1.3795,6.887,-2.5043,-6.1217
250,-9.1202,-0.1916,1.4945,4.1043,-1.7391,-6.4
255,-9.1202,-0.4215,1.6095,1.6696,-1.3217,-6.2609
260,-9.1969,-0.4598,1.6095,-0.2087,-0.8348,-6.3304
265,-9.1586,-0.7281,1.8394,-1.6,-0.4174,-6.1217
270,-9.2352,-0.7664,1.8011,-2.5043,0.0,-5.7739
275,-9.2735,-0.7281,2.0693,-2.5739,0.1391,-5.3565
280,-9.2735,-0.9963,2.0693,-2.4348,-0.1391,-4.6609
285,-9.3118,-1.1113,2.031,-1.8783,-0.7652,-3.8261
290,-9.1586,-1.1113,2.031,-1.0435,-1.5304,-2.9913
295,-9.3118,-1.2263,2.1076,-0.0696,-2.5043,-1.8783
300,-9.3118,-1.2263,1.916,1.2522,-3.3391,-1.113
305,-9.5034,-1.1879,2.031,2.5043,-4.1739,0.0
310,-9.4268,-1.2646,1.9927,3.6174,-4.9391,0.9043
315,-9.5801,-1.1496,1.916,4.6609,-5.9826,1.8087
320,-9.4651,-1.1879,1.9543,5.4957,-6.5391,2.5043
325,-9.5418,-1.1496,1.8394,6.1217,-6.887,3.2
330,-9.695,-1.073,1.7627,6.3304,-7.2348,3.8957
335,-9.6567,-1.0346,1.9927,5.7043,-7.5826,4.3826
340,-9.81,-1.1496,1.8011,4.9391,-7.7913,4.8696
345,-9.6184,-1.073,1.9543,4.0348,-8.0,5.1478
350,-9.8866,-0.8814,1.8011,2.7826,-8.0696,5.3565
355,-9.695,-0.958,1.8777,1.3913,-8.4174,5.5652
360,-9.695,-1.073,1.916,-0.2783,-8.6957,5.5652
365,-9.7717,-0.9197,1.916,-2.0174,-9.113,5.7043
370,-9.6567,-1.1113,1.916,-3.7565,-9.4609,5.913
375,-9.6567,-1.1496,1.8777,-5.4957,-10.1565,5.913
380,-9.6184,-1.2263,1.9543,-6.887,-10.8522,6.0522
385,-9.6567,-1.1879,1.9543,-8.0696,-11.687,6.1913
390,-9.695,-1.073,1.8394,-8.7652,-12.3826,6.2609
395,-9.695,-1.2263,1.8777,-9.113,-13.1478,6.4
400,-9.5801,-1.2263,1.8394,-9.1826,-13.6348,6.5391
405,-9.5418,-1.3412,1.916,-8.7652,-14.3304,6.6783
410,-9.5034,-1.4179,2.031,-7.8609,-14.7478,6.887
415,-9.5801,-1.4945,2.1076,-6.6087,-14.9565,7.2348
420,-9.4651,-1.5328,2.1843,-4.7304,-15.1652,7.3043
425,-9.4651,-1.4562,2.1459,-2.8522,-15.2348,7.513
430,-9.5034,-1.4562,2.3375,-0.8348,-15.1652,7.7217
435,-9.4268,-1.4179,2.1459,1.2522,-15.2348,7.7913
440,-9.4651,-1.2263,2.1843,3.1304,-15.3739,8.0
445,-9.3885,-1.4179,2.4525,4.5913,-15.6522,8.0696
450,-9.5418,-1.2646,2.4525,5.7043,-16.2087,8.2783
455,-9.3502,-1.3029,2.5291,6.4696,-16.9043,8.3478
460,-9.4268,-1.2646,2.5291,7.0957,-17.5304,8.4174
465,-9.4268,-1.3029,2.5675,7.513,-18.2957,8.3478
470,-9.5801,-1.2263,2.5291,8.0,-18.8522,8.1391
475,-9.4268,-1.1879,2.5291,8.3478,-19.4087,7.7913
480,-9.5418,-1.1113,2.5675,8.9043,-19.6174,7.8609
485,-9.4651,-1.0346,2.6824,9.6696,-19.7565,7.8609
490,-9.5418,-0.9963,2.4908,10.5739,-19.7565,7.8609
495,-9.5034,-0.9963,2.7591,11.4783,-19.5478,7.8609
500,-9.4651,-0.958,2.6441,12.313,-19.1304,7.7913
505,-9.3502,-0.7664,2.6441,12.8,-18.7826,8.0
510,-9.4268,-0.5748,2.4908,13.0783,-18.2261,8.2783
515,-9.3118,-0.4215,2.6441,13.0087,-17.8087,8.487
520,-9.3885,-0.4598,2.5675,12.5217,-17.4609,8.6957
525,-9.3885,-0.3449,2.5291,11.6174,-17.3217,8.7652
530,-9.1969,-0.2299,2.4142,10.2957,-17.113,9.0435
535,-9.1586,-0.1916,2.4142,8.487,-17.0435,9.1826
540,-9.1586,-0.0383,2.3375,6.0522,-17.113,9.3217
545,-9.0053,-0.2299,2.1843,3.4087,-17.113,9.5304
550,-8.852,0.0383,2.4908,0.3478,-17.2522,9.8783
555,-8.8137,-0.115,2.1843,-3.2,-17.1826,10.087
560,-8.8903,0.1533,2.3759,-6.887,-17.0435,10.1565
565,-8.6604,-0.0766,2.4142,-10.6435,-16.6957,10.087
570,-8.6604,0.0,2.5675,-14.3304,-16.2783,9.9478
575,-8.6221,0.0,2.5675,-17.6,-15.9304,9.6696
580,-8.6604,-0.0383,2.7591,-20.5217,-15.2348,9.3913
585,-8.7754,-0.0383,3.0273,-22.8174,-14.4696,8.9739
590,-8.737,-0.0766,2.9123,-24.4174,-13.5652,8.6261
595,-8.967,-0.2299,3.1806,-25.2522,-12.5217,7.9304
600,-9.0053,-0.1916,3.3339,-25.4609,-11.3391,7.513
605,-8.967,-0.5365,3.2572,-24.8348,-9.8087,7.0261
610,-9.2735,-0.3832,3.3722,-23.2348,-8.0,6.4696
615,-9.3885,-0.4215,3.3722,-20.5913,-6.0522,5.6348
620,-9.6184,-0.8047,2.9507,-17.113,-3.8261,4.9391
625,-9.6567,-0.6898,3.3339,-13.0087,-1.8087,4.5217
630,-9.7334,-0.8047,3.3722,-8.6957,0.1391,4.0348
635,-9.7717,-0.8047,3.2955,-4.2435,1.8087,3.8957
640,-9.7334,-0.7664,3.1423,0.0696,3.3391,3.4087
645,-9.8483,-0.8047,3.2955,3.8261,4.313,3.2
650,-9.8483,-0.6898,2.9507,7.0957,5.0783,2.9217
655,-9.8483,-0.7664,2.9507,9.6696,5.7043,2.713
660,-9.8483,-0.7664,2.874,11.8261,6.1913,2.3652
665,-9.925,-0.843,2.7974,13.3565,6.3304,2.0174
670,-9.8483,-1.073,2.8357,14.4,6.4,1.6
675,-9.8866,-0.8047,2.4908,15.0957,6.1913,1.0435
680,-9.81,-0.8814,2.3759,15.2348,6.0522,0.5565
685,-9.81,-0.6898,2.4908,14.887,5.913,-0.0696
690,-9.7334,-0.8814,2.2226,14.1913,5.7739,-0.6957
695,-9.8483,-0.6898,2.3375,13.287,5.913,-1.4609
700,-9.6567,-0.6514,1.9543,12.0348,6.1217,-2.1565
705,-9.6567,-0.6514,2.0693,10.7826,6.4696,-3.1304
710,-9.7334,-0.6514,1.916,9.3217,6.9565,-3.687
715,-9.4651,-0.7664,1.916,7.6522,7.4435,-4.0348
720,-9.5801,-0.4215,1.8011,5.8435,7.9304,-4.4522
725,-9.5801,-0.4982,1.9543,3.8261,8.1391,-4.5217
730,-9.4651,-0.4598,2.0693,1.6696,8.2783,-4.6609
735,-9.5034,-0.4598,2.1459,-0.487,8.1391,-4.3826
740,-9.4268,-0.4598,2.2992,-2.5739,7.6522,-4.4522
745,-9.4651,-0.3832,2.5291,-4.4522,7.1652,-4.1739
750,-9.3118,-0.4982,2.5675,-5.7739,6.4,-3.8261
755,-9.3885,-0.4215,2.5291,-6.8174,5.5652,-3.687
760,-9.3502,-0.3449,2.6824,-7.3739,4.7304,-3.4783
765,-9.3885,-0.3449,2.7207,-7.513,4.1043,-3.4783
770,-9.3502,-0.3066,2.7591,-7.3739,3.8261,-3.2696
775,-9.1969,-0.3832,2.874,-7.0957,3.687,-3.1304
780,-9.5801,-0.1533,2.874,-6.887,4.0348,-3.2
785,-9.3118,-0.115,2.5675,-6.5391,4.3826,-3.0609
790,-9.3118,-0.3449,2.5291,-6.4,4.9391,-2.9217
795,-9.3502,-0.2299,2.6441,-6.2609,5.4957,-2.9913
800,-9.3885,-0.2682,2.7591,-6.1913,6.1913,-3.0609
805,-9.3885,-0.3066,2.4908,-6.4,6.887,-3.3391
810,-9.5034,-0.3066,2.7974,-6.6087,7.4435,-3.3391
815,-9.4268,-0.4215,2.5675,-6.7478,8.0,-3.3391
820,-9.3118,-0.4598,2.4908,-6.8174,8.5565,-3.4087
825,-9.2352,-0.6131,2.4142,-6.8174,8.9739,-3.4087
830,-9.4268,-0.4598,2.6058,-6.6087,9.1826,-3.2696
835,-9.4651,-0.7281,2.5291,-6.0522,9.2522,-3.3391
840,-9.4268,-0.7664,2.5291,-5.6348,9.2522,-3.2
845,-9.3885,-0.6898,2.4142,-5.0087,9.113,-3.0609
850,-9.3885,-0.843,2.4525,-4.0348,8.9739,-2.9217
855,-9.4268,-0.9963,2.5675,-2.9913,8.6957,-2.5739
860,-9.4268,-0.958,2.4142,-2.0174,8.4174,-2.4348
865,-9.4651,-1.1113,2.2609,-1.1826,8.2087,-2.2957
870,-9.6184,-1.0346,2.4525,-0.2783,8.1391,-2.1565
875,-9.5801,-0.9963,2.3759,0.4174,7.8609,-2.0174
880,-9.5418,-1.073,2.2992,0.9739,7.5826,-1.6696
885,-9.6567,-1.073,2.4525,1.2522,7.3739,-1.3217
890,-9.5418,-1.1879,2.3375,1.4609,7.0261,-0.9043
895,-9.6567,-1.1879,2.4142,1.3217,6.6087,-0.487
900,-9.695,-1.1879,2.3759,1.2522,5.9826,-0.1391
905,-9.7717,-1.073,2.4525,1.1826,5.287,0.2783
910,-9.6184,-1.1879,2.4525,1.0435,4.313,0.6261
915,-9.6184,-0.9963,2.4142,0.7652,3.4087,0.9043
920,-9.6567,-1.1496,2.2609,0.5565,2.6435,1.1826
925,-9.5418,-1.0346,2.2992,0.2783,1.9478,1.4609
930,-9.6184,-0.958,2.3375,-0.0696,1.3217,1.6696
935,-9.6184,-0.8814,2.5675,-0.4174,0.9043,1.8087
940,-9.695,-0.9197,2.4142,-0.9043,0.5565,1.9478
945,-9.5418,-0.958,2.3759,-1.2522,0.2783,1.8783
950,-9.4651,-0.9197,2.3759,-1.7391,0.0696,1.8087
955,-9.5418,-1.073,2.3375,-1.8783,0.0,1.6
960,-9.5418,-0.8814,2.4142,-2.087,0.0,1.3913
965,-9.4651,-0.958,2.3759,-2.1565,0.0696,1.3217
970,-9.5418,-0.9197,2.2992,-2.1565,0.2783,0.9043
975,-9.4651,-0.8814,2.4525,-2.087,0.6261,0.6261
980,-9.4268,-0.958,2.2609,-1.8087,0.9043,0.2783
985,-9.3118,-0.958,2.1843,-1.3913,1.3913,0.1391
990,-9.4268,-0.9963,2.3375,-0.9043,1.8087,-0.1391
995,-9.3118,-0.843,2.2226,-0.3478,2.2261,-0.2087
1000,-9.4651,-0.7281,2.2992,0.2783,2.4348,-0.3478
1005,-9.4651,-0.7664,2.3375,0.6261,2.7826,-0.4174
1010,-9.5034,-0.6514,2.4142,1.113,2.9913,-0.6261
1015,-9.3502,-0.6898,2.3759,1.2522,2.9913,-0.5565
1020,-9.3885,-0.6898,2.4142,1.1826,2.9913,-0.487
1025,-9.4268,-0.7281,2.2992,0.8348,2.9217,-0.4174
1030,-9.3885,-0.6514,2.4142,0.2087,2.5739,-0.487
1035,-9.4268,-0.6514,2.2226,-0.6957,2.1565,-0.3478
1040,-9.3885,-0.6131,2.3375,-1.6696,1.6,-0.2087
1045,-9.6567,-0.4598,2.4525,-2.5739,0.9739,-0.0696
1050,-9.3118,-0.6898,2.4142,-3.6174,0.2087,-0.0696
1055,-9.4268,-0.6898,2.4142,-4.3826,-0.6261,0.0
1060,-9.5034,-0.8047,2.2992,-4.7304,-1.3217,0.0696
1065,-9.4268,-0.8814,2.4525,-4.8696,-2.2261,0.0696
1070,-9.3885,-0.9197,2.4142,-4.8696,-2.8522,0.1391
1075,-9.5034,-0.8814,2.5291,-4.5913,-3.4087,0.2783
1080,-9.4651,-0.9963,2.4142,-4.0348,-3.9652,0.3478
1085,-9.5418,-0.9963,2.4525,-3.687,-4.2435,0.2783
1090,-9.4651,-0.8814,2.4142,-3.0609,-4.3826,0.487
1095,-9.4651,-0.958,2.3375,-2.6435,-4.4522,0.5565
1100,-9.5034,-0.958,2.1076,-2.3652,-4.2435,0.5565
1105,-9.5801,-0.9197,2.4142,-2.1565,-4.1739,0.487
1110,-9.4268,-0.9197,2.3375,-2.1565,-4.0348,0.4174
1115,-9.4268,-0.8814,2.3375,-2.4348,-3.8957,0.3478
1120,-9.2735,-0.8814,2.4525,-2.6435,-3.7565,0.2783
1125,-9.4651,-0.8047,2.4525,-2.8522,-3.4783,0.2783
1130,-9.3502,-0.8047,2.4142,-3.0609,-3.3391,0.2087
1135,-9.5034,-0.8047,2.4142,-2.9913,-3.0609,0.0696
1140,-9.4268,-0.958,2.4142,-2.8522,-2.8522,-0.0696
1145,-9.3502,-0.9963,2.4142,-2.5739,-2.7826,-0.1391
1150,-9.2352,-1.0346,2.4525,-2.0174,-2.6435,-0.0696
1155,-9.4651,-0.9197,2.4142,-1.1826,-2.5739,-0.1391
1160,-9.5034,-0.8814,2.3759,-0.2087,-2.4348,-0.0696
1165,-9.4268,-0.8814,2.4525,1.113,-2.3652,-0.0696
1170,-9.5801,-0.843,2.4525,2.4348,-2.3652,0.0
1175,-9.5034,-0.843,2.4525,3.7565,-2.2957,0.2087
1180,-9.5418,-0.8814,2.4142,5.1478,-2.2261,0.1391
1185,-9.3885,-0.9197,2.4525,6.4696,-2.2261,0.2087
1190,-9.5418,-0.843,2.4142,7.513,-2.087,0.0696
1195,-9.3885,-0.8814,2.4142,8.487,-2.087,-0.0696
1200,-9.6184,-0.843,2.2992,9.1826,-2.087,-0.2087
1205,-9.5418,-0.9963,2.2226,9.8087,-2.087,-0.487
1210,-9.4268,-0.8814,2.4142,10.2261,-1.8783,-0.5565
1215,-9.5034,-0.8814,2.4142,10.5739,-1.6696,-0.6957
1220,-9.5034,-0.8047,2.4908,10.713,-1.4609,-0.9043
1225,-9.4651,-0.6898,2.6058,10.7826,-1.113,-0.9739
1230,-9.4268,-0.7664,2.4908,10.5739,-0.7652,-1.113
1235,-9.3885,-0.7664,2.5291,10.1565,-0.2087,-1.3217
1240,-9.3885,-0.6898,2.4908,9.8087,0.2783,-1.2522
1245,-9.3885,-0.6898,2.4525,9.0435,0.7652,-1.3217
1250,-9.3885,-0.7664,2.5291,8.2087,1.2522,-1.4609
1255,-9.3502,-0.7281,2.4908,7.0261,1.8087,-1.5304
1260,-9.3502,-0.5748,2.6058,5.913,2.2957,-1.6
1265,-9.3885,-0.6514,2.4908,5.0087,2.713,-1.6
1270,-9.4268,-0.5748,2.4908,3.9652,3.1304,-1.8087
1275,-9.4268,-0.6514,2.4908,3.1304,3.4087,-1.9478
1280,-9.3502,-0.8047,2.5291,2.5043,3.6174,-2.087
1285,-9.3502,-0.8814,2.4142,2.0174,3.8957,-2.087
1290,-9.3885,-0.8047,2.4908,1.7391,3.8261,-1.9478
1295,-9.5418,-0.7281,2.3375,1.7391,3.8261,-2.0174
1300,-9.3118,-0.7664,2.5291,1.8087,3.7565,-2.0174
1305,-9.3118,-0.7664,2.5675,1.9478,3.6174,-1.9478
1310,-9.3885,-0.8814,2.4142,2.0174,3.4783,-1.6
1315,-9.3502,-0.5748,2.3375,2.0174,3.2,-1.5304
1320,-9.3502,-0.8047,2.3375,1.8783,2.8522,-1.6
1325,-9.4268,-0.7281,2.2609,1.6696,2.4348,-1.3913
1330,-9.3502,-0.6898,2.3375,1.5304,2.087,-1.3217
1335,-9.4268,-0.843,2.2992,1.3217,1.8783,-1.1826
1340,-9.5034,-0.6898,2.1459,1.3217,1.5304,-0.8348
1345,-9.5418,-0.6898,2.2226,1.3913,1.2522,-0.487
1350,-9.3502,-0.8814,2.1076,1.5304,0.9739,-0.4174
1355,-9.3885,-0.8814,2.2609,1.8087,0.6261,-0.2783
1360,-9.4651,-0.7664,2.3759,2.2957,0.2087,-0.1391
1365,-9.5034,-0.958,2.1459,2.9217,-0.1391,-0.0696
1370,-9.6184,-0.9197,2.0693,3.6174,-0.4174,0.0696
1375,-9.4651,-0.6898,2.2226,4.5217,-0.7652,0.2087
1380,-9.4268,-0.7664,2.2609,5.2174,-1.1826,0.2783
1385,-9.5801,-0.6898,2.4142,5.913,-1.4609,0.4174
1390,-9.4268,-0.7664,2.3375,6.4,-1.8087,0.5565
1395,-9.5034,-0.6514,2.2609,6.6783,-1.9478,0.6957
1400,-9.2352,-0.7281,2.2609,6.8174,-2.2261,0.7652
1405,-9.3118,-0.8047,2.2226,6.7478,-2.4348,0.6957
1410,-9.5801,-0.6514,2.4142,6.7478,-2.713,0.8348
1415,-9.5801,-0.6898,2.1459,6.6783,-2.9217,0.7652
1420,-9.4651,-0.843,2.2992,6.6087,-3.1304,0.9043
1425,-9.5418,-0.6898,2.4142,6.6783,-3.4087,0.9043
1430,-9.5418,-0.7281,2.2992,6.6783,-3.6174,0.9739
1435,-9.4651,-0.7281,2.4142,6.9565,-3.7565,0.9043
1440,-9.3885,-0.7281,2.4142,7.1652,-3.8957,0.8348
1445,-9.4268,-0.6898,2.2992,7.3739,-3.8957,0.8348
1450,-9.3502,-0.7281,2.4142,7.4435,-3.7565,0.7652
1455,-9.3502,-0.7664,2.3375,7.6522,-3.7565,0.6957
1460,-9.4651,-0.6898,2.4908,7.6522,-3.6174,0.5565
1465,-9.3885,-0.8047,2.4142,7.7217,-3.5478,0.487
1470,-9.3118,-0.7664,2.4142,7.5826,-3.4783,0.2783
1475,-9.4651,-0.6514,2.4908,7.3739,-3.5478,0.2783
1480,-9.3502,-0.6898,2.4908,7.3043,-3.5478,0.2783
1485,-9.5034,-0.7281,2.4142,7.0957,-3.5478,0.0696
1490,-9.3502,-0.6898,2.4525,7.0261,-3.6174,0.0696
1495,-9.3885,-0.5748,2.5291,6.887,-3.8261,0.1391
1500,-9.3885,-0.6514,2.5291,6.8174,-3.8261,0.1391
1505,-9.4268,-0.6898,2.4908,6.887,-4.1043,0.1391
1510,-9.3118,-0.6514,2.5675,6.887,-4.0348,0.2783
1515,-9.3118,-0.7281,2.4142,6.9565,-4.1043,0.2783
1520,-9.3885,-0.5365,2.5675,6.9565,-4.1739,0.2783
1525,-9.5418,-0.4215,2.4525,6.8174,-4.2435,0.3478
1530,-9.4268,-0.6131,2.4525,6.4696,-4.1043,0.4174
1535,-9.2735,-0.6514,2.5291,5.9826,-4.0348,0.3478
1540,-9.4268,-0.6131,2.5291,5.4957,-3.9652,0.4174
1545,-9.2735,-0.7281,2.4908,4.8696,-3.7565,0.2783
1550,-9.3502,-0.5748,2.5675,4.313,-3.687,0.2783
1555,-9.5034,-0.5365,2.6058,3.8957,-3.5478,0.2783
1560,-9.3885,-0.843,2.6441,3.4783,-3.5478,0.3478
1565,-9.3885,-0.6514,2.5291,3.2,-3.4783,0.1391
1570,-9.4268,-0.7281,2.6441,3.2,-3.3391,0.2087
1575,-9.5034,-0.6898,2.5291,3.2696,-3.2696,-0.0696
1580,-9.4651,-0.7664,2.6824,3.6174,-3.2,-0.0696
1585,-9.3885,-0.6514,2.6441,3.8957,-2.9217,-0.2087
1590,-9.4268,-0.7281,2.6824,4.2435,-2.713,-0.1391
1595,-9.3885,-0.7281,2.5291,4.6609,-2.5739,-0.2087
1600,-9.4268,-0.7664,2.6058,4.8,-2.2957,-0.0696
1605,-9.4268,-0.8047,2.4908,5.0087,-2.0174,0.0
1610,-9.4268,-0.8047,2.6058,5.1478,-1.8087,0.0696
1615,-9.5034,-0.5365,2.4908,5.287,-1.3913,0.0696
1620,-9.4651,-0.6514,2.5675,5.287,-1.1826,0.1391
1625,-9.3502,-0.7281,2.4908,5.3565,-0.9739,0.3478
1630,-9.1969,-0.843,2.6441,5.4957,-0.7652,0.3478
1635,-9.3885,-0.6514,2.4908,5.4261,-0.6261,0.2783
1640,-9.3885,-0.6131,2.4908,5.4957,-0.4174,0.2783
1645,-9.3502,-0.6514,2.5291,5.4957,-0.2087,0.2783
1650,-9.3885,-0.6514,2.4908,5.6348,-0.1391,0.2087
1655,-9.3118,-0.6898,2.5675,5.7739,-0.2783,0.2087
1660,-9.3118,-0.7664,2.5291,5.913,-0.4174,0.1391
1665,-9.2352,-0.8814,2.4142,6.1217,-0.5565,0.2087
1670,-9.5034,-0.6131,2.4908,6.4,-0.6261,0.1391
1675,-9.5418,-0.6898,2.6824,6.6087,-0.6957,0.2087
1680,-9.4651,-0.6898,2.6824,6.887,-0.6957,0.1391
1685,-9.4268,-0.4982,2.4525,7.0261,-0.6957,0.2087
1690,-9.4268,-0.4982,2.5675,7.0957,-0.7652,0.2087
1695,-9.3885,-0.5748,2.4525,7.0261,-0.8348,0.3478
1700,-9.4651,-0.6514,2.4525,6.6783,-0.7652,0.3478
1705,-9.3502,-0.6131,2.6058,6.2609,-0.7652,0.4174
1710,-9.5034,-0.5748,2.6441,5.7043,-0.6261,0.3478
1715,-9.4268,-0.6514,2.7207,5.287,-0.6957,0.3478
1720,-9.3502,-0.6131,2.5291,4.8696,-0.6261,0.3478
1725,-9.4651,-0.5748,2.5675,4.4522,-0.8348,0.3478
1730,-9.3885,-0.6514,2.7591,4.313,-0.7652,0.2783
1735,-9.3502,-0.5365,2.7207,4.3826,-0.7652,0.2783
1740,-9.4268,-0.9197,2.5291,4.5913,-0.8348,0.2087
1745,-9.4651,-0.7664,2.6058,4.7304,-0.9043,0.2087
1750,-9.4651,-0.4982,2.6441,5.1478,-0.9043,0.2087
1755,-9.3502,-0.6514,2.5675,5.4957,-0.9739,0.0696
1760,-9.2735,-0.7664,2.6441,5.6348,-0.9739,0.1391
1765,-9.3502,-0.6514,2.6824,5.7739,-1.113,0.1391
1770,-9.2352,-0.6898,2.7591,5.913,-1.1826,0.0696
1775,-9.3885,-0.6131,2.6058,5.8435,-1.3913,0.0696
1780,-9.3502,-0.5748,2.4525,5.6348,-1.4609,0.0
1785,-9.3118,-0.7664,2.5675,5.4261,-1.5304,-0.1391
1790,-9.5418,-0.7281,2.4525,5.1478,-1.8087,-0.1391
1795,-9.3502,-0.6514,2.6058,4.8696,-2.1565,-0.2087
1800,-9.4268,-0.5748,2.6441,4.8,-2.3652,-0.2087
1805,-9.4268,-0.6514,2.6824,4.8,-2.6435,-0.0696
1810,-9.4268,-0.6898,2.6058,4.8,-2.8522,-0.2087
1815,-9.4268,-0.6514,2.6441,4.8,-2.8522,-0.3478
1820,-9.3885,-0.5365,2.6824,5.0087,-2.9217,-0.4174
1825,-9.4651,-0.6514,2.7591,5.3565,-2.8522,-0.2783
1830,-9.4651,-0.6898,2.7207,5.7043,-2.7826,-0.2087
1835,-9.4651,-0.5748,2.7974,6.1217,-2.6435,-0.2087
1840,-9.3118,-0.8047,2.5675,6.6783,-2.6435,-0.1391
1845,-9.4651,-0.6514,2.6441,7.1652,-2.5739,0.0
1850,-9.3885,-0.5748,2.6058,7.5826,-2.5043,0.0696
1855,-9.4268,-0.6514,2.3375,7.8609,-2.3652,0.0696
1860,-9.4268,-0.7281,2.4908,8.0696,-2.3652,0.1391
1865,-9.3885,-0.6898,2.5291,8.0696,-2.2957,0.2783
1870,-9.3885,-0.5365,2.4525,8.0696,-2.2957,0.3478
1875,-9.4268,-0.5365,2.5675,8.0,-2.4348,0.4174
1880,-9.4651,-0.6898,2.5675,7.8609,-2.6435,0.2783
1885,-9.2735,-0.8047,2.6824,7.7217,-2.8522,0.4174
1890,-9.4268,-0.6131,2.9123,7.5826,-3.1304,0.6261
1895,-9.4651,-0.5365,2.6824,7.5826,-3.4087,0.7652
1900,-9.5034,-0.4982,2.7591,7.513,-3.687,0.7652
1905,-9.5034,-0.6131,2.7974,7.3739,-3.9652,0.7652
1910,-9.3502,-0.5748,2.7974,7.3043,-4.2435,0.7652
1915,-9.3502,-0.5748,2.7207,7.2348,-4.4522,0.8348
1920,-9.3885,-0.4982,2.7591,7.3043,-4.7304,0.6261
1925,-9.3885,-0.6898,2.7974,7.3739,-4.8696,0.487
1930,-9.3885,-0.6898,2.6441,7.5826,-5.0087,0.4174
1935,-9.5034,-0.6131,2.6058,7.7913,-5.0087,0.3478
1940,-9.4651,-0.6514,2.9123,8.1391,-4.9391,0.3478
1945,-9.4651,-0.6514,2.6441,8.4174,-4.9391,0.3478
1950,-9.2735,-0.7664,2.7974,8.9043,-4.9391,0.3478
1955,-9.2735,-0.7281,2.7974,9.0435,-4.8,0.4174
1960,-9.3118,-0.6514,2.874,9.2522,-4.8,0.1391
1965,-9.5034,-0.5365,2.6441,9.3217,-4.6609,0.0
1970,-9.3118,-0.4982,2.6058,9.3217,-4.313,0.2087
1975,-9.3502,-0.5365,2.6824,9.113,-4.313,0.3478
1980,-9.4268,-0.4982,2.7207,8.7652,-4.3826,0.5565
1985,-9.3118,-0.4982,2.7591,8.4174,-4.3826,0.6261
1990,-9.5034,-0.4982,2.6441,8.0696,-4.4522,0.487
1995,-9.3118,-0.4598,2.7207,7.7217,-4.5217,0.3478
2000,-9.4268,-0.6131,2.6824,7.5826,-4.7304,0.2087
2005,-9.5034,-0.5748,2.6441,7.4435,-4.8,0.1391
2010,-9.4651,-0.5748,2.6824,7.2348,-4.8696,-0.0696
2015,-9.3118,-0.5748,2.7207,7.3043,-5.0783,-0.3478
2020,-9.5418,-0.5748,2.7207,7.1652,-5.0783,-1.0435
2025,-9.4651,-0.4982,2.8357,6.9565,-4.9391,-0.9739
2030,-9.5034,-0.6131,2.9123,6.887,-4.9391,-0.7652
2035,-9.4651,-0.6514,2.7974,6.9565,-5.4261,-0.7652
2040,-9.5801,-0.5365,2.874,7.3739,-5.7043,-0.7652
2045,-9.5034,-0.4982,2.9507,7.7217,-5.8435,-0.9739
2050,-9.5034,-0.6514,2.8357,8.0696,-5.5652,-0.9043
2055,-9.5418,-0.4982,2.9123,7.8609,-5.0087,-0.8348
2060,-9.5801,-0.3832,2.9123,7.0957,-4.1043,-1.0435
2065,-9.695,-0.6131,2.7591,5.7739,-2.5739,-1.3913
2070,-9.81,-0.6898,2.5291,4.1739,-0.2087,-2.0174
2075,-9.695,-0.7281,2.4908,2.6435,3.2696,-2.9913
2080,-10.0016,-0.6898,2.3375,1.7391,8.2783,-4.2435
2085,-9.81,-0.6898,2.2609,1.7391,14.1217,-5.5652
2090,-10.0016,-0.4982,2.1459,2.6435,20.2435,-6.9565
2095,-10.1932,-0.5365,2.2609,4.1739,26.2957,-8.4174
2100,-10.0016,-0.5748,1.7244,5.6348,31.5826,-9.5304
2105,-10.1932,-0.3066,1.5711,6.6087,36.2435,-10.5739
2110,-9.9633,-0.6131,1.8011,6.7478,40.0,-11.4783
2115,-9.9633,-0.7281,1.9543,6.0522,42.8522,-12.1043
2120,-10.1932,-0.6131,2.2992,4.5913,44.6609,-12.7304
2125,-9.81,-0.7664,2.4142,2.2957,45.5652,-13.2174
2130,-9.7334,-0.6131,2.1076,-0.487,45.7739,-13.913
2135,-9.6567,-0.5365,2.2609,-3.4087,45.4957,-14.4
2140,-9.81,-0.3066,2.2992,-5.8435,44.9391,-14.6087
2145,-9.9633,-0.3832,2.2992,-7.7913,44.1043,-14.6783
2150,-9.695,-0.6131,2.6824,-8.7652,42.7826,-14.5391
2155,-9.7717,-0.6514,2.5291,-9.1826,41.0435,-13.8435
2160,-9.7717,-0.7281,2.9123,-8.9739,39.0261,-13.1478
2165,-10.0016,-0.4215,2.6058,-8.1391,36.5913,-12.2435
2170,-9.81,-0.5748,2.8357,-7.0957,34.0174,-11.2
2175,-9.7334,-0.6898,2.8357,-6.2609,31.5826,-10.3652
2180,-9.6184,-0.4982,2.6058,-5.6348,29.5652,-9.4609
2185,-9.5418,-0.3832,2.4525,-5.7043,27.5478,-8.4174
2190,-9.4268,-0.4215,2.4142,-6.4696,25.3913,-7.7913
2195,-9.5418,-0.3066,2.3375,-8.1391,23.2348,-7.1652
2200,-9.3885,-0.2682,2.1076,-10.5043,20.6609,-6.887
2205,-9.2352,-0.3832,2.2609,-13.0783,17.6696,-6.5391
2210,-9.3118,-0.3832,2.1843,-15.7913,14.1913,-6.4696
2215,-9.3885,-0.5365,2.1459,-18.3652,10.4348,-6.5391
2220,-9.5418,-0.4215,2.3759,-20.2435,6.4,-6.7478
2225,-9.3118,-0.6898,2.3375,-21.1478,2.4348,-7.1652
2230,-9.2352,-0.843,2.3759,-20.9391,-1.4609,-7.6522
2235,-9.3118,-0.843,2.4142,-19.2696,-5.0087,-8.2087
2240,-9.4268,-0.958,2.4142,-16.2783,-8.3478,-8.7652
2245,-9.4268,-1.0346,2.4142,-12.5217,-11.4087,-9.3217
2250,-9.4651,-1.0346,2.3759,-8.2087,-14.1217,-9.6
2255,-9.6567,-1.1113,2.5291,-3.6174,-16.4174,-9.9478
2260,-9.6184,-0.9963,2.3375,0.6957,-18.3652,-9.7391
2265,-9.7334,-0.9197,2.3375,4.4522,-19.8957,-9.4609
2270,-9.7717,-0.9963,2.2609,7.2348,-21.0783,-8.9739
2275,-9.925,-0.7281,2.1843,9.113,-21.9826,-8.3478
2280,-9.81,-0.8814,2.1843,9.9478,-22.6087,-7.6522
2285,-9.8483,-0.8814,2.3375,9.8087,-23.2348,-7.0261
2290,-10.0016,-0.7281,2.5675,8.9739,-23.513,-6.3304
2295,-9.81,-0.8047,2.5291,7.3739,-23.5826,-5.5652
2300,-9.81,-0.843,2.6824,5.2174,-23.2348,-5.0087
2305,-9.8866,-0.958,2.5675,2.8522,-22.4,-4.313
2310,-10.0782,-1.073,2.6058,0.2783,-21.4261,-3.7565
2315,-10.3082,-1.2646,2.4525,-2.0174,-20.4522,-2.9913
2320,-10.2315,-1.3412,2.1459,-4.1043,-19.4783,-2.087
2325,-10.0399,-1.6861,2.4142,-5.8435,-18.713,-1.2522
2330,-10.0399,-1.7627,2.4142,-6.8174,-18.1565,-0.2783
2335,-9.8866,-1.6861,2.2609,-6.9565,-18.0174,0.5565
2340,-9.7334,-1.8011,2.3375,-6.0522,-18.087,1.4609
2345,-9.6184,-1.7627,2.3759,-4.313,-18.3652,1.4609
2350,-9.3502,-1.6861,2.4142,-1.8783,-18.6435,1.1826
2355,-9.1586,-1.5711,2.4908,1.113,-18.7826,0.6261
2360,-9.1586,-1.2263,2.4525,4.7304,-18.713,0.1391
2365,-8.8903,-1.3029,2.5291,8.6261,-18.7826,-0.2087
2370,-8.8137,-0.9963,2.5675,12.313,-18.6435,-0.487
2375,-8.6987,-0.7664,2.6441,15.3043,-18.6435,-0.6261
2380,-8.6987,-0.2682,2.5675,17.3913,-18.3652,-0.9043
2385,-8.6987,-0.0383,2.5675,18.2957,-17.8087,-1.0435
2390,-8.6987,0.0383,2.4908,17.3217,-17.113,-1.113
2395,-8.5454,0.2299,2.4525,14.4,-16.2087,-0.9739
2400,-8.5454,0.4598,2.4525,9.7391,-15.2348,-1.0435
2405,-8.6221,0.3449,2.4525,3.6174,-14.6087,-1.113
2410,-8.6221,0.3449,2.4908,-3.4783,-14.3304,-1.3217
2415,-8.6604,0.1533,2.6441,-10.5043,-14.8174,-1.7391
2420,-8.6221,0.0383,2.6058,-18.1565,-16.0,-1.8783
2425,-8.7754,-0.2682,2.8357,-23.2348,-17.4609,-1.8087
2430,-8.5071,-0.3449,2.7591,-26.713,-18.7826,-1.8087
2435,-8.6987,-0.6898,2.6441,-28.8696,-19.8261,-1.9478
2440,-8.6604,-0.8814,2.6824,-29.8435,-20.1739,-2.1565
2445,-8.6604,-1.073,2.7974,-29.6348,-19.5478,-2.3652
2450,-8.3921,-1.4179,2.6824,-28.5913,-18.2261,-2.7826
2455,-8.5071,-1.3795,2.6441,-26.6435,-16.487,-3.2
2460,-8.4305,-1.6095,2.7974,-24.2087,-13.9826,-3.3391
2465,-8.6221,-1.6095,2.9507,-21.5652,-11.5478,-3.3391
2470,-8.6604,-1.8011,3.1806,-18.8522,-9.2522,-2.9217
2475,-8.6604,-1.7627,3.2189,-16.6261,-7.3043,-2.0174
2480,-8.7754,-1.5328,3.2572,-14.887,-5.5652,-0.9739
2485,-8.7754,-1.5328,3.3722,-13.5652,-3.9652,0.2783
2490,-8.852,-1.5328,3.6787,-12.8696,-2.2957,1.7391
2495,-8.737,-1.5328,3.7554,-12.6609,-0.487,2.9913
2500,-8.6604,-1.3795,3.7937,-12.6609,1.3217,4.0348
2505,-8.6987,-1.3412,3.8704,-13.0783,3.2,4.8696
2510,-8.6987,-1.3412,4.0236,-13.7043,5.0087,5.5652
2515,-8.737,-1.3029,4.0236,-14.3304,6.7478,5.913
2520,-8.4688,-1.3795,3.9853,-14.9565,8.3478,6.0522
2525,-8.6221,-1.3795,3.9087,-15.513,10.0174,6.1217
2530,-8.5454,-1.4562,3.9853,-16.0,11.687,6.1217
2535,-8.5838,-1.3795,4.1769,-16.2783,13.2174,6.2609
2540,-8.4688,-1.4945,3.7937,-16.487,14.6087,6.3304
2545,-8.5454,-1.3795,3.947,-16.6261,15.8609,6.4696
2550,-8.4305,-1.3029,3.832,-16.6957,16.8348,6.8174
2555,-8.5454,-1.1496,3.8704,-16.8348,17.6696,7.3043
2560,-8.5454,-1.1496,3.7937,-17.3217,18.5043,7.7217
2565,-8.5838,-1.1879,3.5638,-17.6696,19.0609,8.0696
2570,-8.9286,-1.1496,3.5255,-18.2957,19.687,8.3478
2575,-8.6604,-1.2263,3.6404,-18.9217,19.8957,8.9739
2580,-8.737,-1.1879,3.6404,-19.8261,19.687,9.5304
2585,-8.852,-1.1879,3.6021,-20.6609,19.3391,9.8783
2590,-9.0053,-1.3029,3.6021,-21.5652,18.6435,9.9478
2595,-8.967,-1.2646,3.5638,-21.8435,17.3913,9.9478
2600,-9.3502,-1.3795,3.5638,-21.4957,16.0696,9.6696
2605,-9.5034,-1.4179,3.6021,-20.1739,15.1652,9.5304
2610,-9.7717,-1.6861,3.5638,-17.7391,14.4696,9.1826
2615,-9.925,-1.7244,3.6021,-14.0522,13.7739,8.8348
2620,-10.3082,-1.8777,3.6021,-9.0435,13.2174,8.7652
2625,-10.2698,-1.8011,3.4871,-3.5478,12.5913,8.4174
2630,-10.4614,-1.8777,3.4871,2.087,11.687,8.6957
2635,-10.4614,-1.5711,3.5255,7.4435,10.5739,8.1391
2640,-10.4614,-1.4945,3.6404,11.9652,8.8348,8.2783
2645,-10.6914,-1.3412,3.832,15.0261,6.8174,7.5826
2650,-10.9979,-1.1879,3.4105,16.7652,4.1043,7.0261
2655,-11.1129,-0.9963,3.9087,17.3913,1.6696,6.2609
2660,-11.3811,-0.9197,3.6787,17.5304,-0.2783,5.287
2665,-11.3811,-1.1496,3.5638,17.5304,-0.1391,5.6348
2670,-11.5727,-1.3795,3.2189,18.9913,2.4348,4.7304
2675,-11.4961,-1.6861,2.6058,22.6783,8.1391,4.5913
2680,-11.6494,-1.9927,2.2992,29.0783,16.2783,5.2174
2685,-11.9176,-2.3375,1.8011,38.6087,25.3913,6.4696
2690,-12.3008,-2.3375,1.5711,50.713,33.7391,9.113
2695,-12.4924,-1.9543,0.8814,64.1391,40.3478,12.8696
2700,-12.5307,-1.9543,0.1916,76.1739,45.4957,16.5565
2705,-12.4541,-1.916,-0.5365,84.7304,49.1826,19.0609
2710,-12.3008,-2.0693,-1.1113,88.1391,51.0609,19.2696
2715,-12.4924,-2.1459,-1.4945,84.8696,50.713,17.0435
2720,-12.5307,-2.3759,-1.4179,73.8087,47.8609,12.7304
2725,-12.5307,-2.4525,-1.1879,55.7217,41.8783,7.9304
2730,-12.3391,-2.6058,-0.3832,33.6696,32.6261,3.7565
2735,-12.1859,-2.9507,0.9197,11.4783,19.8957,1.113
2740,-12.1859,-3.5255,2.1076,-7.7217,4.1739,0.3478
2745,-11.9176,-3.7554,2.6824,-22.4,-13.913,1.1826
2750,-11.8027,-4.1769,3.7554,-31.3043,-33.0435,2.9913
2755,-11.5727,-4.2536,4.6751,-33.6,-52.2435,4.7304
2760,-11.1129,-4.9816,4.6368,-29.4957,-70.5391,5.7739
2765,-10.768,-5.2882,4.7517,-19.8957,-86.8174,5.7043
2770,-10.4614,-5.4415,4.7517,-5.913,-99.8957,5.2174
2775,-9.9633,-5.4415,4.5218,11.2,-109.2174,4.4522
2780,-9.695,-5.0966,4.3685,29.7043,-115.0609,2.9913
2785,-9.3118,-4.8284,4.2152,48.0696,-118.1217,1.0435
2790,-9.3885,-4.1769,4.062,64.9043,-119.0957,-1.2522
2795,-9.4651,-3.6787,3.7937,78.7478,-119.5826,-2.5043
2800,-9.3502,-3.1039,3.7554,89.113,-120.8348,-3.1304
2805,-9.1969,-2.5291,3.1806,95.3043,-122.713,-3.5478
2810,-8.9286,-2.1076,2.9507,97.9478,-124.9391,-4.1739
2815,-8.8137,-1.6095,2.8357,97.5304,-126.1913,-5.0783
2820,-8.5071,-1.4179,2.9123,94.7478,-127.0261,-6.1913
2825,-8.3155,-1.073,2.7974,91.0609,-127.5826,-7.6522
2830,-8.0089,-0.9197,3.0656,86.4696,-128.5565,-9.6
2835,-7.6641,-0.8047,3.2572,83.4087,-129.6696,-11.5478
2840,-7.3192,-0.6898,3.6021,81.6696,-131.2,-13.8435
2845,-7.1659,-0.3832,3.947,81.113,-132.5913,-16.3478
2850,-7.2042,-0.3066,4.062,81.8783,-133.8435,-18.8522
2855,-6.936,-0.0766,4.1386,83.8957,-134.7478,-20.8
2860,-6.8977,0.1533,4.2152,86.3304,-135.0957,-22.6087
2865,-6.936,0.2682,3.947,89.3217,-134.6783,-24.4174
2870,-6.821,0.8814,4.0236,92.4522,-133.7739,-26.087
2875,-6.5145,1.3795,3.9853,94.9565,-132.0348,-27.687
2880,-6.4378,1.8394,3.6787,96.487,-129.6,-29.2174
2885,-6.3229,2.1459,3.7554,96.6261,-126.3304,-30.5391
2890,-6.2845,2.4525,3.947,95.3739,-122.0174,-31.513
2895,-6.2462,2.8357,3.6404,92.313,-117.0783,-32.4174
2900,-6.3612,3.1423,3.9853,87.7913,-111.0261,-33.2522
2905,-6.0929,3.2955,3.9853,82.6435,-104.0,-34.087
2910,-6.2079,3.4105,4.0236,77.913,-96.1391,-34.8522
2915,-6.2079,3.4105,4.3302,73.1826,-88.0,-35.687
2920,-6.1313,3.4871,4.1386,68.7304,-80.0,-36.7304
2925,-6.2079,3.4871,4.1003,64.9043,-72.2087,-37.4261
2930,-6.1313,3.4488,4.2152,62.0522,-65.0435,-37.9826
2935,-6.0163,3.5255,4.4452,60.0348,-58.713,-38.4696
2940,-6.1313,3.5255,4.3302,58.713,-53.2174,-38.6087
2945,-6.0163,3.5638,4.3302,57.8087,-48.6957,-38.1913
2950,-6.0546,3.6021,4.2152,56.9739,-44.9391,-37.4261
2955,-6.0929,3.7171,4.1769,55.6522,-41.6696,-36.5217
2960,-6.1696,3.6404,4.1386,53.6348,-38.887,-35.3391
2965,-5.978,3.6021,3.8704,50.3652,-36.4522,-33.6
2970,-6.2079,3.4871,3.7937,46.1913,-34.087,-31.8609
2975,-6.2462,3.2955,3.6787,41.3913,-31.3043,-29.4261
2980,-6.2079,3.1039,3.832,37.3565,-28.5217,-26.9217
2985,-6.3229,2.7591,3.6021,34.087,-26.1565,-25.3913
2990,-6.3229,2.6058,3.3722,30.1913,-23.3043,-22.7478
2995,-6.2079,2.2992,3.3722,26.6435,-18.8522,-20.3826
