timestamp,accX,accY,accZ,gyroX,gyroY,gyroZ
0,4.6368,-8.0089,1.7627,-4.5913,2.8522,-52.1043
5,4.79,-8.2005,1.6478,-5.1478,2.8522,-51.8957
10,4.6751,-8.5071,1.6861,-5.2174,3.4087,-52.0348
15,4.3685,-8.5454,1.6095,-4.8696,4.1739,-51.8957
20,4.6368,-8.737,1.7244,-4.2435,5.0087,-50.9913
25,4.7517,-8.6987,1.7244,-2.7826,5.7739,-50.3652
30,4.7517,-8.6987,1.8777,-0.5565,6.0522,-51.0609
35,4.9816,-8.6987,2.1076,1.8783,6.4696,-51.8261
40,4.8284,-8.4688,1.9927,4.5913,6.8174,-52.0348
45,5.0966,-8.4688,1.9927,7.0957,6.8174,-51.7565
50,5.2116,-8.3155,2.0693,9.3913,6.6087,-52.1739
55,5.1349,-8.1622,1.916,10.8522,6.6783,-52.9391
60,5.2116,-8.0473,2.031,11.5478,6.7478,-53.3565
65,5.3265,-8.0089,2.031,11.2696,6.4,-53.4261
70,5.1349,-7.9323,1.8777,10.2261,6.4696,-53.7739
75,5.1349,-7.894,1.8011,8.5565,6.6783,-53.7043
80,5.3265,-7.9706,1.5328,6.887,7.1652,-53.4957
85,5.5181,-8.1239,1.4179,5.8435,7.7217,-53.913
90,5.4032,-8.1239,1.2263,5.287,8.2087,-54.4
95,5.3648,-8.1622,1.2646,5.4261,8.487,-54.8174
100,5.4798,-8.0856,1.2263,6.1217,8.2783,-54.8174
105,5.6714,-7.9323,1.4179,7.3043,7.9304,-54.2609
110,5.6714,-7.8173,1.5328,8.8348,7.3043,-53.6348
115,5.748,-7.6257,1.5711,10.5043,6.7478,-53.7739
120,5.5948,-7.4725,1.6478,11.8261,6.1217,-53.6348
125,5.6331,-7.2042,1.6478,12.3826,5.2174,-53.4261
130,5.5564,-7.0893,1.8777,12.313,4.313,-53.7739
135,5.5181,-6.9743,1.6478,11.4087,3.7565,-53.9826
140,5.4032,-6.936,1.8777,9.6,3.4087,-54.2609
145,5.6714,-7.0509,1.8394,7.5826,3.1304,-54.4
150,5.5948,-6.936,1.8777,5.4957,3.2,-54.2609
155,5.6714,-6.8977,1.6861,3.4783,3.3391,-54.0522
160,5.7864,-6.9743,1.8777,1.7391,3.687,-54.2609
165,5.8247,-6.8977,2.031,0.9739,3.6174,-54.1913
170,5.978,-6.8977,1.9927,0.5565,2.9913,-53.8435
175,6.0163,-6.7061,2.031,0.3478,2.2957,-53.5652
180,6.1313,-6.5911,2.1459,0.1391,1.3913,-53.1478
185,6.3229,-6.5911,2.2609,-0.2783,0.2087,-52.7304
190,6.2462,-6.5528,2.2992,-1.3913,-1.2522,-52.4522
195,6.0163,-6.5145,1.8011,-3.2,-2.713,-52.1739
200,6.3612,-6.4378,2.1843,-5.4957,-4.0348,-51.8957
205,6.3995,-6.3229,2.031,-8.2783,-5.0087,-51.687
210,6.3229,-6.5145,2.0693,-10.7826,-5.7043,-51.7565
215,6.3995,-6.6294,2.031,-12.6609,-6.0522,-52.1043
220,6.4761,-6.821,1.8394,-13.1478,-5.9826,-52.1739
225,6.4378,-6.8977,1.8394,-12.5913,-5.5652,-52.313
230,6.7061,-7.0126,1.9927,-10.7826,-5.1478,-52.4522
235,6.8593,-7.0509,1.9927,-7.8609,-4.7304,-52.9391
240,6.936,-7.0509,1.8777,-4.1043,-4.5913,-53.4261
245,6.936,-7.1276,1.8394,-0.3478,-4.5217,-53.7043
250,6.7061,-7.0509,2.1076,2.713,-4.7304,-53.5652
255,7.0509,-6.821,1.6861,5.0087,-5.2174,-53.7043
260,7.1659,-6.7827,1.7244,6.1217,-5.3565,-53.7043
265,7.0893,-6.7444,1.8394,5.7739,-5.1478,-53.4261
270,7.1659,-6.7061,2.1076,4.313,-4.6609,-52.9391
275,7.0509,-6.936,2.0693,2.0174,-4.2435,-52.5913
280,6.7444,-6.936,2.2226,-0.6957,-3.8957,-52.1043
285,6.6677,-7.0126,2.2226,-3.2,-3.2,-52.0348
290,6.7827,-7.3575,2.3759,-4.5913,-2.087,-52.6609
295,6.7061,-7.4341,2.3759,-4.313,-0.1391,-53.7739
300,6.7827,-7.5108,2.4142,-2.1565,2.1565,-55.0261
305,6.7061,-7.9323,2.4142,2.2261,4.9391,-56.9043
310,7.0126,-7.5491,2.6824,8.2087,8.0696,-58.9217
315,7.0509,-7.5874,2.7207,15.0261,11.0609,-61.0087
320,7.1276,-7.3192,2.8357,21.7739,13.2174,-62.7478
325,7.1659,-6.8977,2.6824,27.2696,14.0522,-64.487
330,7.2809,-6.7827,2.3375,31.1652,14.0522,-66.1565
335,7.2809,-6.4378,2.2992,32.6957,13.4261,-67.6174
340,7.2042,-6.2462,2.031,31.9304,12.3826,-69.1478
345,7.0126,-6.1696,1.8777,28.9391,11.2696,-70.8174
350,7.0893,-6.3229,1.8777,24.3478,10.3652,-71.7913
355,6.821,-6.3612,1.6861,19.0609,10.1565,-72.2087
360,6.7827,-6.2845,1.4562,14.1217,10.0174,-72.6957
365,6.3229,-6.4761,1.6861,10.2957,9.4609,-73.1826
370,6.4378,-6.6677,1.7627,7.8609,8.8348,-73.6696
375,6.2079,-6.5145,1.8777,6.9565,7.7217,-73.9478
380,6.3612,-6.7444,1.9543,7.6522,6.7478,-74.087
385,6.4378,-6.6294,2.0693,9.5304,6.1217,-74.0174
390,6.6677,-6.5528,2.1076,12.8,5.4261,-73.8783
395,6.7827,-6.3995,2.4525,16.8348,4.8696,-73.8087
400,6.7061,-6.0929,2.3759,21.3565,4.313,-73.6
405,6.8977,-6.0163,2.3375,25.8087,3.687,-73.0435
410,7.0126,-5.7097,2.2226,29.8435,2.9913,-72.3478
415,7.0509,-5.1732,1.9543,33.2522,2.2261,-71.513
420,7.2809,-4.9816,2.1459,35.1304,2.087,-70.6087
425,7.5108,-4.7517,2.1843,35.687,2.2957,-69.913
430,7.5874,-4.7134,2.031,34.5739,2.8522,-69.1478
435,7.7407,-4.5601,1.9927,32.0696,3.687,-69.0783
440,7.6257,-4.4835,2.031,28.6609,4.5913,-69.6348
445,7.8557,-4.6751,1.8777,24.7652,5.2174,-70.3304
450,7.894,-4.6368,1.8777,20.5913,5.8435,-70.887
455,8.1239,-4.8667,1.916,16.6261,6.3304,-71.7217
460,8.0473,-4.7134,1.7244,13.4261,7.0261,-73.0435
465,8.2389,-5.02,1.6095,11.2,8.0696,-74.7826
470,8.1239,-5.0583,1.7627,9.3217,9.1826,-76.5217
475,7.9706,-5.2882,1.8011,7.8609,10.3652,-78.4696
480,8.0856,-5.1732,1.9927,6.9565,11.4087,-80.2783
485,8.0856,-5.2499,2.1076,7.0261,12.1739,-82.4348
490,8.1622,-5.3265,2.3375,7.7913,12.313,-84.2435
495,8.1622,-5.1349,2.4142,8.8348,11.8957,-85.6348
500,8.1622,-5.0583,2.5675,10.087,11.0609,-86.887
505,8.0089,-4.905,2.7207,11.4087,9.4609,-87.5826
510,8.0473,-4.5984,2.6824,12.8,7.1652,-88.1391
515,7.9323,-4.4452,2.4908,14.0522,4.6609,-88.0696
520,7.9706,-4.2536,2.4908,14.6087,2.4348,-87.8609
525,7.9706,-4.1769,2.5291,14.6087,0.6261,-87.3739
530,7.894,-3.8704,2.5675,13.913,-0.9043,-86.6087
535,7.8557,-3.7171,2.7591,12.8696,-2.087,-85.7043
540,7.779,-3.5255,2.5675,11.4087,-2.8522,-84.2435
545,7.9706,-3.4488,2.6441,9.6696,-2.8522,-83.0609
550,8.0473,-3.4488,2.6058,7.8609,-1.7391,-82.0174
555,8.0089,-3.2955,2.7207,5.8435,0.4174,-80.6957
560,8.3538,-3.4105,2.6441,4.3826,3.4087,-80.0696
565,8.3538,-3.2955,2.6058,4.2435,6.9565,-80.0696
570,8.5454,-3.2572,2.3375,4.4522,11.8261,-80.2087
575,8.6604,-3.1806,2.4908,4.8696,15.9304,-80.6957
580,8.6987,-3.0656,2.6058,5.5652,20.5217,-81.7391
585,9.1586,-2.9123,2.7207,7.9304,24.6957,-82.9217
590,9.5034,-3.1806,2.3759,13.0783,27.7565,-84.1043
595,9.5418,-3.0656,2.2226,18.5043,29.2174,-85.4957
600,9.81,-3.2572,1.6478,24.6261,29.6348,-87.3739
605,9.9633,-2.989,1.2646,29.0087,29.8435,-89.3913
610,10.1932,-2.874,1.2263,31.513,29.8435,-90.8522
615,10.5381,-2.6058,1.0346,32.0696,29.0087,-91.2696
620,10.6914,-2.5675,1.2646,30.6783,27.5478,-90.6435
625,10.8446,-2.1076,1.2263,27.5478,25.8783,-89.6696
630,11.1129,-2.1843,1.4945,23.1652,24.2783,-88.2087
635,11.1512,-1.8777,1.5711,18.2261,22.7478,-86.8174
640,11.2279,-1.5328,1.916,13.4957,21.4261,-85.3565
645,11.4578,-1.4179,2.3375,9.3913,20.8,-83.687
650,11.2662,-1.2646,2.4908,5.3565,20.3826,-81.5304
655,11.0746,-1.3412,2.4525,1.8783,20.2435,-78.4
660,10.5764,-1.1113,2.5291,-0.4174,20.3826,-74.9913
665,10.3082,-1.3795,2.3375,-1.6,20.4522,-71.2348
670,10.2315,-1.6095,2.3375,-2.0174,20.5217,-67.2696
675,10.1549,-1.6478,2.3375,-2.0174,21.0783,-63.3043
680,10.0399,-1.7627,2.8357,-0.9739,21.7043,-60.313
685,9.81,-1.6095,2.4908,0.5565,22.887,-57.7391
690,9.6567,-1.4562,2.7591,2.2957,23.7217,-55.3043
695,9.5418,-1.4179,2.9123,4.3826,23.7217,-53.1478
700,9.695,-1.4179,2.989,6.6783,23.1652,-50.8522
705,9.5034,-1.1879,3.0273,9.113,22.2609,-48.2087
710,9.4651,-1.1496,2.989,11.4783,21.0087,-45.5652
715,9.1969,-0.843,3.1806,13.0783,19.5478,-42.5043
720,9.0819,-0.7664,3.4105,14.4696,17.3913,-39.0957
725,9.2352,-0.5365,3.4488,15.6522,14.5391,-35.6174
730,8.8903,-0.3066,3.4105,16.2783,11.4087,-32.2087
735,8.6987,0.0,3.2572,15.8609,7.8609,-28.4522
740,8.5838,0.0,3.2572,14.7478,4.2435,-24.9739
745,8.4305,0.0,3.0273,12.8696,1.2522,-21.3565
750,8.5454,0.0,2.8357,10.1565,-0.7652,-17.8783
755,8.4688,0.0,2.9123,7.4435,-1.1826,-15.0957
760,8.8137,0.0,3.1423,4.9391,0.0,-13.0087
765,8.8903,0.0,3.0273,3.2,2.8522,-11.4783
770,8.852,-0.0383,3.2189,1.8783,6.6087,-10.6435
775,9.0819,-0.2299,3.4488,1.3913,10.4348,-9.7391
780,9.1586,-0.2299,3.7937,1.7391,14.2609,-9.5304
785,9.2735,0.0383,3.7554,2.8522,17.4609,-9.6
790,9.4651,0.0383,4.0236,5.1478,20.1739,-10.1565
795,9.3885,0.1533,4.062,7.7913,21.8435,-11.0609
800,9.7334,0.1916,4.2152,9.8783,22.2609,-11.4783
805,9.7334,0.4215,3.947,11.3391,21.4261,-11.8957
810,9.8866,0.4598,3.832,11.687,19.2696,-12.2435
815,10.1166,0.4982,3.4488,10.5043,16.1391,-12.4522
820,10.0782,0.6131,3.4105,7.8609,12.5913,-12.2435
825,10.1166,0.6131,3.3339,4.5217,8.6957,-11.8957
830,10.3082,0.3832,2.874,0.3478,5.0087,-11.4087
835,10.2698,0.4598,2.9123,-3.9652,1.8087,-10.5043
840,10.3848,0.1916,2.6441,-7.3739,-0.2087,-9.7391
845,10.4231,0.0766,2.8357,-10.087,-1.3217,-8.8348
850,10.2315,0.0383,2.874,-11.3391,-2.1565,-7.6522
855,10.1166,0.0383,2.9507,-11.4087,-2.713,-6.1217
860,10.0782,-0.0383,3.0273,-10.8522,-3.2,-4.3826
865,9.81,-0.1533,3.1039,-9.9478,-3.687,-3.0609
870,9.7334,-0.2299,3.1423,-8.8348,-3.9652,-1.2522
875,9.7334,-0.3066,3.2189,-7.3043,-4.1739,0.2783
880,9.695,-0.4215,3.0656,-6.0522,-4.6609,1.113
885,9.695,-0.3066,3.1423,-5.5652,-4.5217,2.2261
890,9.4651,-0.4598,3.0656,-5.5652,-3.7565,3.4783
895,9.3502,-0.5365,3.3339,-5.3565,-2.8522,4.7304
900,9.0053,-0.3832,3.1423,-4.6609,-2.2261,6.2609
905,9.1586,-0.5748,3.2572,-3.687,-1.7391,7.7217
910,9.1969,-0.6514,3.1423,-2.7826,-1.113,9.8087
915,9.2352,-0.843,3.1039,-1.5304,-0.5565,11.2696
920,8.8903,-0.843,3.1423,0.0696,-0.2783,12.313
925,8.5454,-0.9197,3.1423,2.087,-0.3478,13.287
930,8.8137,-1.1113,2.989,3.4087,-1.0435,14.1913
935,8.5071,-0.9197,2.9123,3.5478,-2.087,14.1913
940,8.8903,-0.958,3.1423,4.313,-2.7826,14.5391
945,8.8137,-1.073,2.9507,4.5913,-2.8522,15.3739
950,8.8903,-1.0346,2.9507,4.1739,-2.2957,16.2783
955,8.9286,-1.2263,2.989,3.8957,-1.7391,17.113
960,9.1586,-1.3795,2.8357,4.0348,-0.9739,17.4609
965,9.1969,-1.4562,2.9123,4.2435,-0.2087,17.5304
970,9.0436,-1.4562,3.1039,4.6609,0.6957,17.6696
975,8.967,-1.3029,2.9123,5.5652,2.0174,17.6
980,8.967,-1.3029,3.0656,6.3304,3.4087,17.8783
985,9.2735,-1.3029,3.0273,7.0957,4.1043,17.7391
990,9.2735,-1.4179,3.2955,7.3043,4.3826,17.4609
995,9.4651,-1.3795,3.2572,7.2348,4.8,17.3913
1000,9.3885,-1.4562,3.1806,7.2348,5.0783,17.7391
1005,9.6184,-1.5711,2.9123,7.1652,5.287,18.1565
1010,9.7334,-1.8011,3.1423,7.3043,5.287,18.8522
1015,9.5801,-1.6478,3.1039,7.1652,5.4957,19.3391
1020,9.5801,-1.8777,3.0273,6.7478,5.913,19.9652
1025,9.2735,-2.0693,2.874,6.1913,6.7478,20.4522
1030,9.1586,-2.3375,2.9507,5.8435,7.9304,21.3565
1035,8.7754,-2.4525,3.1039,5.7739,8.8348,22.2609
1040,9.0053,-2.7591,3.1806,6.1217,9.5304,23.0261
1045,9.1202,-2.7974,3.1806,6.887,9.8783,23.3043
1050,9.1586,-3.1039,3.4488,8.0,10.5043,23.4435
1055,9.1202,-3.1806,3.3722,9.6696,11.2,23.3043
1060,8.7754,-3.2189,3.5255,12.0348,11.7565,22.9565
1065,8.967,-3.1423,3.4105,15.0261,11.6174,22.3304
1070,9.0819,-3.2189,3.2572,17.9478,10.9913,21.3565
1075,9.4268,-2.989,3.2572,20.0348,10.087,20.1739
1080,9.1586,-2.874,3.1039,21.1478,9.7391,18.8522
1085,8.6604,-2.7591,3.1806,21.2174,9.6,17.9478
1090,8.6221,-2.6441,3.2189,20.8696,9.1826,17.3217
1095,8.852,-2.5675,3.1423,19.7565,8.2087,16.7652
1100,9.3118,-2.5291,3.1423,17.9478,7.3043,15.8609
1105,9.0819,-2.4525,3.3339,15.6522,6.9565,14.9565
1110,8.8137,-2.4908,3.3722,13.5652,7.2348,14.4
1115,8.5838,-2.5675,3.5638,11.7565,7.3739,14.3304
1120,8.6221,-2.4908,3.6021,10.5739,6.6087,14.2609
1125,8.7754,-2.5675,3.4871,9.7391,5.5652,13.7739
1130,8.8137,-2.4525,3.3722,9.0435,4.5913,13.4261
1135,8.8137,-2.5291,3.3339,8.487,4.1739,13.287
1140,9.0053,-2.5675,3.4488,8.0,4.0348,13.4261
1145,8.737,-2.4525,3.3722,8.0696,4.1739,13.7043
1150,8.8903,-2.6058,3.4105,8.2783,4.3826,14.0522
1155,8.9286,-2.5675,3.3722,8.9739,4.8,14.0522
1160,8.852,-2.6824,3.2955,10.0174,5.1478,14.0522
1165,8.967,-2.7591,3.5255,11.3391,5.4261,13.7043
1170,8.737,-2.7207,3.3722,12.5217,5.6348,13.2174
1175,8.8137,-2.6441,3.2955,13.3565,5.7739,12.6609
1180,8.7754,-2.7207,3.2572,13.6348,5.4957,11.9652
1185,8.737,-2.7207,3.4105,13.0783,4.9391,11.2
1190,8.737,-2.7207,3.3722,11.9652,4.3826,10.5043
1195,8.6604,-2.7974,3.3722,10.5043,3.4087,10.0174
1200,8.5838,-2.874,3.5255,9.3913,2.2261,9.8087
1205,8.6221,-2.874,3.2189,8.6261,0.9043,9.8087
1210,8.6604,-2.989,3.5255,8.5565,-0.3478,10.2957
1215,8.5838,-2.7974,3.3722,9.5304,-1.5304,10.6435
1220,8.8137,-2.9123,3.4105,10.9913,-2.5043,11.1304
1225,8.6604,-2.9123,3.2189,13.0783,-3.4087,11.6174
1230,8.852,-2.6824,3.4488,15.6522,-3.9652,11.8957
1235,8.967,-2.7974,3.2955,18.2957,-4.3826,12.0348
1240,8.737,-2.6441,3.3339,20.5913,-4.5913,11.9652
1245,8.852,-2.6441,3.2572,22.4,-4.5913,11.9652
1250,8.852,-2.4525,3.2955,23.3739,-4.5913,11.9652
1255,8.7754,-2.5291,3.3339,23.3043,-4.4522,11.687
1260,8.6604,-2.4908,3.5255,22.0522,-4.6609,11.687
1265,8.6221,-2.4525,3.4488,19.8261,-4.6609,11.4783
1270,8.6987,-2.4908,3.4105,16.9739,-4.8,11.4087
1275,8.5071,-2.4525,3.4105,13.4957,-4.9391,11.2696
1280,8.5071,-2.7974,3.4871,9.9478,-4.8696,10.7826
1285,8.5838,-2.7207,3.5255,6.9565,-4.5913,10.087
1290,8.737,-2.7974,3.5638,4.8,-4.1739,9.3217
1295,8.6987,-2.8357,3.6404,3.8957,-3.4087,8.8348
1300,8.6987,-2.9507,3.5638,4.4522,-2.5739,8.3478
1305,8.6987,-2.874,3.7171,5.9826,-1.8087,8.0
1310,8.8137,-2.7207,3.6021,8.1391,-1.1826,7.5826
1315,8.967,-2.5675,3.6021,10.7826,-0.6261,7.2348
1320,8.8903,-2.5675,3.7554,13.5652,-0.487,6.6087
1325,9.0819,-2.5291,3.7554,16.0,-0.6957,5.7043
1330,9.0819,-2.1843,3.6404,17.8783,-1.3217,5.0087
1335,8.967,-2.1843,3.5255,18.8522,-2.3652,4.4522
1340,9.1969,-1.9927,3.3722,19.0609,-3.4783,3.6174
1345,9.0819,-1.9927,3.5638,18.4348,-4.8,2.8522
1350,9.1586,-1.8777,3.5638,16.9739,-5.8435,2.1565
1355,9.1586,-1.8394,3.3339,15.0957,-6.6783,1.3217
1360,9.2735,-1.9927,3.4871,12.8696,-7.1652,0.8348
1365,9.1586,-1.8777,3.3722,10.3652,-7.513,0.4174
1370,9.1586,-1.8777,3.7171,7.8609,-7.6522,0.1391
1375,9.0819,-1.916,3.2955,5.3565,-7.513,0.1391
1380,8.8137,-2.1843,3.3722,3.1304,-7.3043,0.2783
1385,8.9286,-2.1459,3.4871,1.113,-7.3043,0.6261
1390,8.6987,-2.3759,3.3339,-0.4174,-7.513,1.1826
1395,8.8137,-2.3375,3.3339,-1.113,-8.0696,1.8087
1400,8.6221,-2.3375,3.3339,-1.3217,-8.6957,2.3652
1405,8.8137,-2.3759,3.4105,-1.0435,-9.113,2.8522
1410,8.7754,-2.6441,3.4488,-0.3478,-9.3913,3.3391
1415,8.8137,-2.6824,3.3339,0.7652,-9.3217,3.7565
1420,8.737,-2.6058,3.4105,1.9478,-9.113,4.1043
1425,8.737,-2.6058,3.3722,3.0609,-8.8348,4.313
1430,8.737,-2.6824,3.2189,4.2435,-8.3478,4.313
1435,8.852,-2.7974,3.2572,5.4261,-8.0,4.313
1440,9.0053,-2.7591,3.4105,6.4696,-7.7217,4.1739
1445,8.967,-2.9123,3.2572,7.5826,-7.513,4.0348
1450,8.967,-2.7974,3.2572,8.487,-7.3739,3.7565
1455,9.1202,-2.9123,3.0273,9.3913,-7.0957,3.687
1460,9.3502,-2.9507,3.0656,10.2957,-6.6783,3.4783
1465,9.4651,-2.8357,2.9123,11.4783,-6.2609,3.1304
1470,9.6184,-2.7207,2.8357,12.7304,-5.7739,2.5739
1475,9.3885,-2.7207,2.874,13.5652,-5.2174,2.2261
1480,9.3502,-2.7207,2.9123,14.1217,-4.5913,2.1565
1485,9.5034,-2.4908,2.989,14.5391,-4.313,2.2957
1490,9.6184,-2.4908,2.8357,14.8174,-4.0348,2.0174
1495,9.3885,-2.2992,2.7974,14.6783,-4.0348,1.7391
1500,9.3885,-2.2226,2.6824,14.3304,-4.313,1.5304
1505,9.4651,-2.1459,2.6058,13.3565,-4.3826,1.5304
1510,9.3118,-2.2226,2.7207,12.1043,-4.4522,1.5304
1515,9.4651,-2.2226,2.5291,10.5043,-4.6609,1.3913
1520,9.0819,-2.2226,2.4908,8.6957,-4.5913,1.3913
1525,9.1969,-2.2226,2.6824,6.9565,-3.9652,2.087
1530,9.1969,-2.4525,2.7591,5.9826,-3.2696,2.5043
1535,9.1202,-2.5291,2.6824,5.8435,-3.4087,2.5739
1540,9.0436,-2.4142,2.7591,5.8435,-3.5478,2.4348
1545,9.1586,-2.4908,2.6441,6.1217,-3.3391,2.2957
1550,9.1202,-2.4525,2.6441,6.3304,-2.9913,2.1565
1555,9.0819,-2.4142,2.7591,6.5391,-2.6435,2.087
1560,9.1202,-2.3375,2.9507,6.4696,-2.2261,1.9478
1565,9.1586,-2.5291,2.9123,6.4,-2.1565,1.9478
1570,9.0819,-2.4525,3.0656,6.6783,-2.087,2.0174
1575,9.0436,-2.5291,3.1039,7.0957,-2.0174,2.087
1580,9.0053,-2.4908,3.0656,7.5826,-2.0174,2.2261
1585,8.967,-2.4525,3.0656,8.0696,-2.1565,2.5043
1590,9.1202,-2.5675,3.0273,8.2783,-2.1565,2.5739
1595,9.0436,-2.6058,3.1039,8.0696,-2.1565,2.6435
1600,9.2352,-2.6058,3.1423,7.513,-2.087,2.6435
1605,9.1202,-2.6058,3.1806,6.7478,-2.0174,2.4348
1610,9.1586,-2.4908,3.2189,5.7739,-1.8783,2.087
1615,9.1586,-2.5291,3.1806,4.9391,-1.7391,1.8087
1620,9.2735,-2.5675,3.2189,4.2435,-1.7391,1.5304
1625,9.2352,-2.5675,3.1039,3.8957,-1.9478,1.0435
1630,9.2735,-2.6058,3.0656,3.7565,-2.2261,0.5565
1635,9.2352,-2.6058,3.3339,3.9652,-2.5739,0.1391
1640,9.2735,-2.6058,3.1806,4.313,-2.8522,-0.3478
1645,9.2735,-2.5291,3.0656,4.6609,-3.1304,-0.7652
1650,9.2352,-2.5675,3.1806,4.9391,-3.4087,-0.9739
1655,9.3118,-2.5291,3.1039,4.9391,-3.6174,-1.0435
1660,9.3502,-2.7207,2.989,4.6609,-3.687,-1.1826
1665,9.1586,-2.4525,2.9123,4.1739,-3.4087,-1.113
1670,9.1586,-2.4525,2.9123,3.3391,-3.2696,-0.9043
1675,9.0053,-2.4525,3.0273,2.2957,-3.2,-0.9043
1680,9.1969,-2.6058,3.0273,1.5304,-3.2696,-0.5565
1685,9.1586,-2.5675,2.989,0.9739,-3.4783,-0.5565
1690,9.1969,-2.6058,3.0656,0.6957,-3.6174,-0.4174
1695,9.1202,-2.6441,2.8357,0.9043,-3.687,-0.487
1700,9.3885,-2.7974,3.0656,1.5304,-3.5478,-0.5565
1705,9.2735,-2.6824,2.9123,2.5739,-3.0609,-0.6261
1710,9.2352,-2.6441,2.7207,3.687,-2.5043,-0.6957
1715,9.0819,-2.7591,2.9123,4.8,-1.9478,-0.8348
1720,9.3118,-2.4908,2.8357,5.6348,-1.2522,-0.9043
1725,9.1586,-2.4142,2.7974,6.1217,-0.6261,-1.0435
1730,9.0819,-2.4142,2.874,6.0522,0.0696,-1.2522
1735,9.1969,-2.4142,2.9507,5.7043,0.487,-1.3913
1740,9.1586,-2.3759,2.9123,5.0087,0.9043,-1.4609
1745,9.1969,-2.3375,2.989,4.0348,1.2522,-1.3913
1750,9.0436,-2.2992,3.0273,3.2,1.3913,-1.3913
1755,9.1586,-2.3759,3.0273,2.1565,1.3913,-1.2522
1760,9.0053,-2.3759,3.1039,1.4609,1.0435,-1.1826
1765,9.0053,-2.2609,3.2955,0.6957,0.6957,-0.9739
1770,8.967,-2.3759,2.9123,0.2783,0.2783,-0.8348
1775,9.0819,-2.4525,3.2189,0.0696,-0.2783,-0.7652
1780,8.967,-2.4525,3.1039,-0.1391,-0.5565,-0.7652
1785,8.967,-2.3759,3.2189,-0.3478,-0.8348,-0.7652
1790,9.0436,-2.4142,3.3339,-0.6261,-1.0435,-0.6261
1795,9.0053,-2.5291,3.2189,-0.7652,-1.1826,-0.6261
1800,9.0819,-2.6058,3.1806,-0.7652,-1.3217,-0.5565
1805,9.0436,-2.7591,3.1423,-0.4174,-1.4609,-0.487
1810,9.0053,-2.7591,3.0273,0.0696,-1.6,-0.6261
1815,9.1202,-2.9123,3.0656,1.2522,-1.6,-0.9043
1820,9.0436,-2.7591,2.8357,2.8522,-1.3913,-0.9739
1825,8.967,-2.6058,2.9123,4.4522,-1.1826,-1.4609
1830,9.1586,-2.7207,2.7591,6.1217,-0.8348,-1.8087
1835,9.1586,-2.7207,2.8357,6.887,-0.5565,-2.0174
1840,9.0819,-2.5675,2.874,7.1652,-0.3478,-2.2261
1845,9.1202,-2.4908,2.7207,6.887,-0.0696,-2.6435
1850,9.1586,-2.4908,2.6824,6.0522,0.0696,-2.7826
1855,9.1586,-2.4525,2.7591,5.0783,0.3478,-2.9217
1860,9.2352,-2.4908,2.7207,3.7565,0.487,-2.7826
1865,9.2735,-2.4525,2.7974,2.5043,0.6261,-2.7826
1870,9.1202,-2.4142,3.0273,1.2522,0.5565,-2.5739
1875,9.1586,-2.2992,3.2189,0.1391,0.487,-2.4348
1880,9.0819,-2.0693,3.1039,-0.7652,0.3478,-2.2261
1885,9.1202,-2.4142,3.0273,-1.3217,0.2783,-2.0174
1890,9.2352,-2.4525,2.989,-1.6,0.2087,-1.8087
1895,9.1586,-2.4142,3.0656,-1.6,0.0,-1.7391
1900,9.2352,-2.4525,2.989,-1.2522,-0.2087,-1.6696
1905,9.1586,-2.4525,3.0273,-0.7652,-0.3478,-1.5304
1910,9.2352,-2.4908,3.0273,-0.1391,-0.4174,-1.3217
1915,9.1202,-2.4525,2.7974,0.2783,-0.487,-1.2522
1920,9.0819,-2.3759,2.8357,0.6261,-0.2783,-1.1826
1925,9.1586,-2.3759,3.1039,0.8348,-0.0696,-1.113
1930,9.0436,-2.4525,2.9507,0.9043,0.0696,-0.9739
1935,8.9286,-2.2992,2.7591,0.5565,0.1391,-1.0435
1940,9.1586,-2.3375,3.0656,0.0,0.2783,-1.113
1945,9.0436,-2.4525,3.0273,-0.6957,0.2087,-0.9043
1950,9.0053,-2.3759,3.1039,-1.6,0.0696,-0.6957
1955,8.967,-2.4142,2.9507,-2.6435,-0.0696,-0.487
1960,9.0819,-2.4908,2.8357,-3.2696,-0.4174,-0.2087
1965,9.1202,-2.6441,2.874,-3.4087,-0.7652,0.0
1970,9.0819,-2.6824,2.9507,-3.0609,-0.9739,0.1391
1975,9.1202,-2.6441,2.9123,-2.0174,-1.4609,0.2783
1980,9.1586,-2.9123,2.9507,-0.6957,-1.7391,0.2783
1985,9.1586,-2.8357,2.7974,1.0435,-1.9478,0.2087
1990,9.0819,-2.7207,2.5675,2.713,-1.8783,0.0
1995,9.1202,-2.6441,2.7207,4.313,-1.6696,-0.3478
2000,9.1969,-2.6824,2.7207,5.3565,-1.3913,-0.5565
2005,9.1202,-2.4525,2.7207,5.913,-1.0435,-0.8348
2010,9.0436,-2.5675,2.6058,5.9826,-0.5565,-1.1826
2015,8.9286,-2.4908,2.7974,5.4957,-0.1391,-1.5304
2020,9.0436,-2.4525,2.8357,4.5913,0.3478,-1.6696
2025,8.9286,-2.5291,2.874,3.5478,0.8348,-1.8087
2030,8.8903,-2.4525,2.989,2.2261,1.2522,-1.8087
2035,8.967,-2.5675,3.0273,1.3913,1.6,-1.6
2040,8.8137,-2.6824,3.1423,0.9043,1.9478,-1.3913
2045,8.8903,-2.7591,2.989,0.9043,2.2957,-1.2522
2050,8.967,-2.7207,2.9507,1.6,2.3652,-1.2522
2055,9.0053,-2.6824,3.0273,2.6435,2.4348,-1.113
2060,9.0053,-2.6058,3.2189,3.9652,2.4348,-0.9739
2065,8.967,-2.6058,3.0656,5.2174,2.4348,-0.9739
2070,9.0819,-2.6058,3.0656,6.4,2.4348,-0.9043
2075,9.0053,-2.6058,3.1039,7.4435,2.3652,-1.113
2080,9.0819,-2.6058,2.9507,8.1391,2.2957,-1.2522
2085,9.1586,-2.4525,2.7974,8.5565,2.1565,-1.3913
2090,9.1586,-2.4525,3.0656,8.7652,2.087,-1.4609
2095,9.1969,-2.6058,3.2572,8.5565,1.9478,-1.4609
2100,9.1586,-2.4525,3.0656,8.3478,1.9478,-1.4609
2105,9.1586,-2.4525,3.1039,8.0696,1.9478,-1.3217
2110,9.1586,-2.3375,3.0273,7.513,1.8087,-1.5304
2115,9.1586,-2.3759,3.0656,7.2348,1.7391,-1.5304
2120,9.2352,-2.4908,2.874,6.7478,1.6,-1.5304
2125,9.1969,-2.3375,2.9123,6.1913,1.1826,-1.5304
2130,9.1586,-2.2992,2.8357,5.4957,0.8348,-1.5304
2135,9.3118,-2.3375,2.7207,4.7304,0.4174,-1.4609
2140,9.4268,-2.4525,2.7974,4.0348,0.0696,-1.2522
2145,9.3885,-2.3375,2.7591,3.4087,-0.1391,-1.3217
2150,9.5801,-2.5291,2.5675,2.8522,0.0696,-1.1826
2155,9.2352,-2.4908,2.7207,2.5043,0.1391,-1.0435
2160,9.3885,-2.5291,2.9123,2.1565,0.2087,-0.9739
2165,9.3502,-2.5675,2.7591,1.8087,0.487,-0.9043
2170,9.3885,-2.5675,2.874,1.3913,0.6261,-0.7652
2175,9.3118,-2.6058,2.874,1.1826,0.8348,-0.7652
2180,9.2352,-2.6058,2.8357,1.1826,0.9043,-0.7652
2185,9.2352,-2.7207,2.6058,1.3217,0.9043,-0.6957
2190,9.3885,-2.7591,3.0273,1.8087,1.1826,-0.5565
2195,9.1969,-2.7591,2.7591,2.4348,1.2522,-0.6957
2200,9.1969,-2.6824,2.989,3.1304,1.3913,-0.6957
2205,9.0436,-2.6441,2.6441,3.8261,1.6,-0.6957
2210,9.2352,-2.7207,2.874,4.3826,1.7391,-0.8348
2215,9.1202,-2.6824,2.874,4.8,1.7391,-0.9739
2220,9.1586,-2.7591,2.874,5.0783,1.6696,-0.9739
2225,9.1586,-2.5675,2.989,5.2174,1.6,-0.9739
2230,9.1586,-2.6058,2.874,5.287,1.5304,-0.8348
2235,9.1969,-2.5675,2.989,5.2174,1.5304,-0.8348
2240,9.1586,-2.4908,2.9123,5.287,1.4609,-0.7652
2245,9.3502,-2.6441,2.9507,5.3565,1.4609,-0.7652
2250,9.2735,-2.5291,2.9123,5.3565,1.3913,-0.8348
2255,9.2735,-2.3759,2.7591,5.4957,1.4609,-0.6957
2260,9.4651,-2.4525,2.9507,5.7043,1.4609,-0.5565
2265,9.2735,-2.4142,2.874,5.913,1.7391,-0.6261
2270,9.2735,-2.4908,2.7591,6.0522,1.8087,-0.487
2275,9.4268,-2.5291,2.8357,6.0522,2.2261,-0.487
2280,9.2735,-2.5675,2.7207,5.913,2.4348,-0.4174
2285,9.2352,-2.4908,2.7591,5.4261,2.713,-0.3478
2290,9.2352,-2.3759,2.6441,4.9391,2.9217,-0.2783
2295,9.3118,-2.4908,2.7591,4.1739,3.2,-0.3478
2300,9.1969,-2.4525,2.7207,3.2696,3.4087,-0.487
2305,9.2735,-2.4142,2.9507,2.2957,3.7565,-0.5565
2310,9.1586,-2.3375,2.8357,1.4609,4.1043,-0.5565
2315,9.2352,-2.3759,2.6058,0.487,4.3826,-0.7652
2320,9.0053,-2.4525,2.9123,-0.4174,4.5913,-0.8348
2325,9.0436,-2.3375,2.9507,-1.2522,4.6609,-0.7652
2330,9.1969,-2.4142,3.0656,-2.0174,4.6609,-0.6261
2335,9.0053,-2.3759,3.0273,-2.6435,4.5217,-0.5565
2340,9.0819,-2.4525,2.989,-3.2,4.313,-0.6957
2345,9.0819,-2.3375,3.0656,-3.7565,3.9652,-0.6957
2350,9.0819,-2.4142,3.1039,-4.3826,3.6174,-0.7652
2355,9.1202,-2.4908,3.0656,-4.7304,3.2,-0.9739
2360,9.0053,-2.4525,3.1039,-5.1478,2.7826,-1.113
2365,9.0053,-2.2609,3.1039,-5.5652,2.5043,-1.3217
2370,8.9286,-2.6058,3.1423,-6.0522,2.087,-1.3913
2375,9.0053,-2.4908,3.0656,-6.5391,1.9478,-1.7391
2380,8.8903,-2.4908,3.1423,-7.1652,1.7391,-1.8783
2385,8.967,-2.5291,3.1806,-7.9304,1.5304,-2.087
2390,9.0436,-2.4525,3.1423,-8.6261,1.3217,-2.2261
2395,9.0819,-2.5675,3.1039,-9.4609,1.0435,-2.3652
2400,9.0819,-2.5291,3.2189,-10.2261,0.8348,-2.6435
2405,8.967,-2.7207,2.989,-10.9217,0.6957,-2.8522
2410,8.852,-2.3375,3.0656,-11.4783,0.6957,-2.9217
2415,9.1586,-2.6441,3.1039,-11.9652,0.7652,-2.8522
2420,9.0436,-2.5291,3.1039,-12.1739,0.7652,-2.8522
2425,9.0436,-2.5675,3.0656,-11.9652,0.8348,-2.9913
2430,9.0436,-2.6058,3.1806,-11.3391,0.9043,-2.8522
2435,9.0819,-2.6058,3.1423,-10.5043,0.7652,-2.9217
2440,9.0436,-2.6441,2.989,-9.5304,0.6957,-2.6435
2445,9.0436,-2.7591,2.9123,-8.3478,0.5565,-2.5043
2450,9.0436,-2.6058,3.0273,-7.0261,0.4174,-2.4348
2455,9.0819,-2.6824,2.9507,-5.6348,0.2783,-2.2261
2460,9.2735,-2.6441,2.8357,-4.2435,0.3478,-2.1565
2465,9.0819,-2.5675,2.7207,-3.2,0.2783,-2.0174
2470,9.1969,-2.7591,2.874,-2.2957,0.2087,-1.7391
2475,9.2352,-2.6058,2.9123,-1.5304,0.0696,-1.6
2480,9.0819,-2.4908,2.7974,-1.0435,0.0,-1.4609
2485,9.1969,-2.4525,2.8357,-0.9739,-0.0696,-1.3217
2490,9.1586,-2.4908,2.6441,-1.0435,0.0,-1.1826
2495,9.1969,-2.6824,2.9123,-1.4609,0.2087,-1.3217
2500,9.1586,-2.5291,2.7591,-2.0174,0.2783,-1.3913
2505,9.2352,-2.6058,2.7591,-2.5739,0.487,-1.3217
2510,9.0436,-2.5291,2.9123,-3.1304,0.6261,-1.4609
2515,9.0436,-2.6058,2.6441,-3.5478,0.6957,-1.5304
2520,9.0819,-2.6824,2.6824,-3.8261,0.6957,-1.7391
2525,8.967,-2.4908,2.874,-4.1739,0.6957,-1.8783
2530,9.1969,-2.7974,3.0656,-4.313,0.6957,-2.0174
2535,9.1969,-2.7974,2.7591,-4.313,0.487,-2.087
2540,9.0819,-2.6058,2.9507,-4.2435,0.4174,-2.1565
2545,9.1969,-2.6058,2.989,-4.0348,0.4174,-2.2261
2550,9.0436,-2.5675,2.9123,-3.687,0.2783,-2.3652
2555,9.1202,-2.6058,3.0273,-3.3391,0.0696,-2.3652
2560,9.1586,-2.5291,2.9123,-3.0609,0.0696,-2.2957
2565,9.0819,-2.4525,2.7974,-2.7826,-0.0696,-2.2261
2570,9.1202,-2.4908,2.8357,-2.713,0.0,-2.087
2575,9.1202,-2.4525,3.0273,-3.0609,-0.1391,-1.9478
2580,8.967,-2.3759,2.874,-3.3391,0.0,-1.9478
2585,9.0436,-2.4142,2.9123,-3.8957,-0.0696,-1.8087
2590,9.0436,-2.4525,2.9123,-4.3826,-0.0696,-1.6
2595,9.1969,-2.4525,2.874,-4.6609,-0.0696,-1.4609
2600,9.0436,-2.4908,2.9507,-5.1478,-0.0696,-1.3913
2605,9.1586,-2.5291,2.7974,-5.4957,-0.2783,-1.3913
2610,9.1202,-2.4908,2.9507,-5.7043,-0.4174,-1.3217
2615,9.0819,-2.6058,2.9123,-5.7043,-0.6261,-1.3217
2620,8.967,-2.4525,3.0656,-5.6348,-0.7652,-1.113
2625,9.1586,-2.7591,3.1423,-5.287,-0.8348,-0.9739
2630,9.1969,-2.6824,2.7974,-4.8,-0.9739,-0.7652
2635,9.0819,-2.6058,2.989,-3.9652,-1.113,-0.6957
2640,9.1586,-2.6441,2.874,-2.5739,-1.113,-0.6261
2645,9.1586,-2.6441,2.874,-1.1826,-1.3217,-0.4174
2650,9.3118,-2.6824,2.8357,0.3478,-1.113,-0.2783
2655,9.1586,-2.7591,2.874,1.8087,-0.9043,-0.2087
2660,9.2352,-2.6058,2.6441,3.5478,-0.7652,-0.2783
2665,9.3502,-2.7207,2.6824,4.6609,-0.5565,-0.2087
2670,9.2352,-2.6824,2.4908,5.6348,-0.1391,-0.2087
2675,9.2352,-2.8357,2.5675,6.3304,0.0696,0.0
2680,9.3118,-2.7974,2.4908,6.7478,0.4174,0.0
2685,9.2352,-2.7974,2.4525,7.1652,0.8348,0.0696
2690,9.1586,-2.5291,2.6824,7.3739,1.113,0.1391
2695,9.5418,-2.6441,2.6441,7.513,1.4609,0.1391
2700,9.1586,-2.6441,2.5675,7.6522,1.9478,-0.1391
2705,9.0819,-2.7207,2.8357,7.6522,2.4348,-0.0696
2710,9.1586,-2.6058,2.7591,7.7217,2.9913,-0.2783
2715,9.2352,-2.6058,2.7591,7.7913,3.2696,-0.487
2720,9.1202,-2.6058,2.9507,7.7217,3.687,-0.6957
2725,9.0819,-2.6058,2.7207,7.7913,3.9652,-0.8348
2730,9.1586,-2.5675,2.6824,7.8609,4.313,-1.0435
2735,9.1969,-2.4908,2.9507,8.1391,4.5217,-1.113
2740,9.2735,-2.6824,2.7591,8.487,4.7304,-1.1826
2745,9.1586,-2.4142,2.9507,8.9043,4.8,-1.113
2750,9.2735,-2.4908,2.7591,9.1826,4.8696,-0.9739
2755,9.1586,-2.4142,2.8357,9.2522,5.0087,-0.7652
2760,9.1202,-2.4525,2.9123,9.2522,5.0783,-0.6957
2765,9.1586,-2.4908,2.7591,8.9739,5.2174,-0.4174
2770,9.0819,-2.4525,2.7207,8.3478,5.0783,-0.2783
2775,9.0819,-2.4525,2.874,7.7217,5.0783,0.0
2780,8.967,-2.3759,2.874,6.887,4.9391,0.3478
2785,8.967,-2.4142,2.874,6.1913,4.8,0.4174
2790,8.9286,-2.4525,2.989,5.5652,4.6609,0.6261
2795,8.9286,-2.4142,2.8357,5.0783,4.5913,0.6957
2800,8.8137,-2.4525,2.9507,4.7304,4.7304,0.7652
2805,8.9286,-2.4908,3.2189,4.6609,4.6609,0.5565
2810,9.1202,-2.5291,3.0656,4.8696,4.8696,0.487
2815,9.0053,-2.6824,2.989,5.1478,4.8696,0.6957
2820,9.0436,-2.7207,2.989,5.7043,4.9391,0.4174
2825,9.1202,-2.7591,3.0273,6.3304,5.0087,0.3478
2830,9.1969,-2.7974,2.9507,6.9565,5.1478,0.3478
2835,9.2352,-2.7974,2.874,7.6522,5.2174,0.1391
2840,9.1586,-2.874,2.989,8.2087,5.287,0.1391
2845,9.1969,-2.7974,2.7207,8.6261,5.4261,-0.0696
2850,9.3502,-2.6824,2.9507,8.7652,5.5652,-0.1391
2855,9.1202,-2.6441,2.6441,8.6957,5.7043,-0.1391
2860,9.1202,-2.7591,2.7207,8.487,5.7043,-0.3478
2865,9.1969,-2.6441,2.7974,8.1391,5.7739,-0.3478
2870,9.1202,-2.5291,2.7974,7.7913,5.7739,-0.3478
2875,9.0436,-2.5291,2.9507,7.3739,5.7043,-0.3478
2880,9.1586,-2.6441,2.8357,6.9565,5.4957,-0.2087
2885,9.0819,-2.5291,2.9123,6.7478,5.2174,-0.2783
2890,9.0819,-2.4908,2.989,6.5391,5.0783,-0.2087
2895,9.0819,-2.6058,2.9507,6.4,5.0783,-0.2087
2900,9.0053,-2.6824,3.1039,6.4,4.8696,-0.2783
2905,9.1586,-2.6441,3.1806,6.6087,4.8696,-0.3478
2910,8.9286,-2.6441,3.1039,6.9565,4.8,-0.2783
2915,9.0053,-2.4525,2.874,7.2348,4.8696,-0.3478
2920,9.0436,-2.5291,3.1039,7.6522,4.8,-0.3478
2925,8.8903,-2.4908,3.1039,8.0696,4.7304,-0.4174
2930,9.0819,-2.5675,3.1039,8.2783,4.8696,-0.2783
2935,9.0053,-2.5675,3.0273,8.3478,5.1478,-0.487
2940,9.0436,-2.5675,3.0273,8.3478,5.287,-0.5565
2945,9.0053,-2.5291,2.9123,8.2087,5.4957,-0.5565
2950,8.9286,-2.4908,2.7974,7.7913,5.7739,-0.7652
2955,9.0053,-2.5291,2.9507,7.513,6.1913,-0.6957
2960,9.0819,-2.4908,3.0273,7.0261,6.4,-0.9043
2965,9.0053,-2.4908,3.1039,6.6783,6.6783,-1.113
2970,8.6987,-2.3759,3.1039,6.2609,6.8174,-1.113
2975,8.967,-2.4525,2.989,5.9826,7.0261,-1.3217
2980,8.9286,-2.4908,3.1039,5.5652,7.0957,-1.3913
2985,9.0053,-2.4908,3.1423,5.2174,6.9565,-1.3913
2990,9.0436,-2.6058,3.1423,5.0783,6.8174,-1.2522
2995,9.0053,-2.6441,3.1423,4.8696,6.6087,-1.2522
