timestamp,accX,accY,accZ,gyroX,gyroY,gyroZ
0,0.6131,-9.6184,-2.031,-0.2087,0.9043,-0.2783
5,0.5365,-9.5801,-2.0693,-0.0696,1.0435,-0.1391
10,0.5748,-9.5801,-1.8394,-0.1391,1.1826,-0.4174
15,0.4598,-9.5034,-2.031,-0.3478,1.2522,-0.3478
20,0.6131,-9.5418,-2.031,-0.4174,1.5304,-0.6261
25,0.4215,-9.695,-2.031,-0.5565,1.8783,-0.4174
30,0.8047,-9.0436,-2.3759,-0.8348,1.9478,-0.7652
35,0.6898,-9.6184,-1.916,-0.8348,2.087,-0.5565
40,0.6131,-9.6567,-2.1076,-0.9043,2.3652,-0.6957
45,0.6514,-9.5801,-1.9927,-0.8348,2.4348,-0.4174
50,0.6514,-9.6184,-1.8777,-0.7652,2.4348,-0.487
55,0.4982,-9.5034,-2.1076,-0.5565,2.4348,-0.2783
60,0.6514,-9.6567,-1.916,-0.3478,2.4348,-0.3478
65,0.6131,-9.6567,-1.9927,-0.0696,2.5043,-0.2087
70,0.6514,-9.5418,-1.7627,-0.0696,2.7826,-0.4174
75,0.6131,-9.5801,-2.0693,-0.1391,3.0609,-0.2087
80,0.7664,-9.5418,-2.1459,-0.4174,3.2,-0.3478
85,0.958,-9.4268,-1.7627,-0.6957,3.4783,-0.487
90,0.7664,-9.5418,-2.1459,-1.0435,3.7565,-0.6957
95,0.6514,-9.5034,-2.031,-1.1826,4.0348,-0.6957
100,0.6514,-9.5034,-2.1076,-1.4609,4.1043,-1.0435
105,0.6514,-9.4268,-2.0693,-1.4609,4.1739,-0.9739
110,0.5748,-9.5801,-2.0693,-1.3913,4.1043,-1.2522
115,0.4598,-9.5034,-1.9543,-1.113,3.8261,-1.1826
120,0.4598,-9.5801,-2.0693,-0.6957,3.5478,-1.4609
125,0.4598,-9.3885,-1.9927,-0.4174,3.2696,-1.4609
130,0.4982,-9.5034,-2.031,-0.0696,3.1304,-1.8783
135,0.4215,-9.5034,-1.8394,0.0,2.8522,-1.6696
140,0.8047,-9.6184,-2.1843,0.0,2.713,-1.8087
145,0.4598,-9.5034,-2.2226,-0.2087,2.4348,-1.6
150,0.4598,-9.3502,-2.1459,-0.3478,2.2957,-1.6696
155,0.5365,-9.4268,-2.031,-0.487,2.1565,-1.3913
160,0.5748,-9.5801,-2.1076,-0.6261,2.1565,-1.5304
165,0.4598,-9.5034,-1.9543,-0.5565,2.1565,-1.1826
170,0.6131,-9.5418,-2.2609,-0.6261,2.2261,-1.1826
175,0.6131,-9.4651,-2.0693,-0.4174,2.087,-0.8348
180,0.5365,-9.5801,-1.8777,-0.3478,1.9478,-0.8348
185,0.6131,-9.5034,-2.1843,-0.2783,1.7391,-0.6957
190,0.7281,-9.4651,-2.0693,-0.2783,1.3913,-0.7652
195,0.4982,-9.925,-1.4945,-0.3478,1.1826,-0.4174
200,0.4982,-9.5801,-2.3759,-0.487,1.0435,-0.6261
205,0.6514,-9.6184,-2.2226,-0.5565,1.113,-0.4174
210,0.6514,-9.6567,-2.2226,-0.6261,1.113,-0.6261
215,0.5748,-9.6184,-2.2609,-0.6957,1.1826,-0.487
220,0.6514,-9.5801,-2.1076,-0.9043,1.1826,-0.5565
225,0.5748,-9.5034,-2.1459,-1.2522,1.113,-0.487
230,0.6898,-9.6184,-2.2609,-1.3217,1.0435,-0.5565
235,0.5748,-9.5801,-2.1843,-1.5304,0.9739,-0.3478
240,0.6898,-9.5418,-2.2226,-1.6696,1.113,-0.487
245,0.5748,-9.5034,-2.031,-1.7391,1.1826,-0.4174
250,0.6514,-9.4651,-2.3759,-1.8783,1.3217,-0.5565
255,0.6514,-9.5418,-2.1459,-1.9478,1.3913,-0.4174
260,0.6514,-9.4651,-2.2609,-1.9478,1.3913,-0.487
265,0.6898,-9.6184,-2.2226,-2.0174,1.3217,-0.2783
270,0.5365,-9.5418,-2.2609,-2.0174,1.2522,-0.4174
275,0.6131,-9.6567,-2.2226,-1.8783,1.2522,-0.0696
280,0.4982,-9.5418,-2.1076,-1.6696,1.3217,-0.2087
285,0.5748,-9.7717,-2.2609,-1.3913,1.4609,0.0696
290,0.7664,-9.5801,-2.1843,-1.2522,1.3913,0.0
295,0.5748,-9.5034,-2.2226,-0.9739,1.3913,0.3478
300,0.8047,-9.5801,-1.3795,-0.7652,1.4609,0.2087
305,0.7664,-9.5034,-2.1076,-0.6261,1.6696,0.5565
310,0.7281,-9.5418,-2.0693,-0.6261,1.6696,0.3478
315,0.6514,-9.5418,-2.1459,-0.6957,1.6696,0.487
320,0.7281,-9.4651,-2.1076,-0.9043,1.6696,0.4174
325,0.6514,-9.5034,-2.0693,-1.1826,1.8087,0.4174
330,0.6131,-9.5418,-2.1076,-1.0435,1.7391,0.2087
335,0.7281,-9.6184,-2.2226,-0.9043,1.8087,0.4174
340,0.6898,-9.6567,-2.1076,-0.5565,1.8087,0.0696
345,0.6898,-9.5034,-2.031,-0.2783,2.0174,0.0696
350,0.5748,-9.4268,-1.9543,-0.2087,2.2957,-0.1391
355,0.9197,-9.5034,-1.8394,-0.3478,2.6435,-0.1391
360,0.7664,-9.5034,-2.0693,-0.6261,3.2,-0.3478
365,0.7281,-9.5418,-2.031,-1.113,3.4783,-0.2783
370,0.6514,-9.4268,-2.1459,-1.6,3.9652,-0.5565
375,0.6514,-9.5034,-2.0693,-1.9478,4.1739,-0.4174
380,0.7281,-9.4651,-2.0693,-2.0174,4.1739,-0.487
385,0.7664,-9.6184,-2.1843,-2.087,3.9652,-0.3478
390,0.7281,-9.5801,-2.0693,-2.087,3.7565,-0.3478
395,0.7664,-9.6567,-2.0693,-2.1565,3.5478,-0.0696
400,0.7281,-9.5034,-2.1076,-2.1565,3.4783,-0.2087
405,0.4598,-9.7334,-1.9543,-2.2261,3.6174,-0.0696
410,1.0346,-9.3885,-2.1076,-2.0174,3.6174,-0.2087
415,0.7281,-9.5418,-2.0693,-1.8783,3.6174,-0.0696
420,0.6514,-9.5034,-1.9543,-1.7391,3.687,-0.1391
425,0.6514,-9.5034,-1.9927,-1.3913,3.687,0.0696
430,0.7281,-9.5801,-1.9543,-1.3217,3.687,0.0696
435,0.6514,-9.5418,-2.0693,-1.0435,3.687,0.2087
440,0.6514,-9.5801,-2.1076,-0.8348,3.6174,0.0
445,0.6514,-9.3885,-2.1076,-0.8348,3.3391,0.0
450,0.6131,-9.5034,-2.2226,-0.9043,3.2696,-0.2087
455,0.4982,-9.4651,-2.1076,-1.113,3.2696,-0.0696
460,0.6514,-9.3885,-1.8777,-1.1826,3.3391,-0.2087
465,0.2299,-9.4268,-2.1459,-1.4609,3.2696,-0.1391
470,0.5748,-9.5418,-2.1076,-1.6696,3.1304,-0.2087
475,0.6514,-9.5801,-2.031,-1.8087,3.2,-0.1391
480,0.6131,-9.5801,-2.1076,-1.7391,3.0609,-0.3478
485,0.5365,-9.6567,-1.9927,-1.6,3.1304,-0.2783
490,0.5365,-9.6184,-2.1459,-1.4609,3.0609,-0.487
495,0.4982,-9.6184,-2.1459,-1.113,3.2,-0.2783
500,0.7281,-9.695,-2.1459,-0.9739,3.1304,-0.487
505,0.7664,-9.695,-1.8777,-0.6957,3.3391,-0.3478
510,0.7281,-9.5034,-2.0693,-0.6261,3.4087,-0.5565
515,0.6898,-9.6567,-1.9543,-0.5565,3.4783,-0.3478
520,1.1879,-9.6567,-1.6861,-0.6261,3.4087,-0.487
525,0.6898,-9.5034,-2.031,-0.6261,3.4783,-0.2783
530,0.6131,-9.5418,-2.0693,-0.6957,3.4087,-0.487
535,0.5748,-9.4651,-2.1459,-0.6957,3.4087,-0.3478
540,0.6514,-9.5418,-2.1076,-0.6957,3.3391,-0.487
545,0.6514,-9.5801,-2.1843,-0.8348,3.2,-0.3478
550,0.6898,-9.5418,-2.031,-0.8348,3.2,-0.487
555,0.6131,-9.6184,-2.0693,-1.0435,2.9913,-0.3478
560,0.5365,-9.3502,-2.1076,-1.1826,2.8522,-0.5565
565,0.6131,-9.3118,-2.0693,-1.3913,2.9217,-0.487
570,0.6514,-9.4651,-2.0693,-1.5304,2.8522,-0.6261
575,0.6898,-9.5034,-2.2226,-1.7391,2.8522,-0.5565
580,0.8047,-9.2735,-2.3375,-1.7391,2.9913,-0.8348
585,0.6898,-9.0819,-1.9543,-1.7391,2.9217,-0.6261
590,0.6514,-9.5418,-2.1076,-1.7391,3.2,-0.9043
595,0.6514,-9.5034,-2.2226,-1.7391,3.2,-0.7652
600,0.5748,-9.5801,-1.916,-1.7391,3.3391,-0.9043
605,0.6898,-9.6184,-2.0693,-1.7391,3.4783,-0.8348
610,0.6514,-9.3885,-2.1843,-1.8783,3.5478,-1.113
615,0.6898,-9.6184,-2.1459,-2.0174,3.687,-0.9739
620,0.5365,-9.5418,-2.1459,-2.3652,3.6174,-1.1826
625,0.5365,-9.5418,-2.031,-2.5739,3.5478,-0.9739
630,0.2299,-9.1969,-2.2992,-2.7826,3.2696,-1.1826
635,0.6131,-9.5034,-2.0693,-2.7826,2.9217,-1.0435
640,0.7281,-9.5034,-2.031,-2.7826,2.7826,-1.3913
645,0.6131,-9.5034,-2.1076,-2.713,2.6435,-1.113
650,0.5748,-9.4268,-2.031,-2.713,2.5043,-1.3217
655,0.5748,-9.4651,-2.1076,-2.7826,2.4348,-1.2522
660,0.6514,-9.5418,-2.1459,-2.713,2.3652,-1.3913
665,0.6898,-9.5418,-1.916,-2.9217,2.4348,-1.1826
670,0.6514,-9.4651,-2.031,-3.0609,2.4348,-1.3217
675,0.6898,-9.4268,-2.031,-3.1304,2.4348,-1.113
680,0.5748,-9.5034,-2.0693,-3.2696,2.3652,-1.2522
685,1.0346,-9.3885,-2.1076,-3.2696,2.4348,-1.113
690,0.4982,-9.5418,-2.1459,-3.3391,2.087,-1.1826
695,0.6514,-9.5418,-2.1459,-3.3391,2.0174,-0.9739
700,0.6898,-9.6184,-2.2609,-3.2,2.0174,-1.0435
705,0.6514,-9.6184,-2.1459,-2.9217,1.8783,-0.8348
710,0.6514,-9.6184,-2.1076,-2.9217,1.8087,-1.0435
715,0.6898,-9.5801,-2.1076,-2.8522,1.7391,-0.7652
720,0.5748,-9.5034,-2.2609,-2.8522,1.8087,-0.9043
725,0.5365,-9.5418,-2.2992,-2.5739,1.8087,-0.6957
730,0.8814,-9.4651,-2.1843,-2.5043,1.9478,-0.9043
735,0.6514,-9.6184,-2.2226,-2.3652,1.9478,-0.7652
740,0.8047,-9.6184,-2.1843,-2.2261,1.9478,-0.9043
745,0.6898,-9.6567,-2.1076,-1.9478,1.9478,-0.6957
750,0.6898,-9.5801,-2.0693,-1.6696,2.087,-0.9043
755,0.7281,-9.5801,-2.1459,-1.4609,2.2261,-0.6957
760,0.7664,-9.6184,-2.1459,-1.2522,2.4348,-0.9043
765,0.6898,-9.5801,-2.1076,-1.1826,2.5043,-0.7652
770,0.7281,-9.5034,-2.1076,-1.0435,2.6435,-0.9043
775,0.6898,-9.4651,-2.2609,-1.0435,2.9217,-0.7652
780,0.8047,-9.5418,-2.2226,-1.3217,3.0609,-0.9043
785,0.7281,-9.3885,-2.2226,-1.5304,3.2,-0.6957
790,0.6514,-9.5418,-2.1843,-1.8087,3.3391,-0.8348
795,0.7664,-9.925,-1.9543,-2.2261,3.2,-0.6261
800,0.3832,-9.3885,-2.1843,-2.5739,3.3391,-0.7652
805,0.6898,-9.5801,-2.0693,-2.8522,3.5478,-0.487
810,0.6514,-9.5034,-2.1076,-3.0609,3.687,-0.6261
815,0.7281,-9.5418,-2.0693,-3.2,3.8957,-0.487
820,0.6514,-9.5801,-2.1076,-3.2696,3.9652,-0.6957
825,0.7281,-9.5418,-2.1076,-3.2696,3.8261,-0.5565
830,0.6131,-9.4651,-2.1459,-3.3391,3.687,-0.6261
835,0.6898,-9.4268,-2.3375,-3.0609,3.5478,-0.487
840,0.5748,-9.695,-2.1076,-2.9217,3.4087,-0.6957
845,0.9197,-9.7717,-1.8394,-2.7826,3.4087,-0.5565
850,0.6898,-9.5418,-2.0693,-2.8522,3.4783,-0.8348
855,0.5365,-9.3885,-1.9927,-3.1304,3.687,-0.6957
860,0.6514,-9.5034,-2.2609,-3.4087,3.8261,-0.9043
865,0.6514,-9.4651,-2.0693,-3.8957,3.8957,-0.6261
870,0.5365,-9.4651,-2.2992,-4.313,4.0348,-0.7652
875,0.6131,-9.6567,-2.1076,-4.3826,4.1043,-0.5565
880,0.6131,-9.5801,-2.1076,-4.3826,4.2435,-0.5565
885,0.5748,-9.5418,-2.2226,-4.0348,4.313,-0.2783
890,0.5748,-9.6567,-2.2226,-3.687,4.3826,-0.4174
895,0.8047,-9.1969,-2.3759,-3.2696,4.4522,-0.2087
900,0.7664,-9.1202,-2.4908,-2.9913,4.7304,-0.4174
905,0.8047,-9.6184,-2.1459,-2.7826,4.7304,-0.2783
910,0.7664,-9.5034,-2.2992,-2.7826,4.6609,-0.4174
915,0.6514,-9.5418,-2.2992,-3.2,4.313,-0.2087
920,0.6898,-9.5801,-2.2992,-3.5478,4.0348,-0.2783
925,0.6898,-9.6184,-2.2992,-3.7565,3.7565,0.0
930,0.7281,-9.6567,-2.2226,-3.8261,3.5478,-0.1391
935,0.4982,-9.7334,-2.1843,-3.5478,3.5478,0.0696
940,0.6131,-9.5801,-2.0693,-3.1304,3.687,-0.0696
945,0.6131,-9.6567,-2.2609,-2.5043,3.8957,0.0696
950,0.5365,-9.5801,-2.1076,-1.9478,4.1043,-0.0696
955,0.8814,-9.5801,-2.1459,-1.5304,4.5217,0.0
960,0.6898,-9.6184,-2.1076,-1.0435,4.8696,-0.1391
965,0.6514,-9.5801,-2.2226,-0.5565,5.0087,-0.1391
970,0.7664,-9.4268,-2.1076,-0.4174,5.2174,-0.2783
975,0.7281,-9.5418,-2.2226,-0.4174,5.4957,-0.1391
980,0.7281,-9.5801,-2.1459,-0.487,5.6348,-0.3478
985,0.6131,-9.5034,-2.1076,-0.6261,5.7043,-0.2087
990,0.6514,-9.5418,-2.1076,-0.8348,5.7043,-0.4174
995,0.6131,-9.4651,-2.1076,-1.0435,5.6348,-0.1391
1000,0.6131,-9.5418,-2.1459,-1.2522,5.5652,-0.487
1005,0.5748,-9.5801,-1.9543,-1.4609,5.4261,-0.1391
1010,0.6514,-8.8903,-2.3375,-1.5304,5.4261,-0.2783
1015,0.6514,-9.5801,-2.1459,-1.6696,5.4261,-0.1391
1020,0.6131,-9.5418,-2.1843,-1.8783,5.5652,-0.2783
1025,0.6131,-9.4268,-2.2226,-1.8087,5.5652,-0.0696
1030,0.5748,-9.5418,-2.1076,-1.9478,5.7043,-0.2783
1035,0.6898,-9.5034,-2.031,-1.9478,5.6348,0.0
1040,0.6131,-9.4651,-2.1459,-1.9478,5.6348,-0.2783
1045,0.5748,-9.5801,-2.2226,-1.9478,5.6348,-0.0696
1050,0.843,-9.5801,-2.0693,-2.0174,5.5652,-0.2783
1055,0.5748,-9.5034,-2.1459,-1.8783,5.3565,-0.0696
1060,0.4598,-9.6184,-2.031,-1.8087,5.0783,-0.2087
1065,0.8047,-9.2735,-2.2226,-1.8783,4.8,0.0
1070,0.5748,-9.5034,-2.2992,-1.8783,4.5913,-0.1391
1075,0.5748,-9.5801,-2.1076,-1.8783,4.4522,-0.0696
1080,0.4598,-9.4651,-2.2226,-1.8783,4.2435,-0.3478
1085,0.5365,-9.5034,-2.1459,-2.0174,4.0348,-0.0696
1090,0.5748,-9.5034,-2.031,-2.2957,3.9652,-0.2783
1095,0.6898,-9.6184,-2.0693,-2.713,3.8261,-0.1391
1100,0.5365,-9.5034,-2.2609,-2.8522,3.8957,-0.3478
1105,0.6514,-9.5034,-2.1459,-3.0609,4.1739,-0.2783
1110,0.4982,-9.5418,-2.1459,-3.2,4.3826,-0.487
1115,0.5748,-9.5034,-2.0693,-3.1304,4.5217,-0.4174
1120,0.6131,-9.6184,-1.7627,-3.0609,4.6609,-0.6957
1125,0.6514,-9.5801,-2.2609,-2.8522,4.8696,-0.5565
1130,0.7664,-9.6567,-2.1459,-2.6435,4.8696,-0.6957
1135,0.7664,-9.5418,-2.1459,-2.5043,4.8,-0.6957
1140,0.7281,-9.6184,-2.1076,-2.5043,4.8,-0.9043
1145,0.6131,-9.5801,-2.3759,-2.5043,4.6609,-0.6261
1150,0.6131,-9.5418,-2.3375,-2.3652,4.7304,-0.7652
1155,0.5365,-9.5034,-2.0693,-2.2957,4.5217,-0.6957
1160,0.6514,-9.5801,-2.1459,-2.2261,4.5913,-0.9043
1165,0.6898,-9.5801,-2.2226,-2.1565,4.5913,-0.6957
1170,0.6898,-9.4651,-2.1076,-1.9478,4.5217,-0.8348
1175,0.9197,-9.0436,-2.7974,-1.7391,4.5217,-0.6957
1180,0.5748,-9.5801,-2.3375,-1.2522,4.3826,-0.9739
1185,0.6131,-9.5034,-2.1459,-1.0435,4.1739,-0.6957
1190,0.5748,-9.4651,-2.2609,-0.6957,4.2435,-0.8348
1195,0.6514,-9.5034,-2.1076,-0.6261,4.1739,-0.8348
1200,0.7281,-9.6184,-2.2992,-0.5565,4.2435,-0.9043
1205,0.5365,-9.4651,-2.1459,-0.5565,4.2435,-0.6957
1210,0.6514,-9.5801,-2.1459,-0.6261,4.2435,-0.8348
1215,0.7281,-9.5801,-2.3375,-0.7652,4.2435,-0.6261
1220,0.7664,-9.5418,-2.4142,-0.7652,4.2435,-0.7652
1225,0.6898,-9.5418,-2.1843,-0.7652,4.2435,-0.487
1230,0.5748,-9.5801,-2.031,-0.7652,4.313,-0.5565
1235,0.6898,-9.5418,-2.3375,-0.8348,4.3826,-0.4174
1240,0.6898,-9.5418,-2.1459,-0.7652,4.5217,-0.487
1245,0.7664,-9.5801,-2.2226,-0.6957,4.5217,-0.3478
1250,0.7281,-9.5418,-2.1843,-0.6261,4.6609,-0.487
1255,0.6514,-9.5418,-2.2609,-0.6261,4.6609,-0.2783
1260,0.6898,-9.5801,-2.2226,-0.5565,4.8,-0.4174
1265,0.6898,-9.5418,-2.2609,-0.5565,4.9391,-0.4174
1270,0.6514,-9.4268,-2.2226,-0.6957,4.8696,-0.6261
1275,0.6898,-9.5801,-2.3759,-0.8348,4.9391,-0.487
1280,0.7664,-9.4268,-2.1843,-1.0435,5.0087,-0.6261
1285,1.3412,-9.5418,-1.6861,-1.113,4.9391,-0.487
1290,0.6514,-9.4651,-2.3375,-1.0435,5.0087,-0.6957
1295,0.7664,-9.6184,-2.2609,-1.0435,5.1478,-0.5565
1300,0.6131,-9.4268,-2.2609,-1.113,5.2174,-0.6957
1305,0.6131,-9.5034,-2.2992,-1.0435,5.2174,-0.6261
1310,0.6514,-9.4268,-2.3375,-0.9739,5.3565,-0.7652
1315,0.6131,-9.4651,-2.1459,-1.1826,5.4261,-0.5565
1320,0.6131,-9.5034,-2.2992,-1.2522,5.4261,-0.6261
1325,0.5748,-9.5034,-2.2609,-1.3913,5.4261,-0.4174
1330,0.6131,-9.5418,-2.4142,-1.6,5.2174,-0.487
1335,0.6131,-9.5418,-1.8011,-1.9478,5.1478,-0.3478
1340,0.6131,-9.4651,-2.3759,-2.087,5.0087,-0.487
1345,0.6898,-9.5801,-2.3759,-2.2957,4.9391,-0.1391
1350,0.6514,-9.6184,-2.2609,-2.2957,4.9391,-0.2087
1355,0.6131,-9.6184,-2.1076,-2.4348,4.9391,0.0
1360,0.6131,-9.5801,-2.2992,-2.2261,4.8696,-0.1391
1365,0.6131,-9.6184,-2.2226,-2.087,4.9391,0.0696
1370,0.8047,-9.5801,-2.2992,-1.8783,4.9391,0.0
1375,0.7281,-9.5801,-2.4142,-1.7391,4.9391,0.1391
1380,0.5748,-9.4651,-2.1843,-1.5304,5.0087,-0.0696
1385,0.4982,-9.7334,-2.1843,-1.4609,5.4261,0.0
1390,0.4215,-9.1586,-2.3375,-1.2522,5.6348,-0.2087
1395,0.9197,-9.5418,-2.2609,-1.2522,6.0522,-0.0696
1400,1.0346,-9.695,-2.1459,-1.4609,6.3304,-0.3478
1405,0.8814,-9.5418,-2.1843,-1.6,6.887,-0.3478
1410,0.9197,-9.695,-2.2226,-1.8087,7.6522,-0.6261
1415,0.8047,-9.5418,-2.1076,-1.8087,8.0696,-0.487
1420,0.8814,-9.6184,-2.0693,-1.6696,8.2087,-0.487
1425,0.8047,-9.5418,-2.1843,-1.6,8.1391,-0.3478
1430,0.8047,-9.6567,-2.1459,-1.3913,8.2087,-0.4174
1435,0.8047,-9.5801,-1.8394,-1.0435,8.487,-0.2783
1440,0.843,-9.5801,-2.0693,-0.6261,8.9043,-0.4174
1445,0.843,-9.5801,-1.8011,-0.2783,9.3217,-0.4174
1450,0.9197,-9.5418,-2.031,-0.0696,9.7391,-0.9043
1455,0.8047,-9.5801,-2.1843,0.0696,10.0174,-1.0435
1460,0.7664,-9.3885,-2.1459,-0.0696,10.1565,-1.2522
1465,0.8047,-9.5418,-2.1076,-0.4174,10.087,-1.1826
1470,0.6898,-9.5034,-2.031,-0.6957,10.1565,-1.3913
1475,0.6898,-9.5034,-2.0693,-1.0435,10.3652,-1.3217
1480,0.7664,-9.695,-2.2226,-1.113,10.713,-1.6
1485,0.6898,-9.695,-1.8777,-1.0435,10.9217,-1.5304
1490,0.7664,-9.6184,-1.8394,-0.5565,11.0609,-1.6
1495,0.6898,-9.5801,-1.8394,-0.1391,11.1304,-1.6696
1500,0.4982,-9.695,-1.7244,0.487,11.3391,-2.0174
1505,0.8047,-9.6567,-1.916,1.0435,11.687,-1.9478
1510,0.8814,-9.5418,-1.8777,1.5304,11.8261,-2.1565
1515,0.958,-9.6184,-1.8394,1.9478,12.1739,-2.0174
1520,0.9197,-9.5418,-1.9543,2.1565,12.5217,-2.3652
1525,0.8814,-9.5034,-1.916,2.1565,12.8,-2.4348
1530,0.958,-9.4651,-1.9543,1.7391,12.9391,-2.713
1535,0.843,-9.4651,-1.8394,1.2522,12.8696,-2.5739
1540,0.958,-9.4268,-1.8777,0.7652,12.8,-2.713
1545,0.9197,-9.2352,-1.8394,0.2783,12.7304,-2.5043
1550,0.8814,-9.3118,-1.6478,-0.2783,12.5217,-2.5043
1555,1.3795,-9.1586,-1.8777,-0.9043,12.313,-2.2957
1560,0.8814,-9.3118,-1.8011,-1.6696,12.1739,-2.2957
1565,0.5748,-9.1969,-1.916,-2.2261,11.9652,-1.9478
1570,0.6514,-9.3118,-1.8011,-2.713,11.687,-1.8783
1575,0.6131,-9.5034,-1.8777,-3.2,11.4087,-1.5304
1580,0.4598,-9.4651,-1.8394,-3.5478,11.2696,-1.4609
1585,0.5748,-9.6567,-1.8777,-3.7565,11.2696,-1.113
1590,0.4982,-9.6567,-1.9927,-3.9652,11.4783,-1.0435
1595,0.5365,-9.6567,-1.8394,-4.1739,11.6174,-0.6957
1600,0.5365,-9.5801,-1.9927,-4.4522,11.5478,-0.6957
1605,0.5365,-9.4651,-2.0693,-4.7304,11.5478,-0.4174
1610,0.6898,-9.925,-1.5711,-5.3565,11.4783,-0.4174
1615,0.5365,-9.695,-2.1076,-5.6348,11.5478,-0.0696
1620,0.6898,-9.6567,-2.2226,-5.8435,11.2,0.0
1625,0.6514,-9.6184,-2.1076,-6.0522,10.9217,0.3478
1630,0.7664,-9.695,-2.2226,-6.2609,10.8522,0.1391
1635,0.5748,-9.695,-2.3375,-6.4,10.713,0.4174
1640,0.6514,-9.6184,-2.3375,-6.7478,10.6435,0.2783
1645,0.6131,-9.6567,-2.4908,-7.0261,10.5739,0.487
1650,0.6898,-9.7334,-2.4908,-7.0261,10.2261,0.2783
1655,0.6131,-9.5034,-2.4525,-6.5391,10.0174,0.5565
1660,0.8047,-9.5801,-2.4908,-5.4261,9.8783,0.6261
1665,0.4215,-9.5801,-2.5291,-4.2435,9.9478,0.9739
1670,0.958,-9.4651,-2.4525,-2.9913,10.3652,0.9739
1675,1.0346,-9.4268,-2.4908,-1.7391,10.9913,1.3217
1680,1.1113,-9.3502,-2.4525,-0.4174,11.687,1.2522
1685,1.1879,-9.1969,-2.3375,0.8348,12.313,1.6696
1690,1.073,-9.0819,-2.4142,2.2261,12.5913,1.8783
1695,1.1879,-8.852,-2.3759,3.5478,12.8,2.5739
1700,1.2263,-8.852,-2.2609,4.4522,13.0087,3.1304
1705,1.2263,-8.5071,-2.2992,5.2174,13.1478,3.8957
1710,1.1113,-8.3538,-2.1843,5.5652,13.0783,4.2435
1715,0.958,-8.1622,-2.1843,5.8435,12.5913,5.0783
1720,0.6131,-7.9706,-2.2609,5.8435,11.9652,5.4957
1725,0.8047,-7.894,-1.8394,5.4957,11.0609,6.3304
1730,0.6898,-7.8557,-1.7244,5.1478,10.2957,6.8174
1735,0.6131,-7.779,-1.7244,4.5913,9.5304,7.513
1740,0.5365,-7.6641,-1.6095,3.9652,8.9043,7.5826
1745,0.6898,-7.7024,-1.8011,3.3391,8.1391,8.0
1750,0.5748,-7.5108,-1.6861,2.4348,7.4435,8.0696
1755,0.4215,-7.5874,-1.8777,1.0435,6.6783,8.1391
1760,0.3449,-7.4341,-1.916,-0.6261,5.4957,8.0
1765,0.2682,-7.2809,-2.1843,-2.5739,3.687,8.0
1770,0.2299,-7.2425,-2.2226,-4.7304,1.2522,7.513
1775,0.843,-6.7827,-2.8357,-6.887,-2.0174,7.1652
1780,-0.0383,-7.0126,-2.2992,-9.3913,-5.9826,6.4
1785,-0.1533,-6.7061,-2.4525,-12.1043,-10.087,5.8435
1790,-0.2299,-6.5528,-2.5291,-14.6783,-14.7478,4.5913
1795,-0.4215,-6.4761,-2.6824,-16.6261,-19.7565,3.5478
1800,-0.4982,-6.1313,-2.8357,-17.8783,-25.0435,1.5304
1805,-0.6131,-5.7864,-3.0273,-18.8522,-31.4435,-0.2087
1810,-0.6514,-5.6331,-2.9123,-19.4087,-36.5913,-2.1565
1815,-0.8814,-5.2882,-2.989,-19.9652,-40.7652,-3.8957
1820,-0.6514,-5.1732,-3.1806,-20.5913,-43.3391,-5.5652
1825,-0.0383,-4.79,-3.832,-21.0087,-43.8957,-6.7478
1830,-0.1916,-5.0583,-3.0273,-20.4522,-42.1565,-8.1391
1835,0.3066,-5.4032,-2.6058,-18.7826,-37.9826,-8.6957
1840,0.7664,-5.8247,-2.4908,-15.7217,-31.7913,-9.3217
1845,1.1879,-6.3612,-2.4142,-12.313,-24.4174,-9.3913
1850,1.7244,-6.8977,-2.2992,-9.0435,-14.8174,-9.2522
1855,2.031,-7.3958,-2.1843,-5.7739,-7.7217,-8.5565
1860,2.2226,-7.894,-2.1459,-3.4783,-2.2957,-8.1391
1865,2.3759,-8.5071,-2.2992,-1.1826,0.8348,-7.4435
1870,2.4908,-8.737,-2.4908,0.9739,2.2957,-6.6783
1875,2.4142,-8.852,-2.7591,2.0174,2.4348,-5.5652
1880,2.0693,-8.6221,-3.3722,1.6,1.6696,-4.9391
1885,1.8011,-8.7754,-3.4871,-1.5304,0.5565,-3.7565
1890,1.4562,-8.6604,-3.6021,-7.3043,-0.8348,-2.9217
1895,0.958,-8.8137,-3.6404,-14.5391,-2.4348,-1.8087
1900,0.4215,-9.2352,-3.2189,-21.913,-4.0348,-0.4174
1905,0.0,-9.695,-2.6441,-28.3826,-5.7043,0.9739
1910,-0.4215,-10.3848,-1.916,-29.7043,-7.3739,2.2261
1915,-0.6131,-11.4578,-0.9963,-26.3652,-8.2087,3.7565
1920,-0.6898,-12.5307,-0.3832,-18.8522,-8.3478,5.4957
1925,-0.3066,-14.1402,0.7281,-7.6522,-6.6087,8.1391
1930,0.3832,-15.7496,1.3412,7.1652,-2.713,10.713
1935,1.0346,-17.1292,1.6861,24.3478,2.6435,13.4957
1940,1.8394,-19.1985,2.3759,42.2957,8.6957,15.7913
1945,2.4142,-20.3864,2.0693,58.5739,14.887,17.6696
1950,3.0273,-21.3061,1.2646,71.9304,21.7043,17.6
1955,2.989,-21.8426,0.0766,76.1043,25.6,16.0
1960,3.0656,-22.0725,-0.7664,74.087,26.5739,12.3826
1965,2.7591,-22.5323,-1.4179,67.5478,25.6696,9.0435
1970,2.6441,-22.9539,-1.8011,60.5913,24.487,6.0522
1975,2.2226,-23.7586,-2.2992,55.8609,23.3043,2.5043
1980,1.7244,-24.5633,-2.4142,52.9391,23.0261,-1.0435
1985,1.6861,-25.5596,-2.1843,50.6435,25.5304,-2.0174
1990,1.1879,-26.5943,-1.9543,50.2957,30.1217,-2.5739
1995,1.8394,-27.2841,-1.8011,50.5043,36.3826,-4.313
2000,1.8011,-28.4337,-1.5328,49.0435,44.5217,-6.4
2005,1.8394,-29.5066,-1.2646,44.5913,49.2522,-8.4174
2010,1.8011,-30.2347,-0.9963,36.1043,49.6,-9.6
2015,1.6478,-31.0395,-0.958,23.513,44.1739,-10.0174
2020,1.2646,-31.8059,-0.8814,8.0,35.3391,-7.1652
2025,1.0346,-31.9975,-1.1496,-6.0522,25.9478,0.6957
2030,0.7664,-32.1124,-1.4945,-15.7913,16.4174,8.9739
2035,0.4982,-31.346,-1.6095,-18.0174,9.3913,16.6957
2040,-0.0766,-29.545,-1.9543,-9.5304,4.8,21.7043
2045,-0.2682,-26.7476,-2.4525,7.0957,1.6696,25.113
2050,-1.073,-23.7586,-2.4525,28.8,-2.5043,25.3217
2055,-1.6095,-20.0032,-2.4142,44.8,-6.6087,24.1391
2060,-1.6861,-15.9029,-2.6441,57.8783,-10.9217,20.9391
2065,-1.6095,-12.1092,-3.0656,70.1913,-13.9826,16.8348
2070,-1.4562,-9.0053,-4.1769,78.9565,-15.2348,10.3652
2075,-1.1113,-7.6257,-3.9853,74.713,-15.6522,1.5304
2080,-0.2682,-5.8247,-4.2536,60.0348,-13.5652,-6.2609
2085,0.4215,-4.5984,-3.3722,41.9478,-10.6435,-11.4087
2090,0.2682,-3.832,-3.1423,29.287,-7.9304,-15.7217
2095,0.7664,-2.0693,-2.5675,20.5913,-5.5652,-17.6696
2100,0.7664,-0.958,-2.3375,21.0087,-4.4522,-17.8783
2105,1.2646,0.4598,-2.8357,23.9304,-4.1043,-17.9478
2110,1.4179,0.9963,-3.9853,26.1565,-4.5217,-19.2
2115,1.3795,1.9543,-4.6368,20.9391,-4.7304,-19.4087
2120,0.7281,2.9507,-4.9816,11.3391,-4.2435,-18.1565
2125,0.6514,4.1003,-5.6331,1.3913,-2.9217,-14.7478
2130,1.3029,4.7134,-6.3995,-6.6087,-1.2522,-10.9913
2135,1.4945,5.3648,-7.2425,-13.2174,0.0696,-8.487
2140,0.9197,6.0929,-7.9323,-19.8261,0.0,-8.0
2145,0.3832,6.821,-8.9286,-26.2261,-1.113,-7.1652
2150,0.1916,7.0126,-9.8483,-33.113,-2.713,-5.5652
2155,-0.0766,6.7444,-10.0016,-39.3043,-4.313,-4.0348
2160,-0.6131,6.2079,-10.0782,-46.6087,-4.9391,-2.1565
2165,-1.2263,4.9816,-9.4651,-54.2609,-5.0087,0.0696
2170,-1.1879,3.1039,-7.9706,-63.2348,-5.2174,1.2522
2175,-0.6131,0.958,-6.0546,-73.1826,-5.0783,0.6957
2180,-0.115,-1.1879,-3.832,-79.7913,-2.6435,-2.2261
2185,0.1916,-2.989,-2.4525,-80.6261,2.8522,-5.0783
2190,0.5365,-5.6714,0.0383,-74.0174,10.4348,-6.4
2195,0.9197,-7.5108,1.5328,-58.5739,18.6435,-5.6348
2200,0.9197,-8.1622,1.9927,-30.1217,21.7043,-5.9826
2205,0.3449,-7.2809,1.7627,-1.8783,21.7739,-7.1652
2210,0.0,-5.6331,1.1879,24.6957,20.0348,-7.7913
2215,-0.3449,-3.7171,0.8047,47.0261,17.2522,-6.0522
2220,-0.843,-1.7244,0.5365,63.0261,14.3304,-3.1304
2225,-1.0346,-0.4215,0.4982,71.5826,11.8957,0.3478
2230,-1.3412,1.1879,0.6898,72.4174,9.7391,3.0609
2235,-1.4945,2.4908,0.843,65.5304,7.513,5.1478
2240,-1.5328,3.6404,1.2646,52.8696,5.7043,6.1913
2245,-1.2646,4.4452,1.2646,36.8,3.687,6.6087
2250,-1.2646,4.9433,1.3029,15.2348,1.3913,6.1217
2255,-1.4945,5.1349,1.3029,-1.7391,-1.9478,5.4957
2260,-0.9197,5.6714,0.8047,-16.1391,-6.2609,4.3826
2265,-0.9963,4.905,0.9963,-29.0783,-11.1304,3.2696
2270,-0.843,4.3302,0.1533,-41.8087,-15.513,1.8783
2275,-0.6131,3.832,-0.0383,-54.2609,-19.2,0.8348
2280,-0.3449,3.1039,-0.6898,-64.9739,-21.5652,-0.4174
2285,-0.0383,2.4525,-1.1879,-73.5304,-22.3304,-1.7391
2290,0.2299,1.7627,-1.3412,-79.7913,-21.1478,-3.687
2295,0.3449,1.2646,-1.7244,-84.2435,-17.4609,-4.8696
2300,0.5748,0.6514,-1.8394,-85.3565,-12.8,-5.9826
2305,0.8047,0.2682,-1.9543,-84.9391,-6.8174,-6.6783
2310,0.843,-0.2299,-2.1076,-83.0609,-0.1391,-6.7478
2315,1.0346,-0.5748,-2.8357,-79.4435,6.1913,-5.6348
2320,0.9197,-1.1879,-2.5675,-74.7826,11.7565,-3.8957
2325,0.9197,-1.6478,-2.7974,-68.3826,16.6957,-1.7391
2330,0.8814,-2.031,-3.0273,-59.4087,21.4261,-0.5565
2335,0.8814,-2.1459,-3.1423,-48.487,25.8783,0.0696
2340,0.6514,-2.2226,-2.9507,-36.2435,29.7043,-0.2087
2345,0.8047,-2.1459,-3.1423,-21.7043,32.5565,-0.1391
2350,0.5748,-2.1843,-2.9123,-10.4348,33.1826,-0.0696
2355,0.2682,-1.8394,-2.7974,-0.2087,32.0696,0.2783
2360,-0.0383,-1.5328,-2.7974,8.8348,29.9826,0.5565
2365,-0.115,-1.7627,-2.2992,16.5565,26.7826,0.7652
2370,-0.4215,-1.0346,-2.4142,21.7739,23.513,1.0435
2375,-0.5365,-0.6898,-2.4908,24.9739,20.5913,1.1826
2380,-0.5365,-0.5365,-2.4525,26.087,18.4348,1.6696
2385,-0.5365,-0.7281,-2.2609,25.7391,18.087,2.8522
2390,-0.2299,-1.1496,-2.1076,24.2087,19.4087,4.1043
2395,0.2682,-2.031,-1.9543,21.3565,24.2783,4.7304
2400,0.3449,-2.9123,-1.7627,19.2696,31.3739,4.4522
2405,0.4598,-4.1003,-1.7627,19.2,41.8087,4.8696
2410,0.7281,-5.0583,-0.7664,21.7043,54.887,6.6783
2415,1.4945,-6.5911,-0.9197,28.8696,68.4522,9.6
2420,2.3759,-8.5838,-0.3449,38.1913,79.3739,14.0522
2425,2.989,-11.1895,-0.6131,50.5739,87.7913,19.5478
2430,4.1003,-13.8336,-1.2263,61.6348,94.5391,24.1391
2435,4.5218,-16.8226,-2.0693,70.1913,98.9913,26.8522
2440,4.3302,-18.8919,-4.9433,73.8783,98.2957,25.8087
2445,3.5255,-19.6583,-8.8903,56.9043,92.313,23.5826
2450,2.4525,-19.8499,-10.4231,15.9304,81.5304,21.4957
2455,0.3832,-20.8846,-9.695,-35.4087,69.0087,20.1739
2460,-1.6861,-22.8772,-6.2845,-72.8348,57.5304,21.1478
2465,-2.7974,-25.598,-2.8357,-81.3217,43.8261,18.8522
2470,-0.6514,-28.5103,-0.0766,-66.087,31.513,13.6348
2475,1.9543,-30.1198,1.3029,-33.1826,30.1913,8.4174
2480,2.2226,-31.0778,0.2299,9.5304,39.3739,1.0435
2485,0.7281,-30.6179,-2.2609,43.2,50.5043,-4.4522
2490,-0.7664,-30.3497,-3.2189,52.1739,49.3217,-8.7652
2495,-1.9927,-30.4646,-2.5675,33.6,36.7304,-10.2261
2500,-2.5675,-31.7675,-0.1916,13.0783,23.0261,-9.2522
2505,-1.1879,-32.9171,2.1843,7.3043,13.2174,-2.2957
2510,-0.7281,-33.2237,2.4908,19.8957,5.7739,4.7304
2515,-0.1533,-31.8059,0.7281,41.4609,1.6,10.2957
2520,0.2682,-29.1234,-1.1113,60.5913,1.3217,11.8957
2525,0.5748,-27.0158,-1.8394,72.5565,4.5913,10.5043
2530,0.0766,-23.8352,-2.6058,79.5826,10.713,8.2783
2535,-0.0766,-21.4594,-2.4908,83.1304,17.8087,6.1217
2540,0.2299,-18.6237,-1.7244,82.7826,22.6783,2.8522
2545,0.3449,-16.3628,-0.9963,79.2348,20.6609,0.2783
2550,0.4982,-14.6,-0.4982,72.5565,13.913,-1.8087
2555,0.5748,-13.4888,-0.0766,61.2174,5.287,-2.2957
2560,1.1496,-12.7607,0.2682,45.1478,-2.7826,-2.2261
2565,1.5328,-12.7607,0.0383,27.2696,-8.2783,-1.8783
2570,1.5711,-12.9139,-0.0766,8.9739,-10.6435,-1.8783
2575,1.5711,-13.1822,-0.3066,-8.1391,-11.0609,-2.087
2580,0.4598,-13.5654,-0.3066,-22.6783,-10.5043,-3.0609
2585,0.8047,-13.6804,-0.2299,-32.7652,-9.6,-3.7565
2590,0.7664,-13.9486,-0.4982,-36.8,-8.3478,-4.0348
2595,0.3832,-14.0636,-0.6514,-35.0609,-7.3739,-4.1739
2600,0.4215,-13.757,-0.6514,-31.0261,-7.0957,-4.3826
2605,0.1533,-13.2971,-1.2263,-26.0174,-7.6522,-4.3826
2610,0.115,-12.3391,-1.4179,-22.3304,-8.9043,-4.7304
2615,0.2299,-11.4578,-1.6095,-21.0087,-11.2,-5.0087
2620,0.2682,-10.2698,-1.5711,-21.4957,-14.0522,-5.4957
2625,0.4215,-9.1586,-1.6861,-23.513,-17.0435,-5.7739
2630,0.2682,-7.779,-1.6861,-25.113,-19.3391,-6.8174
2635,0.3832,-6.3229,-1.916,-26.2261,-20.5913,-7.2348
2640,0.2682,-5.5564,-1.4945,-26.5739,-20.4522,-7.7913
2645,0.3449,-4.6751,-1.4179,-26.4348,-19.4783,-8.4174
2650,0.2299,-3.8704,-1.4562,-26.5043,-17.5304,-9.3217
2655,0.3066,-3.1806,-1.4179,-27.2,-15.1652,-9.6
2660,0.4598,-2.9123,-1.3412,-28.2435,-12.3826,-9.7391
2665,0.3066,-2.5291,-1.4179,-29.7043,-9.6,-9.8087
2670,0.2299,-2.4908,-1.4179,-31.3739,-7.0261,-9.3217
2675,0.3066,-2.5675,-1.6861,-33.3217,-4.9391,-8.0
2680,0.3449,-2.6058,-1.4945,-36.0348,-3.7565,-6.4
2685,0.4982,-2.7207,-1.4562,-38.7478,-3.4783,-4.5217
2690,0.843,-2.874,-1.6095,-41.0435,-3.687,-2.9913
2695,0.4982,-3.2572,-1.4179,-41.8087,-4.1043,-1.3217
2700,0.4982,-3.4488,-1.7627,-41.4609,-4.5217,-0.5565
2705,0.6131,-4.0236,-1.9543,-40.9043,-4.4522,0.3478
2710,0.6514,-4.5218,-2.3375,-40.6957,-4.3826,1.4609
2715,0.5748,-4.9433,-2.2992,-40.2783,-4.313,2.2957
2720,0.5748,-5.6331,-2.7591,-39.4435,-4.5913,3.1304
2725,0.7664,-6.1696,-3.1039,-38.4,-5.2174,4.1739
2730,0.6898,-6.5145,-3.2955,-37.0783,-5.9826,5.3565
2735,0.9197,-7.2425,-3.6787,-36.2435,-7.0957,6.8174
2740,0.7664,-7.6257,-4.2152,-36.0348,-7.6522,7.3043
2745,0.7664,-8.3921,-4.5984,-36.4522,-7.4435,7.7217
2750,0.6131,-8.6987,-4.4068,-35.8957,-6.4696,7.7913
2755,0.4215,-9.0436,-4.6751,-34.2957,-5.0087,7.6522
2760,0.3832,-9.6184,-4.4068,-31.9304,-3.3391,7.0957
2765,0.2299,-9.8866,-3.947,-28.1043,-1.8783,6.887
2770,0.1533,-10.4614,-3.6021,-22.3304,-0.9739,6.3304
2775,-0.0383,-10.883,-3.1806,-15.4435,-0.487,5.7043
2780,0.0,-11.1895,-2.6824,-7.5826,-0.2087,5.0087
2785,0.0766,-11.3428,-2.4525,0.9043,-0.6261,4.2435
2790,-0.0383,-11.3428,-2.2609,11.4783,-1.3217,3.4783
2795,-0.0766,-11.2279,-1.7627,19.7565,-2.087,2.7826
2800,0.0383,-11.6494,-0.6514,27.2696,-2.9913,2.1565
2805,0.2299,-11.3428,-1.073,33.5304,-3.5478,1.6696
2810,0.4598,-11.2279,-1.073,38.2609,-3.7565,1.3217
2815,0.6898,-10.883,-0.958,41.113,-3.9652,1.113
2820,0.6514,-10.6147,-0.6898,42.3652,-3.8957,0.8348
2825,0.7281,-10.1932,-0.6898,42.4348,-3.9652,0.9043
2830,0.8814,-10.2698,-0.5748,42.0174,-4.1043,0.6957
2835,0.8814,-9.81,-0.843,40.9739,-4.3826,0.487
2840,0.843,-9.695,-0.7664,38.6087,-4.5913,0.3478
2845,0.8814,-9.4651,-0.6898,35.5478,-4.8,0.1391
2850,0.9197,-9.1969,-0.7664,31.6522,-4.7304,-0.2087
2855,0.8047,-9.3118,-0.843,27.2,-4.3826,0.0
2860,0.8047,-9.3118,-0.9197,22.4696,-4.1739,-0.0696
2865,0.6898,-9.4268,-0.9197,17.6,-4.0348,-0.1391
2870,0.6514,-9.5418,-1.0346,12.7304,-4.2435,-0.4174
2875,0.7281,-9.5801,-1.0346,8.2087,-4.8,-0.5565
2880,0.7664,-9.695,-1.073,4.4522,-5.3565,-0.8348
2885,0.6898,-9.7334,-1.2263,1.3217,-5.7043,-1.113
2890,0.7281,-9.81,-1.1496,-1.6,-5.6348,-1.2522
2895,0.6898,-9.8483,-0.9963,-2.713,-5.287,-1.3217
2900,0.8047,-10.0016,-1.1496,-2.8522,-4.8696,-1.4609
2905,1.3795,-10.0016,-0.958,-1.8783,-4.2435,-1.3913
2910,0.8814,-9.81,-1.3795,-0.5565,-3.6174,-1.3217
2915,0.9197,-9.6567,-1.2646,0.4174,-2.7826,-0.8348
2920,0.9197,-9.5034,-1.4945,1.0435,-1.8087,-0.3478
2925,0.6898,-9.2735,-1.5328,1.8087,-0.5565,0.2783
2930,0.6514,-9.1586,-1.5711,2.2957,0.7652,0.8348
2935,0.5365,-9.0819,-1.4945,2.6435,2.0174,1.3913
2940,0.5365,-9.0436,-1.6478,2.713,2.713,1.8783
2945,0.4982,-8.9286,-1.4945,2.6435,2.9217,2.3652
2950,0.5748,-8.9286,-1.6095,2.7826,2.9913,2.7826
2955,0.3449,-8.852,-1.6478,3.0609,3.1304,3.1304
2960,0.0766,-8.9286,-1.6478,3.4087,3.4783,3.2
2965,0.4215,-8.7754,-1.6478,3.6174,4.1739,3.3391
2970,0.4598,-8.8903,-1.6861,3.687,5.1478,3.2696
2975,0.5365,-8.8903,-1.7627,3.8261,6.1913,3.4087
2980,0.4215,-8.8903,-1.7244,3.8957,7.2348,3.2696
2985,0.5748,-9.0053,-1.6095,3.7565,8.487,3.0609
2990,0.5365,-9.1202,-1.7244,3.4783,9.3217,2.6435
2995,0.5748,-9.1202,-1.7244,3.2,9.7391,2.3652
