timestamp,accX,accY,accZ,gyroX,gyroY,gyroZ
0,0.4598,0.1533,-9.8866,10.713,-2.0174,3.4783
5,0.3066,0.2299,-9.6567,10.9217,-2.3652,3.7565
10,0.4598,0.3832,-9.6567,10.7826,-2.713,3.8957
15,0.4598,0.3832,-9.8483,10.2957,-3.0609,4.0348
20,0.2299,0.3449,-9.7717,9.4609,-2.9913,3.8261
25,0.5748,0.2682,-9.4651,8.5565,-2.2261,3.7565
30,0.5748,0.2299,-9.695,7.9304,-1.3217,3.6174
35,0.6514,0.2682,-9.7334,7.8609,-0.3478,3.4087
40,0.5365,0.115,-9.8483,8.1391,0.2783,3.1304
45,0.5365,0.2299,-9.8866,8.487,0.3478,2.713
50,0.4982,0.1916,-9.695,9.113,0.3478,2.2957
55,0.4982,0.1916,-10.0016,9.9478,0.2087,2.0174
60,0.3449,0.3066,-9.6567,11.1304,0.0696,1.8783
65,0.3832,0.1916,-9.8483,11.687,-0.2087,1.7391
70,0.3832,0.1916,-9.81,11.8957,-0.3478,1.6
75,0.4598,0.3066,-9.8866,11.687,-0.2087,1.3913
80,0.4215,0.3066,-9.8483,10.8522,0.2087,1.5304
85,0.3832,0.2682,-9.81,9.6696,0.487,1.5304
90,0.5365,0.1533,-9.7334,8.5565,0.6957,1.6
95,0.4598,0.3066,-9.6184,7.6522,0.7652,1.7391
100,0.4598,0.3066,-9.5034,7.0261,0.6957,1.8087
105,0.4982,0.4215,-9.4651,6.4,0.5565,2.1565
110,0.4598,0.1916,-9.81,5.6348,0.2087,2.2957
115,0.5365,0.3066,-9.81,4.5913,-0.0696,2.3652
120,0.4598,0.3449,-10.0399,3.6174,-0.2783,2.4348
125,0.4215,0.2682,-9.8866,2.9913,-0.5565,2.2261
130,0.2682,0.3066,-10.0016,2.7826,-0.9043,1.9478
135,0.3066,0.115,-9.8866,3.1304,-1.4609,1.6696
140,0.3449,0.2299,-9.8866,3.8261,-1.8783,1.3217
145,0.4215,0.0766,-10.0016,4.7304,-2.087,1.113
150,0.4215,0.0766,-10.0016,5.7043,-2.3652,0.7652
155,0.4215,0.115,-10.0016,6.4696,-2.5043,0.5565
160,0.6514,0.0766,-10.1549,7.0957,-2.7826,0.2087
165,0.5365,0.0766,-9.925,7.6522,-3.0609,-0.0696
170,0.4598,0.1533,-9.9633,8.2087,-3.4783,-0.5565
175,0.5748,0.0383,-9.925,8.9043,-4.0348,-1.1826
180,0.6131,0.0766,-9.925,9.6696,-4.313,-1.7391
185,0.4982,0.115,-9.925,10.7826,-4.3826,-2.0174
190,0.5365,0.1916,-9.8483,11.8261,-4.8696,-2.3652
195,0.5748,0.2682,-9.695,12.5913,-5.0087,-2.8522
200,0.4982,0.1916,-9.81,12.8696,-4.6609,-3.1304
205,0.4598,0.1916,-9.81,12.5217,-3.9652,-3.2
210,0.3832,0.1916,-9.7717,11.7565,-3.2,-3.3391
215,0.4215,0.1916,-9.8483,10.6435,-2.2261,-3.4087
220,0.3449,0.0766,-9.8866,9.5304,-1.1826,-3.3391
225,0.3832,0.0766,-9.7334,8.8348,0.0696,-3.0609
230,0.4598,0.0,-9.5418,8.2783,1.3913,-2.7826
235,0.4215,0.1533,-9.5801,7.513,2.4348,-2.5739
240,0.3832,0.1916,-9.7717,6.7478,2.6435,-2.5043
245,0.4215,0.0766,-9.695,6.1913,2.7826,-2.5043
250,0.3832,0.0383,-9.7334,5.7739,2.6435,-2.6435
255,0.4982,0.115,-9.695,5.3565,2.5739,-2.6435
260,0.4215,0.0383,-9.6184,5.0087,2.4348,-2.713
265,0.4215,0.0766,-9.695,5.0087,2.087,-2.8522
270,0.4982,0.0,-9.8483,5.287,1.6696,-2.9217
275,0.3066,0.0766,-9.7717,5.7043,1.113,-2.9217
280,0.4598,0.0383,-9.7717,6.1217,0.4174,-2.713
285,0.4598,0.0,-9.8483,6.2609,-0.3478,-2.8522
290,0.2682,0.0,-9.9633,6.1913,-1.1826,-2.713
295,0.3832,0.0766,-9.8483,6.1913,-2.0174,-2.5043
300,0.4982,0.0,-9.925,6.4696,-2.6435,-2.2957
305,0.4215,0.0,-9.7334,6.8174,-2.7826,-2.087
310,0.4215,0.0383,-9.8866,7.0957,-2.7826,-1.8783
315,0.4982,0.0383,-9.925,7.0261,-2.5739,-1.8783
320,0.6131,0.0,-9.8483,6.8174,-2.2957,-1.6696
325,0.6131,0.0,-9.8483,6.4696,-1.8783,-1.6696
330,0.6131,0.0766,-9.7717,6.0522,-1.4609,-1.4609
335,0.6514,0.0383,-9.6567,5.5652,-0.9739,-1.3217
340,0.7664,0.115,-9.8866,5.0783,-0.2783,-1.3217
345,0.7281,0.0766,-9.8483,4.5217,0.1391,-1.2522
350,0.6898,0.0,-9.7717,4.313,0.6261,-1.113
355,0.6514,0.0383,-9.8866,4.1739,0.7652,-1.0435
360,0.6131,0.0,-9.925,4.313,0.9739,-0.9043
365,0.4215,0.0383,-9.8866,4.5913,0.8348,-0.9043
370,0.4598,0.0,-9.8866,4.9391,0.487,-0.6957
375,0.4598,-0.0766,-9.7717,5.2174,0.2087,-0.7652
380,0.4982,0.0,-9.81,5.4957,-0.2087,-0.6261
385,0.4598,-0.0766,-9.695,5.6348,-0.3478,-0.5565
390,0.5748,0.0,-9.8866,5.5652,-0.5565,-0.487
395,0.2299,0.0383,-9.9633,5.7043,-0.7652,-0.6261
400,0.4215,0.0383,-9.7334,5.5652,-1.2522,-0.7652
405,0.4215,0.1533,-9.695,5.7043,-1.8087,-0.9043
410,0.4598,0.0383,-9.81,5.6348,-2.4348,-1.3217
415,0.4598,0.0,-9.8483,5.6348,-3.1304,-1.6696
420,0.4598,0.0,-9.695,5.5652,-3.4783,-2.0174
425,0.3832,0.0,-9.81,5.5652,-3.8261,-2.2957
430,0.3066,-0.0766,-9.7334,5.6348,-4.1043,-2.3652
435,0.4598,0.0,-9.925,5.913,-4.1739,-2.5043
440,0.2682,0.0383,-9.6567,5.9826,-4.3826,-2.713
445,0.3066,0.0766,-9.5418,6.0522,-4.2435,-2.7826
450,0.2682,0.0383,-9.925,6.1217,-4.1043,-3.1304
455,0.3832,0.0,-9.7717,6.0522,-4.1739,-3.4087
460,0.3832,0.0383,-9.81,5.913,-4.1739,-3.8261
465,0.5365,0.0,-9.8483,5.8435,-4.313,-3.7565
470,0.3832,0.0383,-9.7717,5.7739,-4.1739,-3.9652
475,0.4982,0.0766,-9.81,5.7739,-3.8957,-4.1739
480,0.4215,0.0,-9.8866,5.7739,-3.687,-4.0348
485,0.4982,0.115,-9.7717,5.8435,-3.4087,-3.9652
490,0.4982,0.0383,-9.7334,6.0522,-3.0609,-3.9652
495,0.4215,0.0,-9.7717,6.1217,-2.5739,-3.7565
500,0.4598,0.0766,-10.0399,6.0522,-2.1565,-3.8261
505,0.4215,0.0383,-9.925,5.8435,-1.8783,-3.9652
510,0.3066,0.0383,-9.695,5.7043,-1.2522,-3.8957
515,0.3066,0.0383,-9.81,5.5652,-0.7652,-3.9652
520,0.2682,0.0383,-9.81,5.0087,-0.2087,-3.8261
525,0.3066,0.0,-9.695,4.313,0.2783,-3.8261
530,0.4598,0.0,-9.7717,3.4087,0.6261,-3.6174
535,0.3832,0.0,-9.7717,2.713,0.7652,-3.3391
540,0.3832,0.0383,-9.925,1.7391,0.8348,-2.9913
545,0.4598,-0.0383,-9.8866,1.0435,0.6957,-2.5739
550,0.3832,-0.0766,-9.8866,0.6957,0.6261,-2.2957
555,0.2682,-0.1533,-10.0016,0.6957,0.2783,-2.087
560,0.5365,-0.115,-9.8866,0.6261,0.2087,-1.9478
565,0.4982,-0.0383,-9.925,0.9739,0.2087,-1.8087
570,0.6131,0.0,-9.925,1.3913,0.3478,-1.6696
575,0.4982,0.0,-9.8483,1.9478,0.487,-1.6
580,0.4598,0.0,-9.925,2.5739,0.6261,-1.6
585,0.5365,-0.0383,-9.81,2.9913,0.6261,-1.7391
590,0.5365,-0.115,-9.8866,3.3391,0.6261,-1.7391
595,0.4215,0.115,-9.8483,3.4087,0.5565,-1.7391
600,0.3832,0.0,-9.7717,3.4783,0.5565,-1.6696
605,0.3832,0.0,-9.7334,3.5478,0.3478,-1.6
610,0.3832,0.0,-9.5418,3.7565,0.2783,-1.6
615,0.2299,-0.115,-9.81,4.0348,0.2087,-1.4609
620,0.2682,0.0,-9.8483,4.313,0.1391,-1.5304
625,0.1916,-0.1916,-9.7717,4.8,0.0696,-1.3913
630,0.1533,0.0,-9.81,5.287,-0.0696,-1.4609
635,0.2299,-0.1916,-9.7717,5.6348,0.1391,-1.3913
640,0.1916,0.0383,-9.6184,5.8435,0.3478,-1.3913
645,0.3832,0.0,-9.81,5.9826,0.6261,-1.5304
650,0.2682,0.0,-9.7334,6.1217,0.8348,-1.7391
655,0.3066,0.0,-9.925,6.1913,1.0435,-1.6696
660,0.3832,0.0383,-9.81,6.2609,1.113,-1.6696
665,0.3449,0.0,-9.81,6.3304,1.1826,-1.6696
670,0.4215,-0.0766,-9.8483,6.6087,1.0435,-1.6
675,0.4215,-0.0383,-9.925,6.887,0.9043,-1.3913
680,0.2682,0.0383,-10.0782,7.2348,0.4174,-1.3913
685,0.3832,-0.0383,-10.0016,7.5826,0.2783,-1.3217
690,0.3832,-0.0766,-10.1166,7.9304,-0.0696,-1.2522
695,0.4215,-0.0383,-10.0399,8.3478,-0.2783,-1.3217
700,0.3066,-0.0383,-9.8866,8.6957,-0.5565,-1.113
705,0.3832,0.0766,-9.9633,8.9739,-0.6261,-1.113
710,0.3832,-0.115,-10.0782,8.9043,-0.9043,-1.3913
715,0.4215,-0.0766,-9.8483,8.7652,-0.7652,-1.4609
720,0.2299,0.0383,-10.0782,8.5565,-0.9739,-1.5304
725,0.3832,-0.0766,-10.0782,8.4174,-1.0435,-1.6
730,0.4598,0.0,-9.81,8.3478,-1.2522,-1.6
735,0.3449,-0.0766,-10.0399,8.487,-1.6696,-1.6696
740,0.3066,-0.0766,-9.925,8.9043,-2.0174,-1.6696
745,0.2682,-0.2299,-9.81,9.3913,-2.5043,-1.5304
750,0.1916,-0.2682,-9.8866,10.2261,-2.9217,-1.3913
755,0.2299,-0.3449,-9.9633,10.7826,-3.4783,-1.5304
760,0.2299,-0.1533,-9.81,11.4087,-4.1043,-1.7391
765,0.2299,-0.0383,-9.925,11.6174,-4.7304,-2.0174
770,0.2299,-0.0766,-9.8866,11.8957,-5.5652,-2.2261
775,0.2682,-0.0383,-9.7334,11.9652,-6.5391,-2.3652
780,0.3066,0.0,-9.5801,12.1043,-7.3043,-2.5043
785,0.2299,-0.0383,-9.5418,11.9652,-7.2348,-2.5043
790,0.4982,-0.0383,-9.6184,11.4783,-7.3043,-2.5739
795,0.2682,-0.0766,-9.7334,10.7826,-7.0261,-2.4348
800,0.4215,-0.2299,-9.81,10.0174,-6.6087,-2.4348
805,0.2299,-0.0766,-9.695,9.3217,-5.8435,-2.4348
810,0.3832,-0.0766,-9.8483,9.0435,-4.9391,-2.2957
815,0.3066,-0.1916,-9.8866,8.9043,-3.687,-2.1565
820,0.5365,-0.115,-9.81,9.113,-2.713,-2.087
825,0.2682,-0.1533,-9.8866,9.1826,-2.0174,-1.9478
830,0.3066,-0.1916,-9.8866,9.3217,-1.8783,-1.9478
835,0.3066,-0.1533,-10.0016,8.9739,-1.8087,-1.7391
840,0.2299,-0.1916,-10.0016,8.6261,-1.8087,-1.6
845,0.3066,-0.2299,-10.0016,8.487,-1.8783,-1.3913
850,0.2682,-0.3066,-9.8483,8.3478,-2.0174,-1.113
855,0.2299,-0.2682,-9.925,8.487,-2.2957,-0.9043
860,0.1916,-0.2682,-9.8866,8.6957,-2.3652,-0.6261
865,0.2299,-0.1533,-9.81,9.0435,-2.3652,-0.3478
870,0.1916,-0.2682,-9.8483,9.3217,-2.2957,-0.1391
875,0.2299,-0.3066,-10.0016,9.3217,-2.087,0.2087
880,0.2299,-0.3066,-9.8483,9.5304,-1.8783,0.4174
885,0.3066,-0.2299,-10.0016,9.6,-1.6,0.6261
890,0.3066,-0.3066,-9.81,9.8783,-1.3217,0.8348
895,0.2682,-0.2299,-9.9633,9.8087,-1.1826,0.9739
900,0.2682,-0.4982,-9.8483,9.7391,-0.9043,1.1826
905,0.3066,-0.3066,-9.81,9.8087,-0.9739,1.3913
910,0.2299,-0.2682,-9.7717,9.7391,-0.5565,1.7391
915,0.1916,-0.3449,-9.8483,9.7391,-0.3478,1.6
920,0.1916,-0.3832,-9.6184,9.6,-0.4174,1.5304
925,0.3449,-0.2682,-9.4651,9.1826,-0.7652,1.5304
930,0.3832,-0.3066,-9.4268,8.9739,-0.9739,1.7391
935,0.1533,-0.2299,-9.6567,8.6957,-0.9043,1.7391
940,0.115,-0.115,-9.5801,8.1391,-0.7652,1.6696
945,0.3832,-0.2682,-9.7334,7.3739,-0.2783,1.7391
950,0.2682,-0.2299,-9.6567,6.5391,0.2087,1.6
955,0.2299,-0.2299,-9.6567,5.8435,0.6957,1.6
960,0.3832,-0.3449,-9.7717,5.4957,0.9739,1.3913
965,0.2682,-0.4215,-9.7717,5.2174,1.113,1.113
970,0.3066,-0.3066,-9.925,5.287,1.113,0.9739
975,0.1533,-0.4215,-9.8483,5.4261,0.9043,1.0435
980,0.3449,-0.4598,-9.8866,5.4261,0.9739,0.9043
985,0.115,-0.2299,-9.7717,5.5652,1.0435,1.113
990,0.2299,-0.2299,-9.8866,5.4957,1.113,1.0435
995,0.2682,-0.3449,-9.8483,5.4957,1.1826,1.3217
1000,0.1533,-0.3449,-9.81,5.5652,1.0435,1.5304
1005,0.1533,-0.3832,-9.925,5.4957,0.9739,1.5304
1010,0.2299,-0.3449,-9.7334,5.287,0.8348,1.5304
1015,0.2299,-0.2299,-9.7717,5.0783,0.6261,1.5304
1020,0.115,-0.1916,-9.81,4.9391,0.5565,1.4609
1025,0.3449,-0.2682,-9.8866,4.6609,0.487,1.4609
1030,0.1916,-0.3066,-9.8483,4.5217,0.4174,1.3217
1035,0.3449,-0.7664,-9.7717,4.5217,0.4174,1.4609
1040,0.2299,-0.3832,-9.81,4.3826,0.4174,1.5304
1045,0.1916,-0.3832,-9.7717,4.4522,0.487,1.3913
1050,0.2299,-0.5365,-9.8866,4.6609,0.487,1.4609
1055,0.1916,-0.4598,-9.695,5.1478,0.3478,1.4609
1060,0.115,-0.5365,-9.81,5.287,0.1391,1.3913
1065,0.115,-0.4982,-9.7717,5.5652,-0.0696,0.9739
1070,0.1533,-0.4982,-9.7334,5.8435,-0.1391,0.8348
1075,0.1533,-0.3066,-9.7334,5.9826,-0.0696,0.6957
1080,0.1533,-0.3066,-9.9633,5.9826,-0.0696,0.6261
1085,0.1533,-0.3449,-9.7334,5.6348,-0.1391,0.6261
1090,0.0766,-0.4598,-9.8866,5.0783,0.0,0.6261
1095,0.3066,-0.4215,-9.7717,4.6609,0.0696,0.5565
1100,0.3066,-0.4215,-9.925,4.1739,0.2087,0.6957
1105,0.2682,-0.3066,-9.8483,3.7565,0.2087,0.6957
1110,0.3449,-0.3832,-9.7334,3.5478,0.3478,0.7652
1115,0.2682,-0.4215,-9.81,3.4783,0.487,0.6957
1120,0.3066,-0.4598,-9.81,3.4087,0.6957,0.7652
1125,0.3449,-0.2682,-9.8483,3.2696,0.9739,0.8348
1130,0.3832,-0.4215,-9.81,3.1304,1.3217,0.9043
1135,0.2299,-0.3449,-9.9633,2.9217,1.5304,0.7652
1140,0.2299,-0.5365,-9.81,2.6435,1.5304,0.6261
1145,0.115,-0.1916,-9.9633,2.5043,1.4609,0.6261
1150,0.3066,-0.4982,-9.81,2.3652,1.3913,0.5565
1155,0.2299,-0.4598,-10.0016,2.4348,1.1826,0.3478
1160,0.3449,-0.4598,-9.7717,2.6435,1.113,0.2783
1165,0.2682,-0.4982,-10.0016,2.9913,1.0435,0.1391
1170,0.2682,-0.4215,-9.8866,3.4783,1.113,0.0696
1175,0.1533,-0.5365,-9.8483,3.8957,1.113,0.0696
1180,0.115,-0.3449,-9.81,4.2435,0.9739,0.0696
1185,0.1916,-0.2682,-9.7717,4.6609,1.0435,-0.0696
1190,0.2299,-0.3832,-9.8483,5.0087,1.0435,-0.1391
1195,-0.0383,-0.2299,-9.7334,5.1478,0.9043,-0.487
1200,0.1533,-0.3832,-9.6567,5.2174,0.9043,-0.487
1205,0.1533,-0.3832,-9.8483,5.0783,0.8348,-0.4174
1210,0.0766,-0.3449,-9.8866,5.0783,0.8348,-0.3478
1215,0.2299,-0.4215,-9.8483,5.1478,0.8348,-0.3478
1220,0.0766,-0.3066,-9.695,5.0783,0.6261,-0.3478
1225,0.2299,-0.3449,-9.7334,4.9391,0.3478,-0.2087
1230,0.3066,-0.3832,-9.8483,4.8,0.2087,-0.2087
1235,0.1916,-0.3832,-9.925,4.7304,0.1391,-0.3478
1240,0.1916,-0.2299,-9.6567,4.6609,0.1391,-0.2087
1245,0.2299,-0.4982,-9.925,4.5217,0.2087,-0.2087
1250,0.1533,-0.3066,-9.925,4.4522,0.2783,-0.1391
1255,0.1533,-0.4598,-9.81,4.6609,0.2783,-0.0696
1260,0.1916,-0.4598,-9.9633,4.8,0.2087,0.0
1265,0.2299,-0.3832,-10.0399,5.0087,0.2087,0.2087
1270,0.2299,-0.4598,-9.925,4.8,0.3478,0.0
1275,0.2299,-0.3832,-9.7334,4.5217,0.4174,-0.2087
1280,0.115,-0.3066,-9.81,4.2435,0.487,-0.2783
1285,0.1533,-0.4598,-9.7334,4.0348,0.6957,-0.5565
1290,0.1916,-0.4215,-9.7717,3.9652,1.0435,-0.8348
1295,0.1533,-0.5365,-9.7717,3.8957,1.2522,-0.9043
1300,0.3066,-0.6131,-9.5801,3.8957,1.4609,-1.113
1305,0.1916,-0.3832,-9.81,3.9652,1.6696,-1.113
1310,0.0766,-0.3449,-9.7334,3.8957,1.8087,-0.9739
1315,0.0383,-0.4598,-9.7717,3.7565,2.0174,-0.9043
1320,0.1916,-0.4982,-9.81,3.5478,2.0174,-0.9043
1325,0.1533,-0.4215,-10.0016,3.3391,1.9478,-0.8348
1330,0.115,-0.4598,-9.81,3.0609,1.6696,-0.7652
1335,0.0766,-0.4982,-9.7717,2.8522,1.3217,-0.6957
1340,0.115,-0.4598,-9.8866,2.713,1.0435,-0.8348
1345,0.0766,-0.5365,-9.81,2.5739,0.6261,-0.6957
1350,0.3066,-0.3449,-9.8483,2.5739,0.3478,-0.8348
1355,0.0,-0.7281,-9.8866,2.713,0.1391,-0.8348
1360,0.1916,-0.4215,-9.925,2.9913,0.0696,-0.8348
1365,0.115,-0.4215,-9.7717,3.2696,-0.0696,-0.9043
1370,0.2299,-0.4982,-9.8483,3.6174,-0.0696,-0.8348
1375,0.2682,-0.4598,-9.925,3.8957,-0.0696,-0.7652
1380,0.2299,-0.4598,-9.7334,4.2435,-0.0696,-0.6957
1385,0.1916,-0.4598,-9.7717,4.4522,-0.0696,-0.7652
1390,0.115,-0.3832,-9.8483,4.6609,0.0,-0.7652
1395,0.2682,-0.3832,-9.8483,4.8,0.2087,-0.7652
1400,0.2299,-0.5365,-9.9633,4.9391,0.1391,-0.6957
1405,0.2299,-0.4982,-9.925,5.0783,0.1391,-0.5565
1410,0.2299,-0.6131,-9.925,5.0783,0.3478,-0.6261
1415,0.115,-0.3449,-9.81,5.1478,0.2783,-0.487
1420,0.115,-0.3832,-9.925,5.0783,0.4174,-0.4174
1425,0.1533,-0.4215,-9.8866,5.1478,0.3478,-0.487
1430,0.2299,-0.4215,-9.925,5.3565,0.4174,-0.2783
1435,0.1916,-0.3066,-9.8483,5.5652,0.5565,-0.2087
1440,0.2682,-0.5365,-9.8866,5.6348,0.6261,-0.3478
1445,0.115,-0.3066,-9.81,5.287,0.8348,-0.2087
1450,0.115,-0.5748,-9.81,4.8696,1.0435,-0.1391
1455,0.1916,-0.3832,-10.0016,4.3826,1.1826,0.0696
1460,0.1533,-0.4982,-9.8483,4.0348,1.2522,0.1391
1465,0.1916,-0.4598,-9.81,3.8957,1.3217,0.2087
1470,0.1533,-0.4598,-9.8866,3.8957,1.3217,0.2087
1475,0.0766,-0.3832,-9.8483,3.9652,1.1826,0.0696
1480,0.0766,-0.3832,-9.8866,3.9652,0.9043,-0.2783
1485,0.115,-0.3449,-9.8866,4.1043,0.7652,-0.2783
1490,0.1533,-0.3832,-9.7334,4.0348,0.6957,-0.4174
1495,0.1916,-0.4215,-9.8483,4.0348,0.6261,-0.487
1500,0.1916,-0.5748,-9.81,4.0348,0.5565,-0.5565
1505,0.0,-0.4598,-9.8483,4.1043,0.3478,-0.6957
1510,0.0383,-0.3066,-9.8483,4.3826,0.1391,-0.6261
1515,0.0,-0.2299,-10.1932,4.7304,-0.2783,-0.487
1520,0.0,-0.3832,-10.0016,4.9391,-0.8348,-0.2783
1525,0.115,-0.3832,-9.9633,5.0783,-1.4609,-0.3478
1530,0.115,-0.3832,-9.8866,5.1478,-1.8783,-0.4174
1535,0.0,-0.3832,-10.0016,5.3565,-2.1565,-0.4174
1540,0.0,-0.4982,-9.8483,6.2609,-2.1565,-0.487
1545,-0.0383,-0.5748,-10.0016,7.3739,-1.9478,-0.5565
1550,0.0,-0.4982,-9.8483,8.7652,-1.6,-0.6261
1555,0.0766,-0.5748,-10.1166,10.1565,-1.3913,-0.6261
1560,-0.0383,-0.6131,-10.0399,11.687,-1.4609,-0.487
1565,0.1533,-0.5748,-10.0782,13.0783,-1.7391,-0.5565
1570,0.115,-0.5748,-10.0016,14.4,-1.8783,-0.7652
1575,0.2682,-0.5365,-10.1166,15.5826,-2.1565,-0.8348
1580,0.1916,-0.3832,-10.0399,16.6261,-2.3652,-1.113
1585,0.2682,-0.5365,-10.0016,17.3217,-2.8522,-1.0435
1590,0.0,-0.4598,-10.0399,18.087,-3.4087,-1.1826
1595,0.1916,-0.4982,-9.8866,18.5739,-4.313,-0.7652
1600,0.0,-0.4215,-10.0016,18.9913,-4.7304,-0.2783
1605,0.0383,-0.3449,-9.8483,19.4087,-5.0087,0.0696
1610,0.0,-0.2299,-9.6184,19.687,-5.0783,0.2087
1615,0.0766,-0.1916,-9.6567,19.9652,-5.0783,0.1391
1620,0.2299,-0.3066,-9.7334,19.687,-4.8696,0.1391
1625,0.1533,-0.3449,-9.81,19.2696,-4.6609,0.2087
1630,-0.0766,-0.3449,-9.6567,18.3652,-4.5217,0.0696
1635,-0.0383,-0.4598,-9.81,17.4609,-4.313,-0.0696
1640,-0.0766,-0.3832,-9.6567,16.1391,-4.2435,-0.0696
1645,0.0383,-0.5365,-9.6567,14.6783,-4.1739,0.0696
1650,-0.0766,-0.4598,-9.695,12.8696,-4.1043,0.0
1655,0.0766,-0.4598,-9.3502,11.0609,-3.8957,0.2087
1660,-0.1533,-0.2299,-9.5801,8.9043,-3.4783,0.5565
1665,0.0383,-0.4598,-9.6184,6.9565,-2.9913,0.5565
1670,0.0383,-0.3066,-9.6184,5.0087,-2.4348,0.487
1675,0.0,-0.4982,-9.5801,3.4087,-1.8087,0.6261
1680,0.0,-0.5365,-9.695,2.2261,-1.113,0.6957
1685,0.0383,-0.6898,-9.81,1.7391,-0.6957,0.7652
1690,0.0,-0.5748,-9.7717,1.8087,-0.487,0.9043
1695,0.0,-0.8047,-9.5801,2.5043,-0.3478,1.0435
1700,-0.0766,-0.6131,-9.5801,3.4087,-0.1391,1.0435
1705,-0.0766,-0.6131,-9.8866,4.4522,-0.0696,0.9739
1710,-0.0383,-0.8047,-9.81,5.4957,0.1391,1.113
1715,0.0383,-0.7281,-9.8866,6.4696,0.0,1.1826
1720,-0.0383,-0.6898,-9.8866,7.3043,0.0,1.113
1725,0.0383,-0.6898,-9.8866,8.0,-0.0696,1.1826
1730,0.115,-0.843,-9.6567,8.8348,-0.2087,1.6
1735,-0.0766,-0.6898,-9.81,9.4609,-0.2783,1.3913
1740,0.0766,-0.6898,-9.9633,10.087,-0.3478,1.2522
1745,0.0766,-0.7281,-9.8483,10.6435,-0.3478,1.4609
1750,-0.0766,-0.5748,-9.7334,10.9217,-0.1391,1.6
1755,0.115,-0.7281,-10.0016,11.2696,-0.0696,1.8783
1760,0.0383,-0.6514,-10.0399,11.6174,0.0696,1.8783
1765,0.0766,-0.6898,-10.0399,11.687,0.1391,1.6696
1770,0.0766,-0.7281,-9.8483,12.0348,0.2783,1.4609
1775,0.0766,-0.7664,-9.695,12.5913,0.2087,1.5304
1780,0.0766,-0.843,-10.1166,13.0783,0.3478,1.2522
1785,0.115,-0.8047,-9.8483,13.913,0.487,1.2522
1790,-0.0383,-0.8047,-9.9633,14.5391,0.5565,0.9043
1795,0.115,-0.9197,-9.8483,15.0261,0.6261,0.6261
1800,0.0383,-0.8047,-9.7717,15.3043,0.7652,0.487
1805,0.0766,-0.9963,-9.6184,15.8609,0.9043,0.5565
1810,0.115,-0.9963,-9.925,16.3478,1.0435,0.5565
1815,0.0,-0.958,-9.7717,16.9739,1.0435,0.4174
1820,0.0766,-0.958,-9.695,17.6,1.2522,0.0696
1825,0.0,-1.073,-9.7334,18.2261,1.6,0.0
1830,-0.0383,-0.9197,-9.8483,18.713,2.0174,-0.2087
1835,0.3066,-0.9197,-9.6567,19.2696,2.8522,-0.3478
1840,0.0,-0.9963,-10.0399,19.4783,3.7565,-0.4174
1845,0.0766,-0.9197,-9.9633,19.7565,4.5217,-0.3478
1850,0.0766,-0.958,-9.925,19.9652,5.0087,-0.487
1855,0.0766,-1.0346,-9.9633,20.2435,5.0783,-0.487
1860,0.1916,-0.9197,-9.7717,20.6609,4.9391,-0.487
1865,0.1533,-1.0346,-10.0399,21.287,4.8696,-0.3478
1870,0.2299,-1.0346,-9.8483,21.8435,5.0087,-0.4174
1875,0.0383,-0.9197,-10.0782,22.6087,4.9391,-0.5565
1880,0.1533,-1.1879,-9.9633,23.4435,4.8696,-0.6261
1885,0.115,-1.2263,-9.925,24.4174,4.8696,-0.5565
1890,0.2682,-1.4562,-9.7717,25.6696,4.9391,-0.3478
1895,0.1916,-1.1879,-10.0399,26.7826,5.0783,-0.2087
1900,0.1916,-1.2263,-10.0399,27.9652,5.3565,0.0696
1905,0.115,-1.2263,-9.8866,29.2174,5.7043,0.0696
1910,0.0383,-1.2263,-9.9633,30.3304,6.1217,0.3478
1915,0.0766,-1.2263,-9.925,31.3043,6.8174,0.1391
1920,0.0766,-1.3029,-9.925,32.0696,7.4435,0.1391
1925,0.2299,-1.3029,-9.925,32.6957,8.0696,0.2087
1930,0.1916,-1.2646,-10.0016,33.2522,8.6261,0.5565
1935,0.115,-1.3795,-9.8866,33.6,9.0435,0.7652
1940,0.0766,-1.2263,-10.0399,33.8087,9.3217,0.7652
1945,0.1916,-1.3795,-9.81,33.8087,9.1826,0.7652
1950,0.1533,-1.5328,-9.81,34.0174,9.1826,0.7652
1955,0.2299,-1.5328,-9.8483,34.5739,9.0435,0.7652
1960,0.0766,-1.4562,-9.7717,35.2,8.9043,0.9043
1965,0.1916,-1.6478,-9.8483,35.9652,8.8348,1.2522
1970,0.2299,-1.7244,-9.7717,37.0783,8.6957,1.4609
1975,0.1533,-1.6095,-9.81,38.4,8.8348,1.4609
1980,0.0383,-1.7627,-9.925,39.7913,8.9043,1.5304
1985,0.3066,-1.7244,-9.6567,41.2522,8.8348,1.6
1990,0.0383,-1.8011,-9.7717,42.5043,8.6261,1.6696
1995,0.0383,-2.031,-9.8866,43.8261,8.6261,1.5304
2000,-0.0766,-1.916,-9.7334,45.2174,8.487,1.3913
2005,-0.0383,-1.916,-9.6567,46.4,8.487,1.1826
2010,0.115,-1.8777,-9.8483,47.513,8.3478,1.0435
2015,0.115,-1.9543,-9.7717,48.5565,8.2087,1.1826
2020,0.115,-1.9543,-9.8483,49.3913,8.3478,1.3217
2025,0.1533,-1.9927,-9.695,49.9478,8.3478,1.8087
2030,0.3066,-2.1076,-9.7334,50.5043,8.2783,2.2957
2035,0.4215,-2.1843,-9.7334,50.9217,7.8609,2.9913
2040,0.2299,-2.1843,-9.5801,51.5478,7.1652,3.8261
2045,0.3066,-2.2226,-9.6567,52.1739,6.4696,4.8
2050,0.0766,-2.1459,-9.5418,53.0087,5.8435,5.2174
2055,0.3832,-2.4142,-9.5801,53.9826,5.287,5.4957
2060,0.4598,-2.4908,-9.4651,55.0261,4.6609,5.7739
2065,0.3066,-2.3759,-9.5034,56.0,4.1043,5.8435
2070,0.3832,-2.4142,-9.5034,56.9043,3.8261,6.1217
2075,0.3066,-2.4525,-9.5801,57.7391,3.7565,5.9826
2080,0.3066,-2.4908,-9.6184,58.5043,3.6174,5.9826
2085,0.3449,-2.4908,-9.5801,58.9913,3.7565,5.9826
2090,0.2682,-2.3375,-9.5801,59.3391,3.8261,5.913
2095,0.3449,-2.4525,-9.695,59.4087,3.8957,5.9826
2100,0.5365,-2.4525,-9.695,59.0609,3.8261,6.1217
2105,0.4598,-2.4908,-9.6567,58.3652,3.7565,5.8435
2110,0.2682,-2.6058,-9.695,57.5304,3.9652,5.4261
2115,0.5365,-2.6824,-9.81,56.6261,4.0348,4.8696
2120,0.4215,-2.6058,-9.4651,55.7913,4.1043,4.4522
2125,0.5748,-2.7207,-9.5418,55.2348,4.1739,4.0348
2130,0.4982,-2.9507,-9.5418,54.8174,4.3826,3.5478
2135,0.4215,-2.9507,-9.4651,54.4696,4.4522,3.0609
2140,0.4215,-3.0273,-9.3885,54.3304,4.3826,2.4348
2145,0.2299,-3.0656,-9.6184,54.6087,4.313,1.8087
2150,0.4982,-3.2572,-9.4268,55.0957,4.1739,1.4609
2155,0.3066,-3.3722,-9.5034,55.7913,3.9652,0.9739
2160,0.3449,-3.4488,-9.3885,56.5565,3.7565,0.4174
2165,0.2299,-3.3339,-9.3118,57.4609,3.687,-0.0696
2170,0.1533,-3.4488,-9.4268,58.7826,3.6174,-0.2087
2175,0.3449,-3.4488,-9.3885,59.8957,3.6174,-0.2783
2180,0.3066,-3.4871,-9.2735,60.8,3.6174,-0.4174
2185,0.2682,-3.4871,-9.2352,61.287,3.7565,-0.5565
2190,0.2682,-3.3339,-9.3502,61.913,3.9652,-0.7652
2195,0.3449,-3.4488,-9.0819,62.4,4.4522,-0.9043
2200,0.1916,-3.6787,-9.1202,62.6783,4.6609,-1.0435
2205,0.4598,-3.7554,-9.0819,62.8174,4.7304,-0.8348
2210,0.6898,-3.6787,-9.2352,62.9565,4.7304,-1.1826
2215,0.4982,-3.7937,-9.1586,63.0261,5.287,-1.5304
2220,0.5365,-3.832,-9.0436,63.0957,5.8435,-1.5304
2225,0.4598,-3.8704,-9.0436,63.2348,6.1913,-1.6
2230,0.4215,-3.9087,-9.0053,63.513,6.3304,-1.6696
2235,0.5365,-3.947,-8.967,64.0,6.0522,-1.8087
2240,0.4215,-4.1003,-8.852,64.487,5.4957,-2.0174
2245,0.4215,-4.062,-8.967,64.6957,5.0783,-2.087
2250,0.4598,-3.947,-8.7754,65.2522,4.8,-2.2261
2255,0.4598,-4.1003,-8.8903,65.6,4.6609,-2.5739
2260,0.5365,-4.2919,-8.8903,66.1565,4.4522,-2.8522
2265,0.3066,-4.2536,-8.6604,66.9217,4.3826,-2.8522
2270,0.3066,-4.2152,-8.852,67.8261,4.8696,-2.4348
2275,0.5365,-4.2919,-8.6221,68.7304,5.4261,-2.3652
2280,0.4598,-4.4452,-8.7754,69.4957,6.0522,-2.2261
2285,0.4215,-4.3685,-8.6604,70.2609,6.5391,-2.2261
2290,0.4982,-4.4835,-8.6987,70.9565,7.1652,-1.9478
2295,0.4215,-4.5601,-8.737,71.513,8.0696,-2.3652
2300,0.5748,-4.5601,-8.6221,71.7913,8.6261,-2.8522
2305,0.4598,-4.6368,-8.5454,71.8609,9.0435,-3.0609
2310,0.4598,-4.7134,-8.5838,72.0,9.3217,-3.4087
2315,0.3832,-4.8667,-8.5838,71.7913,9.4609,-3.8261
2320,0.4215,-4.905,-8.4688,71.5826,9.3217,-3.5478
2325,0.4982,-4.8667,-8.6221,71.3043,9.0435,-3.6174
2330,0.4982,-4.905,-8.5071,71.0261,8.8348,-3.8957
2335,0.3449,-5.0966,-8.4688,70.6783,8.6261,-4.0348
2340,0.3832,-5.0583,-8.5071,70.4696,8.2087,-3.9652
2345,0.4215,-5.0966,-8.3538,70.2609,7.6522,-3.687
2350,0.3832,-5.0583,-8.4305,70.0522,7.2348,-3.3391
2355,0.4215,-5.2499,-8.5071,69.7739,6.8174,-2.9913
2360,0.4215,-5.0966,-8.2772,69.4261,6.4696,-2.6435
2365,0.5748,-5.2116,-8.3155,69.1478,6.1217,-2.2261
2370,0.5365,-5.4415,-8.3155,69.0783,5.913,-1.8783
2375,0.5365,-5.2882,-8.1239,68.9391,5.6348,-1.3217
2380,0.5365,-5.4798,-8.1239,69.0087,5.5652,-0.7652
2385,0.6514,-5.4415,-8.2389,68.8,5.5652,-0.7652
2390,0.5365,-5.5181,-8.0089,68.5217,5.7739,-0.9043
2395,0.4982,-5.5948,-8.0473,68.313,5.8435,-0.9739
2400,0.5365,-5.6714,-8.0089,67.9652,5.913,-0.8348
2405,0.6131,-5.6714,-8.0856,67.8261,6.0522,-0.7652
2410,0.6131,-5.7864,-7.9706,67.687,5.913,-0.6261
2415,0.6131,-5.7097,-8.1239,67.5478,5.8435,-0.5565
2420,0.4215,-5.8247,-7.8173,67.4783,5.7739,-0.4174
2425,0.6514,-6.1696,-7.894,67.5478,5.4957,0.0
2430,0.4982,-5.863,-7.9323,67.6174,5.0783,0.2783
2435,0.6514,-5.9396,-7.8173,67.8261,4.7304,0.4174
2440,0.5748,-5.9396,-7.9323,68.1043,4.4522,0.487
2445,0.6131,-6.0546,-7.7024,68.3826,4.3826,0.5565
2450,0.5365,-6.0929,-7.779,68.8696,4.3826,0.3478
2455,0.5748,-6.1696,-7.6641,69.287,4.5913,0.2783
2460,0.6131,-6.2079,-7.7407,69.6348,4.6609,0.0
2465,0.6514,-6.3229,-7.6257,70.1913,5.1478,-0.2087
2470,0.7664,-6.3229,-7.5108,70.7478,5.3565,-0.0696
2475,0.5365,-6.3612,-7.7024,70.8174,5.913,-0.5565
2480,0.6131,-6.3995,-7.779,70.6087,6.2609,-0.7652
2485,0.5365,-6.3995,-7.6257,70.5391,6.7478,-0.9043
2490,0.6131,-6.5145,-7.5491,70.4696,7.0261,-0.8348
2495,0.5748,-6.3995,-7.3192,70.6087,7.4435,-0.5565
2500,0.5365,-6.3995,-7.4341,70.7478,7.7217,-0.2087
2505,0.7281,-6.5911,-7.3192,71.0957,7.9304,0.0
2510,0.5748,-6.5528,-7.2042,71.3739,7.9304,0.2783
2515,0.7281,-6.7827,-7.1659,71.7913,7.9304,0.4174
2520,0.5748,-6.821,-7.0509,72.487,7.6522,0.5565
2525,0.4598,-6.8593,-7.1659,73.3913,7.3043,0.6957
2530,0.4982,-6.6677,-6.9743,74.2957,7.0957,0.9043
2535,0.4982,-6.936,-7.1276,75.2696,6.8174,0.8348
2540,0.4982,-6.8593,-7.0509,76.2435,6.4696,0.8348
2545,0.4982,-6.7827,-6.936,76.8696,6.1217,0.9739
2550,0.4982,-6.8593,-6.936,77.287,5.7739,0.9739
2555,0.4215,-6.8593,-6.8977,77.4261,5.5652,0.9739
2560,0.3832,-6.936,-7.0509,77.1478,5.287,0.9739
2565,0.5365,-6.821,-6.8593,76.8696,5.1478,1.1826
2570,0.4982,-6.8593,-6.821,76.4522,4.9391,1.2522
2575,0.3449,-7.0509,-6.7444,75.8957,4.8,1.3913
2580,0.4982,-7.1276,-6.7061,75.2696,4.5217,1.6
2585,0.5365,-7.1659,-6.6294,74.9217,4.2435,1.7391
2590,0.4982,-7.2425,-6.6294,75.0609,3.8957,1.9478
2595,0.6131,-7.3575,-6.3612,75.2,3.6174,2.0174
2600,0.6898,-7.3958,-6.5528,75.7565,3.6174,2.0174
2605,0.6131,-7.3958,-6.2462,76.6609,3.6174,2.087
2610,0.6898,-7.5108,-6.2845,77.4957,3.6174,2.0174
2615,0.6131,-7.5108,-6.2845,78.3304,3.687,2.087
2620,0.6131,-7.6641,-6.3612,78.9565,3.687,2.0174
2625,0.6131,-7.7407,-6.2845,79.4435,3.6174,1.9478
2630,0.6514,-7.5874,-6.1696,79.6522,3.4087,1.9478
2635,0.7281,-7.5491,-6.2462,79.7217,3.2,1.8783
2640,0.6514,-7.6257,-6.0929,79.5826,2.9913,1.8783
2645,0.5748,-7.6257,-5.978,79.513,2.713,1.8783
2650,0.7281,-7.6257,-5.6714,79.1652,2.5043,1.8783
2655,0.6131,-7.6257,-5.978,78.8174,2.4348,1.7391
2660,0.6898,-7.7407,-6.0163,78.6087,2.5739,1.6696
2665,0.6898,-7.779,-5.9013,78.3304,2.8522,1.5304
2670,0.6898,-7.9323,-5.863,78.1913,3.1304,1.3913
2675,0.7281,-7.8557,-5.8247,78.1913,3.5478,1.2522
2680,0.6514,-7.9706,-6.0163,78.4696,3.7565,1.113
2685,0.6514,-7.9323,-5.7864,78.5391,3.9652,1.1826
2690,0.6514,-7.8557,-5.7097,78.4696,4.0348,1.3217
2695,0.6898,-7.9323,-5.748,78.2609,4.2435,1.3913
2700,0.5365,-7.6257,-5.5948,77.287,4.313,1.4609
2705,0.5748,-7.894,-5.4415,76.4522,4.4522,1.3217
2710,0.4982,-7.9323,-5.4032,75.4087,4.5913,1.6
2715,0.6131,-7.894,-5.2882,74.4348,4.6609,1.7391
2720,0.3832,-7.8173,-5.3265,73.4609,4.3826,1.7391
2725,0.5748,-8.1239,-5.2116,72.6261,4.1043,1.8783
2730,0.5365,-8.2005,-5.2499,72.2087,3.9652,2.0174
2735,0.4982,-8.2772,-5.0583,72.0696,3.8261,2.2261
2740,0.5365,-8.1622,-5.0583,72.2087,3.8957,2.1565
2745,0.4215,-8.3538,-5.2499,72.4174,3.9652,2.3652
2750,0.5748,-8.3155,-4.9816,72.487,4.1043,2.2957
2755,0.6514,-8.5454,-4.7134,72.1391,4.1739,2.087
2760,0.6514,-8.5071,-5.02,71.7217,4.4522,2.087
2765,0.6131,-8.4305,-4.905,71.0957,4.5913,2.0174
2770,0.5365,-8.5071,-4.8667,70.2609,4.5913,2.087
2775,0.5748,-8.3538,-4.79,69.287,4.5217,2.087
2780,0.6514,-8.4305,-4.6751,68.4522,4.3826,2.1565
2785,0.5365,-8.5454,-4.7134,67.6174,4.3826,2.1565
2790,0.4215,-8.4688,-4.7517,66.7826,4.1739,2.2261
2795,0.4982,-8.2772,-4.6751,65.8087,4.1043,2.2957
2800,0.6514,-8.3921,-4.4835,64.7652,3.8957,2.2261
2805,0.3832,-8.3155,-4.4452,63.513,3.7565,2.1565
2810,0.5365,-8.2772,-4.4068,62.0522,3.6174,2.087
2815,0.4598,-8.1239,-4.2919,60.5913,3.3391,2.1565
2820,0.6131,-8.2772,-4.4068,59.2,3.0609,2.2261
2825,0.4982,-8.2772,-4.1769,57.8783,2.713,2.1565
2830,0.5365,-8.2005,-4.0236,56.8348,2.5739,2.2261
2835,0.4982,-8.2389,-4.062,56.1391,2.6435,2.2261
2840,0.4215,-8.2772,-3.9853,55.513,2.8522,2.2261
2845,0.3832,-8.3155,-4.062,54.8174,2.8522,2.4348
2850,0.3832,-8.3155,-4.1769,54.0522,2.6435,2.5043
2855,0.4215,-8.4305,-4.2152,53.0087,2.3652,2.713
2860,0.3832,-8.5454,-4.062,51.8957,2.0174,3.1304
2865,0.4215,-8.4305,-3.9853,50.6435,1.6696,3.2696
2870,0.3066,-8.4305,-4.1769,49.3913,1.3913,3.6174
2875,0.4215,-8.4688,-3.832,48.2783,0.9739,3.6174
2880,0.4598,-8.5838,-3.7937,47.5826,0.5565,3.8261
2885,0.3832,-8.4305,-3.832,47.2348,-0.1391,4.0348
2890,0.2682,-8.4305,-3.5255,47.0957,-0.5565,4.2435
2895,0.4982,-8.6221,-3.4488,47.3739,-0.9739,4.2435
2900,0.4598,-8.6604,-3.5255,47.7217,-1.0435,4.2435
2905,0.4598,-8.6987,-3.4488,48.1391,-0.9043,4.3826
2910,0.5748,-8.6221,-3.4105,48.6957,-0.7652,4.3826
2915,0.2682,-8.6604,-3.3722,48.9739,-0.8348,4.313
2920,0.5748,-8.6987,-3.4105,49.2522,-0.5565,4.1739
2925,0.6898,-8.852,-3.3722,49.0435,-0.1391,4.0348
2930,0.7664,-8.852,-3.2572,49.0435,0.4174,3.8957
2935,0.7281,-8.967,-3.3722,48.6957,0.7652,3.687
2940,0.7281,-8.9286,-3.3339,48.2783,1.0435,3.6174
2945,0.6898,-9.0819,-3.3722,47.6522,1.1826,3.5478
2950,0.6898,-9.2352,-3.2572,46.9565,0.9739,3.5478
2955,0.5365,-9.2352,-3.4105,46.2609,0.3478,3.5478
2960,0.5365,-9.2352,-3.4105,45.5652,-0.1391,3.4087
2965,0.4598,-9.1586,-3.4488,44.6609,-0.6957,3.2696
2970,0.3449,-9.1969,-3.3339,43.8957,-1.1826,3.3391
2975,0.4215,-9.4268,-3.2955,43.2,-1.5304,3.5478
2980,0.4215,-9.2352,-3.2955,42.7826,-1.7391,3.6174
2985,0.4982,-9.2735,-3.1806,42.7826,-1.8087,3.3391
2990,0.3449,-9.1586,-3.0273,43.3391,-1.9478,3.2
2995,0.4598,-9.1586,-3.0273,44.1043,-2.087,3.1304
