timestamp,accX,accY,accZ,gyroX,gyroY,gyroZ
0,0.843,4.9433,-8.6221,-1.7391,3.687,-1.113
5,0.8047,4.905,-8.5838,-1.4609,3.4783,-0.2087
10,0.8814,5.0966,-8.737,-0.9043,3.4087,0.4174
15,0.8814,5.0583,-8.6221,-0.4174,3.2696,1.1826
20,0.8814,5.0583,-8.8137,0.0,3.2696,1.6
25,0.8814,5.0966,-8.6987,0.4174,3.2,2.087
30,0.843,5.1349,-8.8903,0.6261,3.4087,2.0174
35,0.843,5.1349,-8.737,0.6957,3.5478,2.1565
40,0.7664,5.0966,-8.6604,0.6261,3.6174,1.9478
45,0.8047,4.9816,-8.852,0.5565,3.7565,1.9478
50,0.7281,5.02,-8.8137,0.487,3.8261,1.6
55,0.8047,5.02,-8.737,0.487,3.8957,1.6696
60,0.7281,5.1349,-8.6987,0.5565,3.9652,1.3913
65,0.6131,5.2499,-8.6604,0.6261,3.9652,1.6
70,0.6131,5.2499,-8.737,0.4174,3.9652,1.4609
75,0.6131,5.3265,-8.852,0.2783,4.1043,1.4609
80,0.6131,5.4032,-8.8137,-0.2087,4.1739,1.2522
85,0.7281,5.3648,-8.967,-0.7652,4.2435,1.3217
90,0.7664,5.4798,-9.0053,-1.113,4.2435,1.113
95,0.7281,5.4798,-9.1202,-1.6696,4.313,1.2522
100,0.8047,5.5948,-9.0819,-2.2957,4.313,1.1826
105,0.7281,5.5564,-9.0819,-3.0609,4.4522,1.3217
110,0.7281,5.5948,-9.0436,-3.687,4.4522,1.113
115,0.843,5.5564,-9.0436,-4.0348,4.4522,1.4609
120,0.8047,5.4798,-8.967,-4.3826,4.4522,1.3217
125,0.958,5.4798,-9.0436,-4.5913,4.3826,1.6
130,0.8814,5.4798,-9.0819,-4.8,4.2435,1.4609
135,0.9197,5.4032,-9.0053,-5.1478,4.0348,1.6696
140,0.8047,5.3265,-8.8137,-5.287,3.9652,1.6
145,0.843,5.1732,-8.8137,-5.4261,3.8957,1.8087
150,0.9197,5.02,-8.8137,-5.3565,3.7565,1.6
155,0.843,4.905,-8.7754,-4.9391,3.687,1.8783
160,0.8047,4.905,-8.6604,-4.5217,3.5478,1.7391
165,0.6131,4.9433,-8.737,-4.1043,3.4783,2.0174
170,0.8047,4.8284,-8.6221,-3.687,3.2696,2.1565
175,0.8814,4.8284,-8.6221,-3.1304,3.2,2.5043
180,0.8047,4.79,-8.5838,-2.8522,3.0609,2.713
185,0.7281,4.8667,-8.6987,-2.5043,2.9217,3.0609
190,0.8047,4.8284,-8.6987,-2.2261,2.8522,3.0609
195,0.6514,4.79,-8.4688,-1.6696,2.9217,3.3391
200,0.5365,4.8667,-8.5071,-1.2522,2.6435,3.2696
205,0.6514,4.7517,-8.3155,-0.6261,2.4348,3.4783
210,0.7664,4.8284,-8.4688,0.0,1.9478,3.4087
215,0.7281,4.8667,-8.5454,0.8348,1.5304,3.6174
220,0.6898,4.79,-8.5838,1.5304,1.1826,3.4783
225,0.7281,4.905,-8.5454,2.1565,1.113,3.687
230,0.8047,4.8284,-8.5071,2.5739,1.1826,3.5478
235,0.958,4.9816,-8.6221,2.8522,1.113,3.6174
240,0.9197,5.1349,-8.5454,2.9913,1.1826,3.5478
245,1.073,5.1349,-8.5454,3.2,1.3913,3.7565
250,0.9963,5.2499,-8.8137,3.2696,1.8087,3.7565
255,0.9963,5.3265,-8.6987,3.3391,2.2957,4.1043
260,0.958,5.3648,-8.9286,3.2,2.713,3.8957
265,0.9963,5.5948,-9.0053,2.9913,2.9217,3.9652
270,0.9197,5.5181,-8.9286,2.6435,3.2,3.8957
275,0.958,5.5181,-9.0436,1.8087,3.4087,3.9652
280,1.0346,5.6714,-9.0053,0.9043,3.5478,3.6174
285,0.8814,5.6714,-8.967,0.0,3.7565,3.4783
290,0.9197,5.6714,-9.1202,-0.7652,3.8261,3.0609
295,0.958,5.7097,-9.0436,-1.7391,3.8957,2.9217
300,0.7664,5.5564,-9.0053,-2.3652,3.8261,2.4348
305,0.9197,5.4415,-8.8903,-2.9217,3.687,2.3652
310,0.843,5.5181,-8.852,-3.3391,3.4783,2.0174
315,0.8047,5.3648,-8.8137,-3.8261,3.4087,2.087
320,0.9963,5.3648,-8.8137,-4.1043,3.1304,1.6
325,0.843,5.4032,-9.0053,-4.2435,2.9217,1.5304
330,0.9197,5.2882,-8.9286,-4.313,2.8522,1.2522
335,0.958,4.9433,-8.852,-4.1739,2.713,1.1826
340,0.9963,4.905,-8.8137,-3.9652,2.713,1.0435
345,0.9197,4.8667,-8.852,-3.687,2.7826,1.113
350,0.8814,4.9433,-8.6221,-3.4087,2.9913,0.9043
355,0.843,4.9433,-8.8137,-3.0609,3.2,1.0435
360,0.9197,4.8284,-8.5454,-2.713,3.2696,0.8348
365,1.073,4.8284,-8.8137,-2.087,3.3391,0.9739
370,0.9963,4.8667,-8.6604,-1.7391,3.4087,0.8348
375,0.9963,4.9433,-8.737,-1.1826,3.4783,0.9043
380,0.8814,4.9816,-8.6221,-0.8348,3.3391,0.6957
385,0.9963,4.9816,-8.6987,-0.487,3.3391,0.7652
390,0.9963,4.9433,-8.6604,-0.2783,3.3391,0.7652
395,1.0346,5.0583,-8.6987,0.0696,3.2696,0.9739
400,0.9197,5.0583,-8.6221,0.3478,3.2,0.9043
405,0.9197,5.2116,-8.737,0.7652,3.2,1.1826
410,0.9197,5.2499,-8.8137,0.7652,3.4087,1.1826
415,0.8047,5.2499,-8.737,0.7652,3.6174,1.4609
420,0.8047,5.2116,-8.6221,0.8348,3.7565,1.4609
425,0.8047,5.3265,-8.8137,0.9043,4.0348,1.6696
430,0.9197,5.3648,-8.8137,0.8348,4.1043,1.6
435,0.958,5.4032,-8.852,0.6957,4.313,1.7391
440,0.8814,5.4798,-9.0053,0.2783,4.2435,1.4609
445,0.9197,5.4798,-8.8903,-0.3478,4.5217,1.3217
450,0.8814,5.5564,-8.852,-0.9043,4.5913,1.0435
455,0.9197,5.4798,-9.0819,-1.4609,4.6609,1.0435
460,0.843,5.5948,-8.852,-2.2261,4.5217,0.8348
465,0.9197,5.4798,-9.0053,-2.8522,4.3826,1.113
470,0.843,5.4032,-9.0436,-3.2696,4.313,0.9739
475,0.8047,5.3265,-8.9286,-3.687,4.1739,1.113
480,0.8814,5.2882,-8.852,-4.0348,4.1043,1.0435
485,0.7664,5.2882,-8.7754,-4.313,4.1739,1.0435
490,0.843,5.1732,-9.0053,-4.4522,4.2435,0.7652
495,0.7281,5.1732,-8.7754,-4.5217,4.1739,0.6261
500,0.6514,5.1732,-8.7754,-4.313,4.1043,0.2087
505,0.7664,5.02,-8.6987,-4.0348,4.0348,0.0696
510,0.843,4.9816,-8.8137,-3.7565,3.8957,-0.4174
515,0.7281,5.02,-8.6604,-3.6174,3.8261,-0.5565
520,0.8047,4.905,-8.5838,-3.2696,3.8261,-0.9739
525,0.8047,5.02,-8.6987,-2.8522,3.7565,-1.0435
530,0.8047,4.8667,-8.737,-2.5043,3.687,-1.2522
535,0.8814,4.9816,-8.8137,-2.2261,3.687,-0.9739
540,0.9197,4.9816,-8.8137,-2.1565,3.687,-1.0435
545,0.8814,5.1732,-8.852,-1.8087,3.7565,-0.7652
550,0.9197,5.0583,-8.8903,-1.7391,3.8957,-0.6957
555,0.958,5.1349,-8.852,-1.5304,3.9652,-0.2783
560,1.073,5.1349,-8.9286,-1.5304,4.2435,-0.2087
565,0.958,5.2116,-8.8137,-1.6,4.5217,0.0696
570,1.073,5.1732,-8.7754,-1.7391,4.6609,0.0
575,0.8047,5.3265,-8.7754,-1.8783,4.8,0.2087
580,0.9197,5.2116,-8.6987,-2.2261,4.7304,0.1391
585,0.7664,5.3648,-8.737,-2.713,4.8696,0.2783
590,0.9963,5.2882,-8.9286,-3.2,5.0087,0.1391
595,0.9197,5.2882,-8.737,-3.4783,5.0087,0.1391
600,0.8814,5.3265,-8.8137,-3.4783,5.1478,-0.1391
605,0.843,5.4032,-8.6987,-3.4087,5.1478,-0.0696
610,0.8047,5.3265,-8.852,-3.4783,5.4261,-0.3478
615,0.8814,5.3648,-8.6604,-3.3391,5.3565,-0.2087
620,0.958,5.4032,-8.6604,-3.2696,5.4957,-0.4174
625,0.843,5.2116,-8.6604,-3.2696,5.5652,-0.487
630,0.8047,5.2499,-8.737,-3.2,5.5652,-0.5565
635,0.8047,5.3265,-8.7754,-3.2696,5.5652,-0.487
640,0.7664,5.3265,-8.7754,-3.2696,5.5652,-0.4174
645,0.8047,5.3265,-8.5838,-3.2,5.4957,-0.0696
650,0.7664,5.3265,-8.7754,-3.2,5.4957,0.0
655,0.6898,5.3648,-8.6987,-3.2696,5.287,0.4174
660,0.8047,5.4415,-8.6604,-3.3391,5.0783,0.487
665,0.6898,5.4032,-8.8903,-3.687,4.8,0.7652
670,0.6898,5.4798,-8.6221,-4.1043,4.9391,0.5565
675,0.7664,5.3648,-8.6604,-4.6609,4.8696,0.3478
680,0.7281,5.3265,-8.6221,-5.1478,4.8696,-0.0696
685,0.7281,5.2116,-8.6987,-5.4957,4.8,-0.2783
690,0.7281,5.3265,-8.737,-5.7739,4.7304,-0.8348
695,0.7281,5.4415,-8.7754,-5.8435,4.8,-0.9739
700,0.6514,5.4032,-8.852,-5.9826,4.6609,-1.3217
705,0.7664,5.3648,-8.8903,-5.8435,4.5217,-1.4609
710,0.843,5.3265,-8.852,-5.7043,4.313,-1.5304
715,0.9197,5.5564,-8.8903,-5.5652,4.2435,-1.2522
720,0.958,5.3648,-8.967,-5.4957,4.1043,-1.113
725,0.7664,5.4415,-8.852,-5.287,3.7565,-0.8348
730,0.843,5.3648,-8.8137,-5.287,3.4783,-0.6957
735,0.7664,5.4032,-9.0053,-5.287,3.2,-0.4174
740,0.8814,5.3648,-9.0436,-5.4261,2.8522,-0.3478
745,0.8047,5.4415,-8.967,-5.8435,2.9217,-0.1391
750,0.8814,5.3648,-8.852,-6.1913,2.8522,-0.2783
755,0.843,5.4415,-8.852,-6.6783,2.9217,-0.3478
760,0.843,5.5181,-8.7754,-7.1652,3.1304,-0.6957
765,0.958,5.2882,-8.737,-7.4435,3.4087,-0.6261
770,0.7664,5.3265,-8.737,-7.4435,3.5478,-0.9043
775,0.7664,5.2116,-8.5071,-7.2348,3.6174,-1.1826
780,0.843,5.0966,-8.6221,-6.9565,3.6174,-1.3913
785,0.843,4.9816,-8.5838,-6.5391,3.5478,-1.3913
790,0.7281,5.0583,-8.4688,-6.1913,3.4087,-1.5304
795,0.8814,4.9433,-8.3921,-5.7043,3.2696,-1.6
800,0.843,5.0583,-8.4305,-5.0783,3.0609,-1.6
805,0.843,4.8667,-8.4688,-4.4522,2.713,-1.3913
810,0.9197,4.8667,-8.3921,-3.8261,2.5043,-1.6
815,0.958,4.9433,-8.5071,-3.4087,2.4348,-1.6
820,0.8814,4.9816,-8.4305,-3.1304,2.5043,-1.8087
825,0.9963,4.9816,-8.5071,-2.713,2.7826,-1.8783
830,0.9197,4.9433,-8.5071,-2.2957,2.9217,-1.9478
835,0.8814,5.02,-8.3155,-1.6696,3.1304,-1.8783
840,0.9963,5.0966,-8.4688,-1.0435,3.2,-1.8783
845,0.8814,5.1732,-8.5454,-0.4174,3.5478,-1.5304
850,0.843,5.1732,-8.5838,0.1391,3.7565,-1.3913
855,0.843,5.0966,-8.5071,0.6261,4.0348,-1.0435
860,0.9197,5.02,-8.5071,1.1826,4.1043,-1.0435
865,0.958,5.0966,-8.3921,1.8087,4.1043,-0.6261
870,0.9197,5.0966,-8.4688,2.2261,4.1043,-0.5565
875,0.9197,5.0966,-8.4688,2.5043,4.1739,-0.2087
880,0.9963,5.2116,-8.4305,2.7826,4.1739,-0.1391
885,0.958,5.3648,-8.6221,2.9217,4.1043,0.1391
890,0.958,5.4032,-8.5838,2.9913,4.1043,0.1391
895,1.073,5.4032,-8.6604,2.7826,4.2435,0.3478
900,1.1496,5.4415,-8.5838,2.2957,4.5217,0.3478
905,1.0346,5.5181,-8.6221,1.8783,4.7304,0.5565
910,1.1113,5.5564,-8.7754,1.5304,4.8,0.4174
915,1.073,5.5564,-8.7754,1.3913,4.9391,0.3478
920,0.958,5.5564,-8.8137,1.1826,5.0087,0.1391
925,0.9963,5.4798,-8.7754,0.9739,5.1478,0.0696
930,0.8814,5.4798,-8.6604,0.8348,5.1478,-0.0696
935,0.958,5.3648,-8.6987,0.6261,5.2174,-0.1391
940,0.958,5.4415,-8.737,0.4174,5.0783,-0.2087
945,0.9197,5.3648,-8.9286,0.1391,4.9391,-0.2783
950,0.958,5.4032,-8.852,-0.0696,4.7304,-0.2783
955,0.9963,5.4032,-8.8903,-0.3478,4.5217,-0.2783
960,0.9963,5.2882,-8.6987,-0.4174,4.3826,-0.5565
965,0.9197,5.2499,-8.8903,-0.5565,4.4522,-0.6957
970,0.958,5.2499,-8.737,-0.5565,4.4522,-0.9739
975,0.8814,5.2116,-8.6604,-0.4174,4.5913,-0.9739
980,1.073,5.5181,-9.6567,0.0,4.8,-1.113
985,0.958,5.1349,-8.6987,0.487,4.9391,-0.9739
990,0.9197,5.1349,-8.7754,0.9739,5.0087,-0.9739
995,0.8047,5.1732,-8.5071,1.4609,4.9391,-0.8348
1000,0.9197,5.0966,-8.6987,1.8087,5.0087,-0.9043
1005,0.9197,5.1349,-8.5838,2.2261,5.0087,-0.9043
1010,0.843,5.1732,-8.5454,2.3652,4.9391,-1.1826
1015,0.843,5.1732,-8.4688,2.3652,5.0783,-1.3217
1020,0.7664,5.1732,-8.6221,2.2957,5.0783,-1.6696
1025,0.7664,5.2499,-8.5454,2.2957,4.8696,-1.9478
1030,0.8814,5.2499,-8.6604,2.2261,4.7304,-2.2261
1035,0.843,5.4415,-8.6221,2.2261,4.5217,-2.3652
1040,1.1113,5.3648,-8.6987,2.2957,4.1739,-2.4348
1045,0.9963,5.3648,-8.7754,2.4348,4.0348,-2.2957
1050,0.958,5.4415,-8.6987,2.5739,3.7565,-2.0174
1055,0.9197,5.4798,-8.6221,2.713,3.5478,-1.7391
1060,0.9197,5.3265,-8.5454,2.9913,3.6174,-1.6
1065,0.8814,5.4032,-8.6221,3.0609,3.6174,-1.3217
1070,0.843,5.3648,-8.8137,3.0609,3.7565,-1.2522
1075,0.8814,5.3648,-8.6987,2.9217,4.1043,-1.113
1080,0.9197,5.2499,-8.6987,2.713,4.313,-1.0435
1085,0.9197,5.3265,-8.7754,2.4348,4.4522,-1.0435
1090,0.7664,5.2882,-8.7754,2.2957,4.6609,-1.1826
1095,0.843,5.2882,-8.6221,2.087,4.8,-1.1826
1100,0.8047,5.2499,-8.7754,2.0174,4.9391,-1.2522
1105,0.843,5.2499,-8.6987,2.0174,5.0087,-1.1826
1110,0.8047,5.3648,-8.737,2.087,4.9391,-1.1826
1115,0.9197,5.1732,-8.6987,2.2261,4.6609,-0.9739
1120,0.7664,5.2882,-8.9286,2.2261,4.313,-1.0435
1125,0.8047,5.1732,-8.8137,2.0174,3.8261,-0.9043
1130,0.8047,5.2499,-8.7754,2.0174,3.4783,-0.9739
1135,0.8047,5.2882,-8.8137,1.9478,3.2,-0.9739
1140,0.7281,5.4415,-8.6221,1.8783,3.0609,-0.9043
1145,0.843,5.4415,-8.737,2.0174,3.0609,-0.9043
1150,0.8814,5.2882,-8.8137,1.9478,2.9217,-0.9043
1155,0.843,5.3265,-8.8137,1.8783,2.8522,-0.9043
1160,0.7664,5.4032,-9.0053,1.6696,2.8522,-0.9739
1165,0.9197,5.3265,-8.852,1.3913,3.1304,-0.9739
1170,0.8814,5.3265,-8.7754,0.9043,3.3391,-1.0435
1175,0.843,5.4415,-8.967,0.6957,3.5478,-1.0435
1180,0.8814,5.3648,-8.7754,0.6957,3.8957,-0.9739
1185,0.9963,5.3265,-8.6604,0.9043,4.0348,-0.8348
1190,0.843,5.3265,-8.852,0.9043,4.2435,-0.7652
1195,0.8814,5.2116,-8.8137,1.0435,4.313,-0.6957
1200,0.8047,5.1349,-8.6604,1.1826,4.2435,-0.6261
1205,0.7664,5.2499,-8.737,1.1826,4.2435,-0.6957
1210,0.843,5.1349,-8.7754,1.2522,4.313,-0.6261
1215,0.6898,5.2499,-8.6604,1.3217,4.4522,-0.487
1220,0.7664,5.1732,-8.852,1.4609,4.313,-0.6261
1225,0.6898,5.1349,-8.7754,1.6696,4.2435,-0.487
1230,0.843,5.2116,-8.8137,1.8783,4.1043,-0.4174
1235,0.7664,5.2882,-8.8137,1.9478,4.1739,-0.3478
1240,0.8047,5.1732,-8.6604,2.0174,4.1739,-0.0696
1245,0.7281,5.2882,-8.6987,2.0174,4.0348,0.0696
1250,0.7664,5.2499,-8.737,2.0174,4.1739,0.2783
1255,0.7664,5.2116,-8.5838,2.0174,4.1739,0.487
1260,0.6898,5.3648,-8.7754,1.9478,4.0348,0.6261
1265,0.7664,5.1349,-8.6604,2.0174,4.0348,0.7652
1270,0.7281,5.2116,-8.8137,1.9478,4.0348,0.8348
1275,0.8047,5.2116,-8.6604,1.7391,4.0348,0.8348
1280,0.6514,5.2499,-8.737,1.6,3.8957,0.8348
1285,0.6514,5.2499,-8.6604,1.3217,3.8261,0.7652
1290,0.6131,5.2499,-8.6604,1.2522,3.7565,0.6261
1295,0.7664,5.1349,-8.737,1.0435,3.5478,0.487
1300,0.843,5.2499,-8.6221,0.9739,3.4087,0.487
1305,0.7281,5.1732,-8.6604,0.8348,3.2696,0.4174
1310,0.843,5.1732,-8.6604,0.9043,3.2,0.4174
1315,0.7281,5.1732,-8.6987,0.9739,3.2,0.6261
1320,0.7664,5.1732,-8.852,1.113,3.2696,0.6957
1325,0.8047,5.2882,-8.8903,1.1826,3.1304,0.7652
1330,0.843,5.2499,-8.737,1.1826,3.2,0.9043
1335,0.7281,5.2499,-8.9286,1.1826,3.2696,1.113
1340,0.6898,5.1732,-8.852,1.113,3.2696,1.2522
1345,0.6514,5.2116,-8.5838,0.9739,3.4087,1.3913
1350,0.7281,5.02,-8.6987,0.8348,3.6174,1.3913
1355,0.6514,5.1349,-8.737,0.9739,3.6174,1.4609
1360,0.7664,5.1349,-8.6221,1.2522,3.6174,1.6
1365,0.7664,5.0966,-8.8137,1.5304,3.6174,1.6696
1370,0.843,4.9816,-8.9286,1.8783,3.6174,1.8087
1375,0.7664,5.0966,-8.9286,1.9478,3.5478,1.8783
1380,0.843,5.1349,-8.9286,1.8783,3.4087,2.0174
1385,0.8814,4.9816,-8.9286,1.8783,3.3391,2.0174
1390,0.8814,5.1732,-8.852,1.8087,3.3391,2.087
1395,1.0346,5.1349,-8.8903,1.6696,3.2,2.2261
1400,0.843,5.1732,-8.967,1.3217,3.2696,2.4348
1405,0.843,5.2499,-9.0436,1.1826,3.3391,2.7826
1410,0.958,5.1349,-8.967,0.9739,3.6174,2.8522
1415,0.958,5.2116,-9.0053,0.7652,3.9652,2.9913
1420,0.7664,5.2116,-9.1202,0.4174,4.1043,2.8522
1425,0.8047,5.2499,-9.1202,0.3478,4.3826,2.7826
1430,0.8047,5.3265,-8.967,0.2783,4.3826,2.8522
1435,0.7664,5.3265,-8.9286,0.2087,4.3826,2.5739
1440,0.5748,5.2882,-8.8903,0.0696,4.313,2.3652
1445,0.7664,5.1732,-8.967,-0.0696,4.1739,2.087
1450,0.7281,5.1732,-8.8903,-0.3478,3.9652,1.8087
1455,0.7664,5.1349,-8.852,-0.6957,3.7565,1.4609
1460,0.7281,4.9816,-8.9286,-0.9043,3.6174,1.113
1465,0.7664,5.1349,-8.9286,-0.9739,3.4087,0.7652
1470,0.6898,5.0583,-8.9286,-1.0435,3.3391,0.5565
1475,0.7664,4.9433,-8.8903,-0.9043,3.2,0.4174
1480,0.8047,5.0583,-8.9286,-0.6957,3.1304,0.2783
1485,0.6514,5.0966,-8.9286,-0.487,2.9217,0.1391
1490,0.7281,4.9433,-8.8137,-0.487,2.8522,0.2087
1495,0.7281,4.9816,-8.852,-0.2783,2.6435,0.0696
1500,0.9197,4.79,-8.7754,-0.1391,2.4348,0.0696
1505,0.8047,4.9816,-8.852,-0.0696,2.4348,0.0696
1510,0.9197,4.9433,-8.6604,-0.0696,2.4348,0.0
1515,0.8814,4.9816,-8.737,-0.1391,2.4348,0.0
1520,0.8814,4.8667,-8.967,-0.1391,2.5739,-0.1391
1525,0.9197,5.0583,-8.7754,-0.0696,2.713,-0.0696
1530,1.0346,5.02,-8.852,-0.0696,3.0609,0.0
1535,1.0346,5.0966,-8.852,0.0,3.2696,-0.1391
1540,0.958,5.0583,-8.967,-0.0696,3.5478,0.0696
1545,1.073,5.0966,-8.8137,0.0,3.8261,0.2087
1550,0.958,5.2499,-8.9286,0.0,3.9652,0.2783
1555,1.073,5.1349,-8.852,-0.2087,4.1739,0.4174
1560,1.1496,5.0583,-8.852,-0.487,4.5217,0.6261
1565,0.9197,5.1349,-8.9286,-0.6261,4.6609,0.6957
1570,0.843,5.1349,-8.9286,-0.8348,4.7304,0.9739
1575,0.9197,5.0966,-8.9286,-1.113,4.7304,1.1826
1580,0.9197,5.0966,-8.8137,-1.4609,4.6609,1.4609
1585,0.8814,5.0583,-8.967,-1.6,4.7304,1.5304
1590,0.9197,5.1349,-9.0819,-1.8087,4.8696,1.3913
1595,0.9963,5.2882,-9.0436,-1.8087,4.8696,1.2522
1600,0.9963,5.2499,-9.0819,-1.8783,4.8696,1.2522
1605,0.9197,5.1732,-8.852,-2.0174,5.0087,1.113
1610,0.843,5.1349,-8.8903,-2.1565,5.2174,0.9043
1615,0.7664,5.1732,-8.8903,-2.3652,5.287,0.7652
1620,0.6898,5.0966,-8.9286,-2.5043,5.3565,0.5565
1625,0.6898,5.02,-8.967,-2.5739,5.287,0.2783
1630,0.6898,5.02,-8.8903,-2.5739,5.4261,0.1391
1635,0.6131,5.02,-8.8903,-2.6435,5.287,-0.0696
1640,0.7281,4.905,-8.852,-2.4348,4.9391,-0.2087
1645,0.7281,4.9816,-8.8137,-2.2261,4.6609,-0.3478
1650,0.7664,4.9433,-8.7754,-2.0174,4.4522,-0.5565
1655,0.7281,4.8667,-8.6221,-1.8783,4.1739,-0.7652
1660,0.7664,4.905,-8.5838,-1.8783,4.0348,-0.9739
1665,0.843,4.9433,-8.8137,-1.8087,3.9652,-1.2522
1670,0.843,4.79,-8.6987,-1.8087,3.8261,-1.3913
1675,0.958,4.8667,-8.5071,-1.6,3.8261,-1.4609
1680,0.9197,4.905,-8.737,-1.4609,3.9652,-1.4609
1685,0.9197,4.905,-8.852,-1.3217,4.1739,-1.6696
1690,0.8814,4.9433,-8.6987,-0.9043,4.3826,-1.6696
1695,1.0346,4.905,-8.8137,-0.5565,4.5913,-1.8087
1700,0.958,5.02,-8.737,-0.2783,4.8,-1.8783
1705,1.0346,5.0583,-8.8137,0.0,4.9391,-1.8087
1710,0.958,5.2499,-8.8137,0.2783,5.1478,-1.6696
1715,0.9197,5.1732,-8.8137,0.3478,5.287,-1.6
1720,0.8814,5.1732,-8.8137,0.1391,5.4957,-1.4609
1725,0.7664,5.2116,-8.7754,0.0,5.5652,-1.3913
1730,0.8047,5.1349,-8.6987,-0.2087,5.6348,-1.113
1735,0.8047,5.1349,-8.6987,-0.4174,5.4261,-1.0435
1740,0.8047,5.1732,-8.8903,-0.6957,5.3565,-0.9043
1745,0.9197,5.0966,-8.8903,-0.8348,5.1478,-0.8348
1750,0.843,5.0966,-8.852,-0.9739,5.0783,-0.6957
1755,0.843,5.0966,-8.9286,-1.113,4.9391,-0.9739
1760,0.7664,5.3265,-8.9286,-1.3217,4.9391,-1.0435
1765,0.8814,5.3265,-8.852,-1.6,5.0087,-1.1826
1770,0.843,5.2882,-8.8137,-2.087,5.1478,-1.3217
1775,0.8047,5.4032,-8.8903,-2.7826,5.1478,-1.3913
1780,0.8047,5.4032,-8.9286,-3.3391,5.2174,-1.2522
1785,0.843,5.2882,-8.8903,-3.8261,5.287,-1.3913
1790,0.9197,5.2116,-8.8903,-4.1739,5.3565,-1.2522
1795,0.9197,5.1732,-8.967,-4.3826,5.3565,-1.3913
1800,0.9197,5.2116,-8.967,-4.3826,5.3565,-1.3913
1805,1.0346,5.0966,-8.7754,-4.313,5.4261,-1.4609
1810,0.8814,5.1349,-8.6987,-4.1043,5.5652,-1.3913
1815,1.0346,4.905,-8.7754,-3.8261,5.5652,-1.4609
1820,0.9963,4.905,-8.6987,-3.4087,5.5652,-1.5304
1825,0.8814,4.9433,-8.7754,-2.9217,5.6348,-1.7391
1830,0.958,4.8667,-8.5454,-2.4348,5.6348,-1.6
1835,0.8814,4.905,-8.6604,-1.8783,5.6348,-1.8087
1840,0.9963,4.79,-8.6987,-1.4609,5.7043,-1.6696
1845,0.9197,4.905,-8.7754,-0.9043,5.7739,-1.7391
1850,0.843,4.8284,-8.6987,-0.487,5.8435,-1.5304
1855,0.843,4.8284,-8.5454,-0.0696,5.913,-1.6
1860,0.8814,4.9433,-8.6604,0.3478,5.9826,-1.4609
1865,0.958,4.9816,-8.5454,0.6261,6.0522,-1.5304
1870,0.8814,5.0583,-8.737,0.9739,6.1217,-1.5304
1875,0.8814,5.0583,-8.5071,1.1826,6.1913,-1.5304
1880,0.8047,4.9816,-8.7754,1.3913,5.9826,-1.5304
1885,0.8047,5.0966,-8.6987,1.6,5.8435,-1.6696
1890,0.843,5.1349,-8.6221,1.7391,5.8435,-1.5304
1895,0.843,5.1349,-8.5454,1.7391,5.6348,-1.4609
1900,0.8814,5.2116,-8.6987,1.8783,5.5652,-1.1826
1905,0.8814,5.2116,-8.8137,1.7391,5.5652,-0.9739
1910,0.9963,5.2499,-8.737,1.7391,5.3565,-0.8348
1915,1.0346,5.2499,-8.7754,1.5304,5.4261,-0.6957
1920,1.073,5.3265,-8.8137,1.3913,5.4261,-0.487
1925,0.9197,5.3648,-8.8903,1.0435,5.4957,-0.3478
1930,0.958,5.3265,-8.852,0.6957,5.5652,-0.2783
1935,1.073,5.4415,-8.737,0.2783,5.7739,-0.2783
1940,0.958,5.3265,-8.7754,0.2087,5.913,-0.4174
1945,1.0346,5.3265,-8.8903,0.0,6.1217,-0.7652
1950,0.958,5.3648,-8.8903,-0.4174,6.1913,-0.8348
1955,0.958,5.2882,-8.737,-0.6261,6.1217,-1.1826
1960,0.8814,5.3648,-8.737,-0.6261,5.9826,-1.2522
1965,0.9197,5.4032,-8.7754,-0.8348,5.913,-1.5304
1970,1.073,5.1732,-8.8903,-1.0435,5.6348,-1.6
1975,0.958,5.1732,-8.7754,-1.0435,5.4261,-1.7391
1980,0.958,5.2116,-8.8903,-1.2522,5.287,-1.6696
1985,0.8814,5.2882,-8.852,-1.3217,5.0783,-1.6696
1990,0.8814,5.2116,-8.9286,-1.5304,4.8696,-1.3913
1995,0.958,5.1732,-8.7754,-1.6,4.7304,-1.3913
2000,0.958,5.1732,-8.8137,-1.6696,4.7304,-1.2522
2005,0.8814,5.1732,-8.6604,-1.6,4.5913,-1.2522
2010,0.958,5.2116,-8.6221,-1.4609,4.8,-1.2522
2015,0.958,5.2116,-8.8137,-1.3913,4.9391,-1.2522
2020,0.9963,5.0966,-8.8137,-1.3217,5.0087,-1.2522
2025,0.9963,5.1732,-8.8137,-1.3217,5.287,-1.4609
2030,0.958,5.0966,-9.0436,-1.1826,5.4957,-1.1826
2035,0.6131,5.0583,-9.0436,-1.2522,5.5652,-1.2522
2040,1.1879,5.0583,-8.8137,-1.4609,5.6348,-0.9739
2045,1.4179,5.1349,-8.5454,-1.4609,5.7043,-0.9739
2050,0.9197,5.0966,-8.7754,-1.6,5.6348,-0.7652
2055,1.4562,5.2882,-9.1202,-1.7391,5.6348,-0.6957
2060,1.0346,4.9433,-8.3921,-1.8087,5.5652,-0.487
2065,1.073,5.0583,-9.1586,-1.8783,5.3565,-0.5565
2070,0.9963,5.1732,-8.7754,-1.7391,5.3565,-0.3478
2075,1.0346,4.8284,-9.1202,-1.6696,5.2174,-0.487
2080,1.2646,5.2499,-8.4305,-1.4609,5.1478,-0.487
2085,1.073,5.02,-8.7754,-1.2522,5.2174,-0.6261
2090,1.1496,5.2116,-8.4305,-0.9739,5.1478,-0.5565
2095,0.7664,4.9816,-8.8137,-0.6957,5.1478,-0.7652
2100,1.3029,4.9433,-8.737,-0.3478,4.8696,-0.6957
2105,1.1879,4.905,-9.0436,0.0696,4.8,-0.8348
2110,0.6131,5.2116,-8.1239,0.1391,4.7304,-0.6957
2115,1.1879,4.905,-8.1239,0.2783,4.5913,-0.7652
2120,0.9197,5.5181,-8.737,0.5565,4.5913,-0.6261
2125,0.8047,5.1349,-8.7754,0.6957,4.6609,-0.6957
2130,0.8814,5.1732,-8.6987,0.9043,4.5913,-0.6957
2135,0.9963,5.2116,-8.737,0.9739,4.5913,-0.9739
2140,0.9197,5.2499,-8.852,0.8348,4.6609,-0.7652
2145,0.6898,5.5181,-8.8137,0.6261,4.8,-1.0435
2150,1.1113,5.3265,-8.737,0.4174,4.8696,-0.9739
2155,1.1113,5.2116,-8.5454,0.1391,4.8,-1.113
2160,0.9963,5.3265,-8.3921,-0.1391,4.7304,-0.9739
2165,1.0346,5.3265,-8.967,-0.3478,4.5913,-1.0435
2170,1.1113,5.2116,-8.6987,-0.487,4.5217,-0.9043
2175,1.073,5.4798,-8.9286,-0.5565,4.3826,-0.9739
2180,1.073,5.0966,-8.4688,-0.6261,4.2435,-0.7652
2185,1.073,5.1732,-8.6987,-0.7652,4.1043,-0.8348
2190,1.0346,5.5564,-8.6987,-0.7652,3.9652,-0.6261
2195,0.958,5.5181,-8.6221,-0.6957,3.7565,-0.6957
2200,0.843,5.1732,-9.1586,-0.6957,3.7565,-0.487
2205,0.843,5.5564,-8.8903,-0.5565,3.687,-0.487
2210,1.0346,5.2499,-9.0819,-0.5565,3.8261,-0.4174
2215,0.7281,5.1349,-8.5454,-0.5565,3.8261,-0.5565
2220,1.0346,5.0583,-9.0436,-0.4174,3.7565,-0.4174
2225,0.7281,5.4798,-8.5838,-0.4174,3.687,-0.5565
2230,0.958,5.0966,-8.7754,-0.3478,3.6174,-0.487
2235,0.8814,5.02,-8.5838,-0.1391,3.3391,-0.487
2240,0.9197,5.2116,-8.7754,0.0,3.0609,-0.1391
2245,0.9963,5.0966,-8.967,0.1391,2.7826,-0.1391
2250,0.9197,5.1349,-8.737,0.2783,2.6435,0.1391
2255,0.9197,5.0583,-8.8137,0.487,2.5043,0.0696
2260,0.9963,5.0583,-8.7754,0.6957,2.2957,0.3478
2265,0.9197,5.02,-8.9286,0.9739,2.2957,0.3478
2270,0.8814,5.0966,-8.967,1.1826,2.3652,0.6261
2275,0.6131,5.02,-9.0436,1.7391,2.4348,0.5565
2280,0.9197,4.8667,-8.7754,2.1565,2.3652,0.8348
2285,0.8047,4.9816,-8.8137,2.5043,2.2957,0.6957
2290,0.7664,4.905,-8.967,2.713,2.2957,0.9043
2295,0.8814,4.8284,-9.1969,2.8522,2.2261,0.6957
2300,1.2646,5.1732,-8.852,2.9217,2.2261,0.7652
2305,0.9963,4.5984,-8.3155,2.9913,2.2261,0.6261
2310,0.4982,4.7517,-8.3538,2.9913,2.1565,0.9043
2315,0.8814,5.1349,-8.6221,3.0609,2.0174,0.9043
2320,0.7281,5.02,-8.6604,3.1304,1.9478,1.113
2325,0.4598,4.8667,-8.8903,3.4087,1.8783,1.1826
2330,0.6898,5.0966,-8.8903,3.5478,1.8783,1.7391
2335,0.843,5.0966,-8.9286,3.8957,1.7391,1.8087
2340,0.9197,5.1732,-8.6987,4.1739,1.7391,2.2957
2345,1.0346,5.02,-8.6221,4.3826,1.6,2.3652
2350,0.8814,5.0966,-8.5838,4.313,1.4609,2.713
2355,0.9197,5.1349,-8.8903,4.313,1.3913,2.5739
2360,0.8814,5.0966,-8.8903,4.1739,1.3913,2.7826
2365,0.843,5.0583,-8.9286,4.0348,1.4609,2.7826
2370,0.9197,5.2116,-9.0053,4.1043,1.3913,3.0609
2375,0.958,5.2499,-9.2352,4.1739,1.2522,3.2696
2380,0.843,5.2499,-9.0053,4.4522,1.2522,3.7565
2385,0.8814,5.1349,-9.1202,4.3826,1.113,3.8957
2390,0.843,5.2499,-9.3118,4.1739,1.113,4.313
2395,0.7664,5.2116,-9.4268,3.687,1.113,4.1739
2400,0.9963,5.3265,-9.7717,3.2,1.1826,4.3826
2405,0.6514,5.0583,-9.5034,2.6435,1.113,4.313
2410,0.6514,5.3648,-9.2735,2.087,0.9043,4.313
2415,0.5365,5.0583,-9.81,1.6696,0.7652,3.8957
2420,0.3832,5.2499,-8.5071,1.2522,0.3478,3.9652
2425,0.6898,5.02,-9.5801,0.9739,-0.0696,3.687
2430,0.8047,5.1349,-9.3118,0.9739,-0.3478,3.7565
2435,0.9197,5.2499,-9.1586,1.1826,-0.6261,3.6174
2440,1.0346,5.1732,-9.5034,1.6,-0.8348,3.687
2445,0.958,5.2116,-8.8137,2.087,-1.0435,3.6174
2450,1.1879,5.02,-9.0819,2.5043,-0.9043,3.8261
2455,0.8814,4.6751,-9.1969,3.1304,-0.6957,3.7565
2460,0.958,4.8284,-9.1969,3.6174,-0.3478,3.8957
2465,1.073,4.8667,-9.3118,4.0348,0.2087,3.6174
2470,0.843,4.79,-9.1969,4.4522,0.6261,3.7565
2475,0.9197,4.7517,-9.2352,5.0087,1.1826,3.5478
2480,0.7664,4.79,-9.2352,5.4957,1.5304,3.687
2485,0.6514,4.7134,-9.1202,6.1217,1.8783,3.4783
2490,0.7664,4.7517,-9.0436,7.0261,2.1565,3.687
2495,0.843,4.5218,-8.967,8.0696,2.2957,3.3391
2500,0.5365,4.5218,-9.1202,9.1826,2.2261,3.2696
2505,0.6898,4.5601,-8.852,10.4348,2.1565,3.0609
2510,0.4598,4.5984,-9.0436,11.4783,2.4348,3.2
2515,0.843,4.4835,-9.1586,12.4522,2.3652,3.2
2520,0.5365,4.4068,-9.1202,13.8435,2.2261,3.3391
2525,0.4598,4.5601,-9.1202,15.3043,1.8087,3.2696
2530,0.6514,4.5984,-8.8137,16.8348,1.3913,3.3391
2535,0.6514,4.5218,-8.9286,18.713,0.9739,3.0609
2540,0.4215,4.4452,-9.4651,20.0348,0.5565,3.1304
2545,0.958,4.2152,-9.1969,21.3565,0.1391,2.6435
2550,0.6131,4.4068,-8.9286,22.5391,0.0,2.713
2555,0.6514,4.5601,-9.695,23.7913,-0.2783,2.3652
2560,0.5748,4.5601,-8.967,25.113,-0.2783,2.2957
2565,0.6131,4.7134,-8.7754,26.6435,-0.487,1.8087
2570,0.9197,4.5984,-8.967,27.687,-0.2087,1.9478
2575,0.6514,4.4068,-9.0436,28.6609,-0.0696,1.9478
2580,0.958,4.79,-9.0819,29.913,0.0696,2.087
2585,0.958,4.9816,-8.9286,31.3739,0.487,2.2261
2590,0.843,4.7134,-9.4651,32.487,0.6957,2.4348
2595,0.843,4.7134,-9.6184,33.6696,0.9739,2.2957
2600,0.8814,4.6751,-9.7717,34.8522,1.3217,2.5739
2605,0.7664,4.7134,-9.6184,36.1043,1.8783,2.5043
2610,0.8047,4.7134,-9.7717,37.4261,2.087,2.713
2615,0.8814,4.6751,-9.7717,38.5391,2.5739,2.8522
2620,0.8047,4.7517,-9.925,39.6522,2.8522,2.8522
2625,0.843,4.6368,-9.8483,40.9739,2.8522,2.6435
2630,0.8047,4.7517,-10.0399,41.9478,3.2696,3.0609
2635,0.8814,4.5601,-10.1166,43.3391,3.4783,2.9913
2640,0.7281,4.5218,-9.925,44.5913,3.2,2.713
2645,0.8047,4.4452,-9.9633,46.1217,3.1304,2.2261
2650,0.6898,4.3685,-10.0016,47.6522,3.2696,2.2261
2655,0.7281,4.2919,-10.0782,48.9739,3.4783,1.9478
2660,0.6898,4.1003,-9.81,50.7826,3.4087,1.8087
2665,0.5365,3.9853,-10.0016,52.6609,3.2,1.4609
2670,0.6514,4.0236,-9.8866,54.8174,2.5739,0.7652
2675,0.7281,3.832,-10.0782,56.6957,2.2261,0.2087
2680,0.6514,3.9087,-10.0016,58.713,2.087,0.2087
2685,0.6514,3.7554,-9.9633,61.0087,1.8783,-0.0696
2690,0.5748,3.832,-9.925,63.2348,2.2261,0.2783
2695,0.6898,3.7554,-9.9633,65.113,2.2261,0.2783
2700,0.8814,3.6021,-10.0399,66.9913,2.0174,0.0
2705,0.7281,3.4105,-10.0016,69.4261,2.2957,0.0696
2710,0.843,3.4105,-10.1166,71.7217,2.4348,0.3478
2715,0.9197,3.4105,-10.3082,73.8783,2.713,0.6957
2720,0.7281,3.1806,-10.0016,76.3826,3.5478,1.9478
2725,0.958,3.2189,-10.1166,78.6783,3.6174,2.2957
2730,0.843,3.2572,-10.1166,80.7652,3.7565,2.9217
2735,0.6514,3.1423,-10.2315,83.2,4.3826,3.5478
2740,0.8047,2.989,-10.2315,85.0087,4.2435,4.0348
2745,0.6514,3.2189,-9.9633,86.2609,4.6609,4.0348
2750,0.7664,2.7974,-10.1166,87.513,5.4261,4.9391
2755,0.6514,2.8357,-10.2315,88.487,5.7043,5.287
2760,0.3832,2.6058,-10.1549,89.3913,5.6348,5.287
2765,0.6898,2.4908,-10.1549,90.2261,5.4261,4.6609
2770,0.6131,2.3375,-9.7717,90.9913,5.8435,4.5913
2775,0.843,2.2226,-10.1932,91.9652,5.4957,3.8957
2780,0.115,2.1843,-10.0782,93.2174,5.7739,3.5478
2785,0.843,2.1843,-10.0399,94.4696,5.9826,3.2696
2790,0.843,1.9927,-9.7334,95.6522,6.2609,3.5478
2795,0.7664,1.9543,-9.9633,96.9739,5.913,3.7565
2800,1.1496,1.6861,-10.1932,97.9478,5.3565,4.0348
2805,0.4982,1.8394,-10.653,98.713,4.8696,4.1739
2810,0.5365,1.1113,-10.3465,99.4783,4.7304,4.6609
2815,1.1496,1.6095,-10.1166,100.1739,4.5913,5.1478
2820,1.1496,1.4945,-10.2698,100.7304,4.0348,5.9826
2825,0.9963,1.4945,-10.653,101.0783,3.8261,6.4
2830,0.9963,1.1113,-10.5381,101.287,3.8261,7.0261
2835,0.958,0.9963,-9.8866,101.3565,3.6174,7.0957
2840,0.6898,0.9963,-10.3848,101.1478,3.6174,7.513
2845,0.9197,0.9197,-9.9633,100.5217,3.9652,7.5826
2850,0.9963,0.8814,-10.1932,99.4783,4.1043,7.9304
2855,0.9963,0.6898,-10.2315,98.5739,4.2435,8.0
2860,0.843,0.5748,-10.4231,97.7391,3.9652,8.7652
2865,1.3029,0.1533,-10.0016,97.113,3.8957,9.0435
2870,0.9963,0.4215,-10.1932,96.6261,3.7565,9.3913
2875,0.5365,0.3066,-9.8483,95.9304,3.687,9.1826
2880,0.843,0.1916,-10.0016,95.3739,3.3391,9.3217
2885,0.9197,0.1533,-10.0782,94.9565,3.0609,9.2522
2890,0.8814,0.0,-10.1166,94.6783,2.8522,9.5304
2895,0.6898,-0.115,-10.1549,94.7478,2.713,9.6696
2900,1.2646,0.0766,-10.3848,94.8174,2.2261,10.0174
2905,0.7281,-0.1533,-10.1549,94.4696,2.2261,10.0174
2910,0.7664,-0.1916,-10.0016,94.1217,2.2957,10.4348
2915,0.8047,-0.3066,-10.1166,94.1217,2.5043,10.3652
2920,0.958,-0.2682,-10.1932,94.1913,2.0174,10.4348
2925,1.073,-0.2299,-9.7717,94.4696,1.8087,10.087
2930,1.073,-0.3066,-9.925,94.6087,1.8087,10.087
2935,0.9197,-0.6898,-9.9633,94.9565,1.7391,9.8783
2940,0.5748,-0.5365,-9.6184,95.1652,1.3913,9.6
2945,0.843,-0.7281,-10.0016,95.0261,1.113,9.5304
2950,0.958,-0.9963,-9.925,94.1913,1.0435,9.7391
2955,0.5748,-1.1879,-9.925,92.5913,1.3217,9.4609
2960,1.0346,-0.8047,-9.3885,91.0609,1.0435,9.6696
2965,0.8814,-1.1113,-9.8483,89.3913,0.3478,9.4609
2970,0.958,-1.3029,-9.4651,87.5826,0.2783,9.2522
2975,1.1496,-1.4562,-9.3885,86.1913,-0.2783,8.8348
2980,1.1496,-2.1459,-9.5418,84.3826,-0.2087,8.6261
2985,0.958,-1.6478,-9.3502,82.7826,-0.2783,8.5565
2990,0.9197,-1.7244,-9.3885,82.2261,-0.487,8.7652
2995,0.843,-2.031,-9.3502,82.2261,-0.4174,8.6957
