timestamp,accX,accY,accZ,gyroX,gyroY,gyroZ
0,11.5344,-0.5365,0.0,3.0609,-81.6,23.3043
5,11.5344,-0.4598,-0.2299,10.4348,-77.5652,21.0783
10,11.3045,-0.1533,-0.4982,16.7652,-72.9043,18.8522
15,10.9979,-0.1533,-0.5748,22.1217,-67.8261,16.3478
20,10.6914,0.0383,-0.6131,26.087,-62.887,14.1913
25,10.5381,0.0766,-0.4598,28.4522,-58.0174,12.2435
30,10.0782,0.4598,-0.8814,29.2174,-52.2435,10.3652
35,9.8866,0.4982,-0.8814,27.8261,-47.1652,9.0435
40,9.6567,0.6514,-0.6898,24.9043,-42.087,8.1391
45,9.695,0.5748,-0.5748,21.3565,-36.6609,7.0957
50,9.3502,0.5365,-0.3449,17.8783,-30.887,6.0522
55,9.3118,0.6514,-0.115,14.9565,-25.113,4.9391
60,9.1969,0.6514,0.3066,13.3565,-19.6174,3.9652
65,9.0819,0.5748,0.4982,13.7739,-14.887,2.713
70,8.967,0.6898,0.6131,15.5826,-10.4348,2.0174
75,8.7754,0.7281,0.6514,18.3652,-6.6087,1.3217
80,8.6987,0.8814,0.6898,21.6348,-3.1304,1.3217
85,8.737,1.073,0.8047,25.4609,-0.6957,1.3913
90,8.6221,1.1113,0.9197,28.3826,1.113,2.3652
95,8.6221,1.3412,0.958,31.0957,2.1565,3.2
100,8.5838,1.5328,0.9963,33.3913,2.7826,4.313
105,8.6221,1.6861,1.3029,35.1304,3.5478,5.8435
110,8.737,1.7244,1.2646,35.9652,4.4522,7.5826
115,8.6604,1.8777,1.3795,35.5478,5.4957,8.6261
120,8.967,1.916,1.4179,34.3652,6.4,10.4348
125,9.0436,1.9927,1.3029,32.487,7.8609,11.4087
130,9.0819,2.1459,1.5328,29.7043,10.1565,11.0609
135,9.2735,2.2226,1.8394,24.8348,12.1043,10.6435
140,9.5418,2.1843,1.8011,20.2435,14.3304,10.5043
145,9.81,2.1459,1.8394,15.3043,16.9043,9.4609
150,9.8866,1.9927,1.9927,10.2261,19.1304,7.5826
155,9.8483,2.0693,2.031,5.5652,21.4261,4.8696
160,10.1166,1.8394,2.1076,1.3913,23.7913,2.6435
165,10.1549,1.8011,2.031,-2.1565,26.4348,0.0696
170,10.1549,1.6478,1.8394,-5.3565,29.287,-2.2957
175,10.2315,1.4179,2.031,-8.2087,32.1391,-5.0783
180,10.0399,1.2646,1.9927,-11.0609,35.687,-8.0
185,9.925,1.073,1.7244,-15.3043,38.7478,-10.087
190,9.695,1.0346,1.9543,-19.2,42.2261,-12.3826
195,9.5418,0.843,2.031,-23.2348,44.8,-14.1913
200,9.3885,0.6131,2.031,-26.8522,46.4696,-15.6522
205,9.2735,0.3832,2.2992,-29.7043,47.3043,-16.5565
210,9.2352,0.4215,2.6058,-31.6522,47.5826,-16.6261
215,9.1969,0.1916,2.6441,-32.4174,47.5826,-16.8348
220,9.2735,0.3066,2.7591,-32.6261,47.4435,-16.2783
225,9.2352,0.3449,3.0656,-32.4174,47.2348,-15.513
230,9.1969,0.4598,2.9507,-31.9304,47.0957,-14.4696
235,9.2735,0.4215,3.1039,-31.5826,46.8174,-14.0522
240,9.4651,0.6131,3.0273,-31.513,46.1913,-13.4957
245,9.3885,0.8047,3.2189,-31.2348,44.4522,-13.287
250,9.5418,0.8814,3.2189,-30.3304,41.113,-12.6609
255,9.695,0.9963,3.2189,-28.5913,36.5217,-11.9652
260,10.0399,1.1496,3.0273,-25.9478,30.6783,-10.9217
265,10.3082,1.1879,2.9123,-22.6783,23.7913,-10.4348
270,10.4614,1.073,2.7974,-19.4783,16.6261,-10.2261
275,10.6914,1.1879,2.3759,-16.1391,9.8087,-10.087
280,10.6147,0.958,1.9927,-12.3826,3.1304,-9.8783
285,10.653,0.9963,1.9927,-9.3217,-1.1826,-9.6
290,10.6914,0.843,1.8011,-6.6087,-4.1739,-8.9739
295,10.2698,0.7281,1.6861,-4.0348,-5.8435,-8.1391
300,9.9633,0.8047,1.7627,-1.7391,-6.6087,-7.3043
305,9.7717,0.7664,1.5328,0.487,-6.6783,-6.1913
310,9.4268,0.6131,1.6478,2.713,-6.6087,-4.8
315,9.2352,0.6514,1.8394,4.8,-5.913,-3.4783
320,9.1202,0.7281,1.916,6.6783,-4.5913,-2.1565
325,9.1202,0.6514,1.7627,8.0696,-2.5043,-1.113
330,9.1586,0.6514,1.9543,9.1826,0.7652,-0.4174
335,9.0436,0.6514,1.9543,9.6,3.7565,-0.1391
340,9.0053,0.6514,2.0693,9.7391,6.6783,-0.2087
345,8.967,0.7664,2.2226,9.8087,9.3913,-0.4174
350,8.8903,1.1496,2.3375,9.8087,11.8261,-0.6261
355,8.967,1.073,2.3759,9.6696,13.8435,-1.0435
360,9.0053,1.2263,2.5291,9.5304,15.513,-1.4609
365,9.0436,1.4562,2.5291,9.3217,16.6957,-2.087
370,9.1202,1.6095,2.5291,9.3217,17.6696,-2.8522
375,9.1586,1.8394,2.8357,9.1826,18.3652,-3.687
380,9.1969,1.9543,2.7207,8.9043,18.9913,-4.313
385,9.2735,2.2226,2.989,8.2783,19.3391,-4.5913
390,9.3118,2.2992,2.9507,7.3739,19.4783,-4.8696
395,9.3502,2.4908,3.0656,6.1217,18.9913,-4.9391
400,9.3502,2.6058,3.1423,4.6609,18.2261,-4.9391
405,9.5801,2.6441,3.1039,2.713,16.9739,-4.8
410,9.6567,2.6058,3.1039,0.7652,15.2348,-4.5217
415,9.5034,2.6441,3.1423,-1.2522,13.0783,-4.313
420,9.4651,2.5291,3.1039,-3.2696,10.713,-3.8957
425,9.4268,2.3759,3.1423,-5.0783,7.9304,-3.0609
430,9.4651,2.3759,2.9507,-6.6087,4.8,-2.5739
435,9.4651,2.1076,3.0273,-7.513,2.2261,-1.8087
440,9.4651,1.9927,2.874,-8.1391,-0.2783,-0.9043
445,9.3885,1.7244,2.7591,-8.5565,-2.2261,-0.0696
450,9.3885,1.5328,2.5675,-8.6957,-3.8957,0.9043
455,9.5418,1.4179,2.3375,-8.7652,-5.0087,1.5304
460,9.4268,1.1113,2.3375,-8.7652,-5.4261,2.1565
465,9.3118,0.9963,2.1459,-8.3478,-5.4957,2.7826
470,9.3502,0.8047,1.9927,-7.7217,-5.0087,3.2
475,9.2735,0.8047,1.916,-6.6783,-4.1739,3.4087
480,9.2352,0.843,1.9543,-4.6609,-2.9217,3.3391
485,9.2735,0.843,1.8777,-2.4348,-1.4609,3.2
490,9.3118,0.843,1.9927,0.1391,0.1391,3.0609
495,9.2352,0.8814,1.916,2.7826,1.9478,2.713
500,9.2352,0.958,1.9927,5.4957,3.8261,2.5043
505,9.2352,1.0346,1.9927,7.8609,5.6348,2.2261
510,9.1969,1.2646,1.916,9.8783,7.513,1.8087
515,9.1969,1.3412,2.031,11.4783,8.9739,1.3217
520,9.1586,1.4945,2.2609,12.5913,10.5043,0.6261
525,9.1969,1.7244,2.3375,13.4261,11.6174,-0.1391
530,9.1586,1.916,2.4908,13.913,12.5217,-0.7652
535,9.1586,2.0693,2.4142,13.7739,13.0087,-1.2522
540,9.1202,2.1459,2.6441,13.2174,12.9391,-1.6696
545,9.1969,2.0693,2.7974,12.313,12.6609,-1.9478
550,9.1586,2.031,2.7974,11.4087,11.8957,-2.087
555,9.1202,1.9927,2.7974,10.087,10.8522,-2.2261
560,9.2735,2.1076,2.9123,8.9043,9.4609,-2.4348
565,9.1586,1.9543,2.9123,7.5826,8.0,-2.2957
570,9.2352,1.916,2.989,6.4696,6.4,-2.2957
575,9.2352,1.8011,2.8357,5.5652,4.3826,-2.2957
580,9.2735,1.7244,2.9507,4.7304,2.8522,-2.2261
585,9.2352,1.6478,2.8357,4.3826,1.2522,-2.0174
590,9.3502,1.4945,2.874,4.1739,-0.2087,-1.9478
595,9.5034,1.4562,2.6824,4.1043,-1.4609,-1.7391
600,9.3502,1.3795,2.8357,3.8957,-2.5043,-1.7391
605,9.4268,1.3029,2.6058,3.6174,-3.4087,-1.4609
610,9.3502,1.3029,2.7207,3.3391,-3.9652,-1.113
615,9.2352,1.3795,2.6824,3.2696,-4.4522,-0.6261
620,9.2352,1.2263,2.7207,3.2696,-4.7304,-0.4174
625,9.1202,1.2646,2.6058,2.9217,-5.2174,0.2087
630,9.1586,1.073,2.6058,2.6435,-5.5652,0.4174
635,9.0819,1.073,2.6824,2.4348,-5.7043,0.7652
640,9.0053,1.073,2.7207,2.2957,-6.0522,0.9043
645,9.1969,1.1496,2.6058,2.0174,-6.4,1.1826
650,9.2735,1.1879,2.5675,1.7391,-6.6783,1.1826
655,9.2352,1.1113,2.4142,1.6,-6.8174,1.1826
660,9.4268,1.1879,2.4525,1.7391,-6.6087,1.0435
665,9.4268,1.3412,2.2992,1.8783,-6.4696,1.1826
670,9.3502,1.3412,2.2992,2.1565,-6.4696,1.3217
675,9.3885,1.4562,2.2992,2.713,-6.6783,1.6
680,9.4651,1.4945,2.1843,3.4087,-7.1652,1.8087
685,9.5034,1.7244,2.1459,3.7565,-7.6522,2.2957
690,9.3502,1.8777,2.1076,3.687,-8.3478,2.5739
695,9.3118,1.8011,2.1076,3.2,-8.9739,3.1304
700,9.2735,1.9927,1.916,2.4348,-9.3217,3.2696
705,9.2735,1.9543,2.1459,1.2522,-9.2522,3.6174
710,9.3502,1.8011,1.9543,-0.2087,-8.6957,3.6174
715,9.3118,1.8777,1.9543,-2.087,-7.5826,3.687
720,9.3885,1.7244,1.916,-4.1043,-6.0522,3.4783
725,9.5034,1.4945,1.9927,-6.2609,-3.8261,3.2
730,9.4651,1.4179,1.8777,-8.6957,-1.8783,2.5043
735,9.5801,1.2263,2.1459,-10.3652,0.0696,2.0174
740,9.5801,1.2646,2.0693,-11.7565,1.9478,1.2522
745,9.5418,1.1879,2.2226,-12.8,3.6174,0.9043
750,9.6184,1.1879,2.2226,-13.2174,4.7304,0.4174
755,9.695,1.1113,2.0693,-12.9391,5.4957,0.6261
760,9.7717,1.0346,2.2609,-12.2435,6.0522,0.6261
765,9.8866,0.958,2.1459,-10.6435,6.1913,1.1826
770,9.8866,0.958,2.2226,-8.6261,6.4,1.5304
775,9.8483,1.1113,2.1076,-6.4,6.7478,2.087
780,9.925,0.958,2.031,-3.4783,6.8174,2.4348
785,9.8866,0.9963,1.9543,-1.1826,6.9565,2.9217
790,9.8483,0.9197,2.0693,0.8348,6.887,2.9913
795,9.81,1.1113,2.031,2.713,6.9565,3.4783
800,9.5801,0.9963,1.9543,4.2435,7.0261,3.4087
805,9.4268,0.9963,1.9543,5.4957,7.0261,3.8261
810,9.3885,1.073,1.9543,6.5391,7.1652,3.7565
815,9.3118,1.1113,1.9927,7.3043,7.3043,3.8261
820,9.3502,1.1879,2.1459,7.6522,7.7217,3.8261
825,9.3118,1.1879,1.9927,7.513,8.2783,3.8261
830,9.3118,1.3795,2.1843,6.9565,8.9043,3.4087
835,9.3885,1.4179,2.0693,5.913,9.6,3.4087
840,9.3502,1.4179,2.1843,4.3826,10.3652,3.1304
845,9.3502,1.4179,2.2992,2.5739,10.9913,3.1304
850,9.3118,1.5328,2.3375,0.6957,11.687,2.8522
855,9.3118,1.5328,2.4908,-1.1826,11.8957,2.713
860,9.3502,1.4562,2.3759,-2.8522,11.8261,2.4348
865,9.2352,1.4179,2.4142,-4.1739,11.4783,2.4348
870,9.3118,1.3029,2.5675,-5.287,10.7826,2.1565
875,9.2352,1.2646,2.5675,-6.1913,9.8087,2.3652
880,9.2735,1.2646,2.6058,-7.0261,8.7652,2.3652
885,9.3502,1.1113,2.7207,-7.3739,7.7217,2.6435
890,9.3118,1.1879,2.5291,-7.7217,7.0261,2.5043
895,9.3118,1.1879,2.4142,-7.9304,6.6087,2.8522
900,9.4651,1.0346,2.4525,-8.0696,6.3304,2.7826
905,9.4268,0.9963,2.4908,-7.9304,6.2609,2.9913
910,9.4651,1.2646,2.4908,-7.5826,6.2609,2.7826
915,9.5034,1.073,2.3759,-7.0261,6.1913,2.7826
920,9.3885,1.2646,2.4908,-6.5391,6.1217,2.3652
925,9.4268,1.1496,2.4142,-5.8435,6.2609,2.087
930,9.2735,1.1496,2.4142,-5.2174,6.5391,1.4609
935,9.3118,1.0346,2.3375,-4.6609,6.6783,0.9739
940,9.1969,0.958,2.2992,-4.0348,6.887,0.2087
945,9.2352,1.0346,2.3759,-3.4783,7.0957,-0.2087
950,9.1586,0.8814,2.2992,-2.6435,7.3739,-0.9043
955,9.1969,0.7664,2.4525,-1.7391,7.5826,-1.2522
960,9.1586,0.8047,2.3759,-0.6957,7.7913,-2.0174
965,9.1969,0.7664,2.4525,0.487,8.0,-2.1565
970,9.1969,0.8047,2.5291,1.5304,8.2087,-2.7826
975,9.2352,0.9197,2.3759,2.5739,8.2783,-3.1304
980,9.1969,0.9963,2.6058,3.6174,8.1391,-3.6174
985,9.1969,1.1496,2.6441,4.1739,8.1391,-4.0348
990,9.2735,1.1879,2.7207,4.313,7.7913,-4.5913
995,8.7754,1.3029,2.1843,4.1739,7.513,-4.6609
1000,9.3118,1.4562,2.7591,3.687,6.9565,-5.1478
1005,9.3502,1.5328,2.6441,3.0609,6.1217,-4.8696
1010,9.5034,1.6478,2.4142,2.087,5.4957,-4.8696
1015,9.4651,1.7627,2.5291,0.6261,4.7304,-4.5217
1020,9.5034,1.6095,2.4525,-1.0435,4.1043,-4.313
1025,9.4268,1.8777,2.5291,-2.9913,3.4087,-3.687
1030,9.4268,1.7627,2.4908,-5.287,2.7826,-3.5478
1035,9.4268,1.6478,2.4908,-6.9565,2.1565,-2.8522
1040,9.4651,1.7244,2.6058,-8.487,1.6,-2.6435
1045,9.3118,1.5711,2.2609,-9.5304,1.3217,-2.0174
1050,9.2735,1.5328,2.4142,-10.0174,1.3217,-1.8783
1055,9.3118,1.4179,2.4142,-10.0174,1.2522,-1.4609
1060,9.1969,1.4562,2.4142,-9.3913,1.3913,-1.4609
1065,9.2352,1.4179,2.2992,-8.487,1.6696,-1.0435
1070,9.1586,1.3412,2.4525,-7.1652,1.8783,-1.1826
1075,9.1586,1.3029,2.3375,-5.7739,2.3652,-1.0435
1080,9.0436,1.3029,2.4525,-3.8957,2.7826,-1.3217
1085,9.1202,1.2646,2.3759,-2.2957,3.2,-1.3217
1090,9.1586,1.4179,2.5291,-0.7652,3.6174,-1.6696
1095,9.1586,1.4179,2.4142,0.6261,4.1043,-1.6
1100,9.2352,1.4562,2.3759,1.6,4.4522,-1.8783
1105,9.2352,1.4179,2.4908,2.4348,4.7304,-1.8087
1110,9.2735,1.5328,2.5291,2.8522,4.9391,-2.087
1115,9.2735,1.6095,2.3759,2.9913,5.0087,-1.9478
1120,9.3118,1.6478,2.4908,2.9913,4.5913,-2.0174
1125,9.4651,1.6478,2.5291,2.7826,4.1043,-1.6
1130,9.5034,1.6095,2.4908,2.4348,3.4087,-1.4609
1135,9.5034,1.6095,2.5291,1.8783,2.4348,-1.0435
1140,9.4268,1.6861,2.4908,1.3913,1.6696,-0.8348
1145,9.4651,1.6095,2.4908,0.6261,0.9739,-0.0696
1150,9.5801,1.5328,2.2992,-0.0696,0.4174,0.2783
1155,9.5418,1.5711,2.2992,-0.6261,-0.1391,0.8348
1160,9.5418,1.4945,2.4142,-1.0435,-0.487,1.2522
1165,9.5801,1.4179,2.2992,-1.5304,-0.5565,1.8783
1170,9.5801,1.3029,2.2992,-1.4609,-0.4174,1.9478
1175,9.4268,1.2263,2.2992,-1.3913,-0.1391,2.5043
1180,9.4651,1.1879,2.3375,-0.6261,0.2783,2.5739
1185,9.4651,1.1879,2.3375,0.2783,0.6957,2.6435
1190,9.3118,1.1879,2.2609,1.3913,0.9739,2.4348
1195,9.2352,1.1879,2.1076,2.713,1.3913,2.3652
1200,9.2735,1.3029,2.2992,3.8957,2.087,2.087
1205,9.3118,1.1113,2.0693,4.8,2.8522,1.9478
1210,9.2735,1.073,2.2226,5.4261,3.7565,1.6
1215,9.1969,1.2263,2.2226,5.7739,4.5913,1.4609
1220,9.2735,1.1879,2.1843,5.7739,5.4957,0.9043
1225,9.2352,1.2263,2.2992,5.3565,6.1913,0.5565
1230,9.2352,1.3795,2.2226,4.5217,6.6087,0.1391
1235,9.3118,1.4179,2.2226,3.6174,6.887,-0.2087
1240,9.4651,1.4179,2.2609,2.5043,7.0957,-0.6261
1245,9.4268,1.4562,2.3759,1.1826,6.8174,-0.5565
1250,9.5034,1.5711,2.4142,-0.2087,6.5391,-0.7652
1255,9.4651,1.5711,2.3759,-1.6696,6.1217,-0.4174
1260,9.5801,1.4945,2.3375,-2.9913,5.7043,-0.487
1265,9.7334,1.4562,2.2226,-4.4522,5.2174,0.0
1270,9.6567,1.3795,2.3375,-5.7043,5.0087,0.2783
1275,9.6567,1.3029,2.0693,-6.8174,4.8,0.6957
1280,9.695,1.2646,2.2609,-7.7217,4.8696,0.9043
1285,9.695,1.2263,2.2226,-8.0,5.1478,1.2522
1290,9.8866,1.1879,2.0693,-7.7913,5.3565,1.1826
1295,9.695,1.2263,2.1843,-7.1652,5.8435,1.3217
1300,9.7334,1.1113,2.0693,-6.2609,6.2609,1.113
1305,9.7334,1.1879,2.2226,-5.0087,6.8174,0.9739
1310,9.695,1.1113,2.1076,-3.6174,7.4435,0.5565
1315,9.5418,1.1879,2.0693,-2.1565,8.0,0.4174
1320,9.6567,1.1113,2.0693,-0.8348,8.487,0.0696
1325,9.6567,1.1113,2.1076,0.4174,9.0435,0.0
1330,9.6184,1.2263,2.031,1.3913,9.3913,-0.2783
1335,9.6184,1.2646,2.1076,1.8783,9.8783,-0.1391
1340,9.5801,1.3029,2.1459,2.087,10.1565,-0.2783
1345,9.4651,1.3029,2.1459,2.1565,10.6435,0.0
1350,9.5034,1.2646,2.1843,2.087,10.9217,0.0
1355,9.5034,1.3029,2.1459,2.087,11.2,0.2783
1360,9.5034,1.3412,2.2226,2.0174,11.1304,0.487
1365,9.5034,1.3412,2.1843,2.1565,11.1304,0.8348
1370,9.4268,1.3412,2.1459,2.2957,11.2696,0.9043
1375,9.4268,1.4179,2.2609,2.4348,11.2696,1.3217
1380,9.4268,1.4179,2.2609,2.713,11.1304,1.3913
1385,9.4651,1.4945,2.2992,2.9217,11.2,1.7391
1390,9.4651,1.4562,2.2609,3.1304,11.1304,1.8783
1395,9.5034,1.5328,2.3759,3.4087,11.0609,2.1565
1400,9.5034,1.7627,2.2609,3.2,11.1304,2.1565
1405,9.4651,1.6478,2.3375,3.0609,11.1304,2.4348
1410,9.5418,1.6478,2.3375,2.9913,11.2696,2.4348
1415,9.5418,1.7244,2.2992,2.7826,11.2696,2.7826
1420,9.6184,1.5711,2.4142,2.4348,11.2696,2.8522
1425,9.4651,1.8011,2.3375,2.0174,11.4783,2.9913
1430,9.5801,1.7627,2.5291,1.5304,11.6174,3.0609
1435,9.5418,1.7244,2.4142,0.9043,11.8261,3.3391
1440,9.6184,1.7627,2.4142,0.2783,11.9652,3.3391
1445,9.5801,1.6095,2.5291,-0.1391,12.1739,3.5478
1450,9.4268,1.6095,2.4908,-0.5565,12.4522,3.4783
1455,9.5034,1.6095,2.6058,-0.7652,12.5217,3.687
1460,9.4268,1.5328,2.4142,-0.9739,12.5217,3.6174
1465,9.5418,1.4179,2.6058,-0.9739,12.6609,3.7565
1470,9.5034,1.3795,2.4525,-1.0435,12.8,3.6174
1475,9.4268,1.3029,2.4908,-0.8348,13.0087,3.5478
1480,9.4651,1.2263,2.6441,-0.5565,13.287,3.3391
1485,9.4651,1.1496,2.4908,-0.4174,13.5652,3.3391
1490,9.4268,1.1496,2.5675,-0.2783,14.0522,3.2
1495,9.3118,1.1496,2.4525,0.0696,14.3304,3.1304
1500,9.2735,1.073,2.5675,0.2783,14.9565,2.9913
1505,9.2352,1.1113,2.4525,0.2783,15.3739,3.1304
1510,9.2352,0.958,2.4525,0.4174,15.7913,2.9913
1515,9.2735,1.0346,2.6058,0.7652,16.2087,3.2
1520,9.1969,1.073,2.6441,1.113,16.6957,3.2
1525,9.2352,0.9963,2.5675,1.4609,17.113,3.2
1530,9.1969,1.1113,2.6058,1.8087,17.4609,3.1304
1535,9.1586,1.1496,2.6824,2.087,17.8783,3.2696
1540,9.1202,1.1496,2.7591,2.4348,17.9478,3.2696
1545,9.1586,1.1496,2.7974,2.4348,18.1565,3.4087
1550,9.1202,1.3029,2.6824,2.1565,18.2957,3.4783
1555,9.1586,1.1879,2.6824,1.6696,18.2957,3.687
1560,9.0819,1.2646,2.874,1.1826,18.4348,3.7565
1565,9.1202,1.3029,2.9507,0.6261,18.4348,4.0348
1570,9.1202,1.3795,2.9123,-0.0696,18.2261,4.1739
1575,9.1586,1.3029,3.1039,-0.7652,18.0174,4.313
1580,9.1969,1.3029,2.9507,-1.3217,17.6,4.5913
1585,9.1586,1.3412,2.989,-1.8783,17.4609,4.6609
1590,9.1969,1.3412,3.0656,-2.2957,17.113,4.6609
1595,9.1969,1.5328,2.989,-2.5739,16.6957,4.8
1600,9.3118,1.3795,2.9507,-2.9913,16.4174,4.6609
1605,9.2352,1.5328,3.0273,-3.6174,16.0,4.5217
1610,9.3118,1.3795,2.989,-4.3826,15.6522,4.313
1615,9.1969,1.4562,3.0656,-5.0783,15.1652,4.1043
1620,9.2352,1.4562,2.9507,-5.8435,14.6783,3.8261
1625,9.1969,1.4179,2.989,-6.5391,14.0522,3.7565
1630,9.1586,1.2646,2.9507,-7.0261,13.4957,3.687
1635,9.1586,1.2646,3.0273,-7.3739,12.8,3.8261
1640,9.1969,1.1496,2.989,-7.5826,12.313,4.0348
1645,9.0436,1.1496,2.989,-7.8609,11.7565,4.1043
1650,9.0053,1.1496,2.989,-7.9304,11.3391,4.1739
1655,9.0436,0.9197,2.9507,-7.6522,11.0609,4.1739
1660,8.9286,1.0346,3.1423,-7.0957,10.713,4.1043
1665,8.9286,1.0346,3.0273,-6.3304,10.6435,4.1739
1670,9.0436,0.8047,3.1039,-5.3565,10.5043,4.1043
1675,9.0053,0.843,3.1423,-4.1739,10.6435,3.9652
1680,9.0053,0.843,3.0656,-2.9913,10.6435,3.8957
1685,9.0053,0.958,2.9507,-1.8783,10.5739,3.7565
1690,9.0053,0.9963,3.0656,-0.9739,10.5043,3.5478
1695,9.0053,1.073,2.989,-0.0696,10.5739,3.3391
1700,8.852,1.073,2.9123,0.487,10.6435,3.2696
1705,8.9286,1.1113,2.9507,0.7652,10.7826,3.0609
1710,9.0819,1.1113,3.0656,1.0435,10.713,2.9913
1715,9.1586,1.1113,3.1039,0.9739,10.713,2.9217
1720,9.0819,1.1113,2.9507,0.8348,10.5739,2.7826
1725,9.1202,1.1113,3.0273,0.6261,10.4348,2.5739
1730,9.1969,1.2263,2.9123,0.2783,10.2261,2.4348
1735,9.1586,1.1879,2.9507,-0.3478,9.8783,2.2957
1740,9.2352,1.1879,2.9507,-1.113,9.6696,2.0174
1745,9.2352,1.1496,3.1039,-1.8783,9.4609,1.8087
1750,9.1969,1.2263,3.0273,-2.5043,9.113,1.5304
1755,9.1969,1.1496,2.9123,-3.0609,8.8348,1.3217
1760,9.1969,1.073,3.0273,-3.3391,8.487,1.2522
1765,9.1586,0.958,2.989,-3.3391,8.0,1.1826
1770,9.1969,0.958,3.0656,-3.2,7.6522,1.113
1775,9.1202,0.9963,2.9507,-2.7826,7.2348,1.0435
1780,9.1586,0.8047,3.0656,-2.3652,6.8174,1.0435
1785,9.1969,0.7664,2.9507,-2.0174,6.6087,0.8348
1790,9.1586,0.7664,2.989,-1.5304,6.0522,0.6957
1795,9.0819,0.843,3.2189,-1.1826,5.7739,0.6261
1800,9.0436,0.7664,3.1039,-0.7652,5.6348,0.5565
1805,9.1202,0.8047,2.9507,-0.2783,5.6348,0.6261
1810,8.967,0.7664,3.1423,0.2783,5.4957,0.6261
1815,9.0819,0.843,3.1423,0.7652,5.4957,0.6261
1820,9.0053,0.7664,3.0656,1.1826,5.3565,0.7652
1825,9.0436,0.8047,2.989,1.6696,5.287,0.8348
1830,9.0819,0.6898,3.1423,2.0174,5.1478,1.0435
1835,9.0819,0.8047,3.2572,2.4348,5.2174,1.113
1840,9.0436,0.7664,3.0656,2.713,5.1478,1.1826
1845,9.0819,0.843,3.1039,2.9913,5.2174,1.0435
1850,9.0819,0.9197,3.1039,3.1304,5.287,1.1826
1855,9.0819,0.958,3.0656,3.2,5.2174,1.0435
1860,9.0436,0.9963,3.1423,3.2,5.2174,0.9739
1865,9.1586,0.958,3.0656,3.1304,5.1478,0.8348
1870,9.1586,0.9197,3.1039,3.0609,4.8696,0.8348
1875,9.1969,0.9197,3.1806,2.8522,4.6609,0.6261
1880,9.1202,1.0346,3.1423,2.6435,4.5217,0.6261
1885,9.1586,1.0346,3.0273,2.2261,4.0348,0.487
1890,9.1969,0.958,2.9123,1.8783,3.6174,0.4174
1895,9.1202,0.9963,2.8357,1.3913,3.3391,0.3478
1900,9.1969,0.958,3.0656,1.0435,3.1304,0.3478
1905,9.1586,1.0346,3.0656,0.6957,2.8522,0.1391
1910,9.1586,0.958,2.9507,0.6261,2.713,0.0
1915,9.2352,0.8814,2.989,0.5565,2.4348,-0.2783
1920,9.1586,0.958,3.0273,0.6957,2.2261,-0.4174
1925,9.1969,0.843,2.989,1.113,2.2261,-0.6261
1930,9.1969,0.9197,2.9507,1.3913,2.087,-0.6957
1935,9.1969,0.8814,3.0273,1.8087,1.9478,-0.9043
1940,9.1586,0.9197,2.8357,2.2261,1.8783,-0.9739
1945,9.1969,0.8814,2.874,2.5043,1.7391,-1.3217
1950,9.1202,0.8814,2.874,2.9217,1.6,-1.3217
1955,9.1586,0.9963,3.0273,3.2696,1.4609,-1.6696
1960,9.1202,0.9963,3.0656,3.5478,1.3913,-1.7391
1965,9.1586,1.073,3.1039,3.7565,1.1826,-1.8783
1970,9.0819,1.073,2.989,4.0348,1.0435,-1.9478
1975,9.1202,1.1496,2.989,4.1739,0.8348,-2.1565
1980,9.0819,1.1879,3.1423,4.3826,0.7652,-2.1565
1985,9.1969,1.1113,3.0656,4.5217,0.6261,-2.2261
1990,9.1969,1.1879,3.1039,4.3826,0.487,-2.087
1995,9.1586,1.2263,2.9123,4.0348,0.487,-2.2261
2000,9.1202,1.1879,3.1039,3.6174,0.2783,-1.9478
2005,9.1586,1.2646,3.0656,3.1304,0.2783,-1.8783
2010,9.2352,1.1879,2.989,2.5043,0.0696,-1.6
2015,9.1586,1.1496,2.9507,1.8783,0.1391,-1.4609
2020,9.2352,1.3029,2.989,1.3217,0.2087,-1.2522
2025,9.1202,1.1879,2.9507,0.9043,0.1391,-1.113
2030,9.1969,1.1496,2.9507,0.6261,0.2783,-0.9043
2035,9.1586,1.1113,3.0273,0.3478,0.3478,-0.9739
2040,9.2352,1.1113,3.0656,0.4174,0.2783,-0.8348
2045,9.1969,1.073,2.989,0.4174,0.4174,-0.9739
2050,9.1586,1.1113,2.874,0.6261,0.7652,-0.9043
2055,9.1586,1.073,2.9123,0.8348,0.9739,-1.113
2060,9.1586,1.1879,2.9123,1.0435,1.2522,-1.113
2065,9.2352,1.1113,2.874,1.2522,1.4609,-1.3913
2070,9.1969,1.1879,2.9123,1.3913,1.7391,-1.3217
2075,9.1969,1.1113,2.8357,1.4609,1.8783,-1.6
2080,9.1969,1.2263,2.9507,1.6,2.087,-1.6
2085,9.1586,1.2646,2.989,1.4609,2.0174,-1.8783
2090,9.1969,1.1496,2.9123,1.5304,2.087,-1.8087
2095,9.1586,1.1879,2.9123,1.3913,2.087,-2.087
2100,9.2735,1.1879,2.874,1.2522,2.2261,-1.9478
2105,9.1969,1.1879,2.874,1.1826,2.2261,-2.2261
2110,9.1969,1.1496,2.9123,0.9739,2.2261,-2.1565
2115,9.1969,1.1113,3.0273,1.113,2.1565,-2.2261
2120,9.1969,1.2263,2.874,1.2522,2.087,-2.087
2125,9.1969,1.3029,2.9507,1.3217,1.9478,-2.2957
2130,9.1969,1.1496,2.989,1.2522,1.9478,-2.1565
2135,9.1969,1.2263,2.9123,1.2522,1.9478,-2.2957
2140,9.1969,1.2263,2.9123,1.1826,1.8783,-2.1565
2145,9.1586,1.1496,2.9123,1.0435,1.8087,-2.3652
2150,9.1969,1.3029,2.874,0.8348,1.8087,-2.1565
2155,9.2735,1.1879,3.0273,0.5565,1.8087,-2.2957
2160,9.1969,1.1879,2.9507,0.3478,1.9478,-2.1565
2165,9.1969,1.2646,2.989,0.2783,2.0174,-2.2261
2170,9.1586,1.2263,2.9507,0.0696,2.0174,-2.0174
2175,9.1969,1.0346,2.9123,-0.1391,2.0174,-2.2261
2180,9.1969,1.1879,2.874,-0.0696,2.1565,-2.1565
2185,9.2352,1.2263,2.9507,-0.2087,2.1565,-2.2957
2190,9.2352,1.2263,2.989,-0.2087,2.2261,-2.1565
2195,9.1969,1.2646,2.7974,-0.3478,2.2957,-2.2957
2200,9.2352,1.2646,2.989,-0.4174,2.2261,-2.1565
2205,9.3118,1.2263,2.9123,-0.6957,2.0174,-2.3652
2210,9.2352,1.1496,2.9123,-0.9043,1.8783,-2.087
2215,9.2352,1.2646,2.989,-1.113,1.5304,-2.3652
2220,9.2735,1.1879,2.8357,-1.6,1.3217,-2.1565
2225,9.2735,1.1113,2.9507,-2.0174,1.0435,-2.4348
2230,9.3118,1.073,3.0656,-2.4348,0.9739,-2.3652
2235,9.3502,1.1879,2.874,-2.7826,1.0435,-2.6435
2240,9.2352,1.1879,2.9123,-2.9913,0.9043,-2.5739
2245,9.2352,1.1879,2.9123,-3.2696,0.8348,-2.9217
2250,9.2735,1.0346,2.7591,-3.4087,0.6957,-2.7826
2255,9.1969,1.1496,2.874,-3.4783,0.6261,-2.9913
2260,9.1586,1.3412,2.9123,-3.6174,0.3478,-2.9217
2265,9.2352,1.1496,2.874,-3.5478,0.1391,-2.9913
2270,9.2352,1.3029,2.9507,-3.7565,-0.1391,-2.7826
2275,9.3118,1.1113,2.9507,-3.9652,-0.487,-2.7826
2280,9.3118,1.3029,2.8357,-4.0348,-0.6957,-2.5043
2285,9.3118,1.1879,2.9123,-4.2435,-1.0435,-2.6435
2290,9.2735,1.3412,2.874,-4.5913,-1.2522,-2.3652
2295,9.1969,1.2263,2.874,-4.8,-1.3913,-2.5043
2300,9.1969,1.2646,2.6824,-4.9391,-1.2522,-2.2261
2305,9.2352,1.1879,2.6824,-5.0087,-1.1826,-2.3652
2310,9.1969,1.1879,2.7207,-5.0783,-1.1826,-2.2261
2315,9.1969,1.2263,2.8357,-5.0087,-0.9043,-2.3652
2320,9.2735,1.1113,2.874,-4.8,-0.5565,-2.1565
2325,9.2352,1.1113,2.9123,-4.6609,-0.3478,-2.4348
2330,9.2735,1.1496,2.7591,-4.7304,-0.1391,-2.3652
2335,9.1969,1.2646,2.7591,-4.5217,0.0,-2.6435
2340,9.1586,1.2263,2.8357,-4.4522,0.2087,-2.4348
2345,9.1969,1.3795,2.874,-4.3826,0.3478,-2.713
2350,9.3118,1.2263,2.8357,-4.4522,0.4174,-2.5739
2355,9.2735,1.2263,2.7974,-4.6609,0.6261,-2.713
2360,9.3118,1.1496,2.7974,-4.6609,0.5565,-2.5739
2365,9.1969,1.3029,2.8357,-4.9391,0.6261,-2.6435
2370,9.2735,1.3795,2.7591,-5.2174,0.6261,-2.5043
2375,9.2352,1.2646,2.7207,-5.5652,0.6957,-2.6435
2380,9.2735,1.2263,2.7207,-5.8435,0.9043,-2.5043
2385,9.3885,1.2646,2.8357,-6.1913,0.9043,-2.5739
2390,9.2352,1.3029,2.8357,-6.2609,1.0435,-2.4348
2395,9.2735,1.2646,2.7591,-6.4,1.0435,-2.713
2400,9.3885,1.2646,2.8357,-6.6783,1.0435,-2.4348
2405,9.3502,1.3029,2.7974,-6.7478,0.9043,-2.6435
2410,9.3118,1.1879,2.6824,-6.9565,0.9043,-2.5739
2415,9.3118,1.3029,2.8357,-7.0957,0.6957,-2.713
2420,9.4268,1.3412,2.7591,-7.3043,0.487,-2.4348
2425,9.3885,1.3412,2.6824,-7.4435,0.2087,-2.4348
2430,9.2352,1.4945,2.6824,-7.7913,-0.1391,-2.0174
2435,9.4268,1.3795,2.6824,-8.1391,-0.4174,-2.0174
2440,9.5034,1.3412,2.7591,-8.5565,-0.8348,-1.7391
2445,9.2735,1.4562,2.7591,-8.8348,-1.3217,-1.8087
2450,9.3118,1.3795,2.6824,-9.3913,-1.5304,-1.4609
2455,9.3885,1.3795,2.7207,-9.8783,-1.7391,-1.6
2460,9.3885,1.3795,2.7974,-10.2957,-2.1565,-1.1826
2465,9.2352,1.3795,2.6441,-10.6435,-2.4348,-1.2522
2470,9.3885,1.3029,2.6058,-10.9913,-2.5739,-0.9739
2475,9.4651,1.3029,2.7207,-11.2,-2.7826,-1.0435
2480,9.4651,1.3412,2.6441,-11.4087,-2.8522,-0.8348
2485,9.3118,1.3795,2.7207,-11.687,-2.8522,-0.8348
2490,9.3502,1.1879,2.5675,-11.7565,-2.8522,-0.6261
2495,9.3118,1.3029,2.6058,-11.7565,-2.8522,-0.8348
2500,9.3502,1.2646,2.5675,-11.9652,-2.713,-0.7652
2505,9.3502,1.2263,2.6824,-12.0348,-2.5043,-0.8348
2510,9.3118,1.2263,2.7207,-12.1739,-2.2957,-0.7652
2515,9.3118,1.1496,2.6441,-12.2435,-2.2957,-0.9739
2520,9.3502,1.1879,2.7974,-12.1739,-2.2261,-0.9739
2525,9.3118,1.2263,2.6058,-12.1043,-2.3652,-1.0435
2530,9.3885,1.1496,2.6824,-12.0348,-2.5043,-0.9043
2535,9.2735,1.1496,2.7591,-11.8957,-2.713,-0.9043
2540,9.2735,1.2646,2.7974,-11.8261,-2.9913,-0.7652
2545,9.3118,1.1879,2.6441,-11.7565,-3.2,-0.7652
2550,9.3502,1.1113,2.6441,-11.8957,-3.3391,-0.5565
2555,9.3118,1.1113,2.7207,-11.9652,-3.5478,-0.7652
2560,9.3118,1.1879,2.6441,-12.1043,-3.687,-0.6957
2565,9.2735,1.1879,2.7207,-12.1739,-3.6174,-1.0435
2570,9.3118,1.1496,2.7591,-12.4522,-3.4783,-0.9739
2575,9.3885,1.073,2.7591,-12.6609,-3.4783,-1.113
2580,9.3118,1.1496,2.5675,-12.8696,-3.4783,-1.0435
2585,9.3502,1.1113,2.6058,-12.9391,-3.1304,-1.3217
2590,9.3118,1.2263,2.5291,-12.9391,-3.1304,-1.2522
2595,9.3118,1.1879,2.6824,-12.9391,-2.9913,-1.3913
2600,9.3502,1.2263,2.4908,-12.9391,-3.0609,-1.3217
2605,9.2735,1.1113,2.6058,-12.8,-2.9913,-1.3913
2610,9.3118,1.1496,2.6058,-12.8,-2.9913,-1.113
2615,9.1969,1.1496,2.7974,-12.6609,-3.1304,-1.1826
2620,9.3502,1.1496,2.4525,-12.5217,-3.2696,-1.113
2625,9.2735,1.1496,2.5675,-12.4522,-3.3391,-1.1826
2630,9.2735,1.1113,2.5291,-12.5913,-3.4087,-0.9043
2635,9.3502,1.1113,2.6058,-12.6609,-3.5478,-0.9043
2640,9.3118,1.073,2.4908,-12.8,-3.687,-0.8348
2645,9.2735,1.1496,2.4525,-12.8696,-3.6174,-0.9739
2650,9.3502,1.2263,2.4908,-12.8696,-3.4087,-1.0435
2655,9.3885,1.2263,2.4525,-13.0087,-3.2696,-1.113
2660,9.3118,1.1496,2.4908,-12.9391,-3.1304,-1.0435
2665,9.4651,1.1113,2.4525,-12.5913,-2.9913,-1.2522
2670,9.3118,1.2646,2.4525,-12.3826,-2.7826,-1.113
2675,9.3502,1.0346,2.3375,-11.8957,-2.713,-1.1826
2680,9.4268,1.1496,2.4142,-11.4087,-2.6435,-1.0435
2685,9.3118,1.0346,2.4142,-10.9217,-2.4348,-1.113
2690,9.4651,1.073,2.3375,-10.2261,-2.2261,-0.9739
2695,9.2735,0.958,2.3759,-9.3913,-2.0174,-1.0435
2700,9.4268,1.0346,2.2609,-8.6957,-1.6,-1.0435
2705,9.2735,1.1113,2.2609,-7.8609,-1.113,-1.1826
2710,9.2735,1.073,2.3759,-7.0261,-0.5565,-1.0435
2715,9.4268,1.0346,2.4908,-5.9826,0.0696,-0.9043
2720,9.3885,1.0346,2.5291,-5.2174,0.487,-0.9043
2725,9.2352,1.1113,2.4142,-4.4522,0.9739,-1.0435
2730,9.2735,1.1496,2.4908,-3.9652,1.3913,-0.9043
2735,9.3502,1.1113,2.3375,-3.4087,1.8087,-0.9043
2740,9.3118,1.1496,2.4142,-3.1304,2.2957,-0.6957
2745,9.3502,1.1879,2.2609,-3.0609,2.4348,-0.6957
2750,9.1969,1.1879,2.3759,-2.9913,2.7826,-0.6957
2755,9.3118,1.2263,2.4908,-3.2,3.1304,-0.7652
2760,9.3502,1.1496,2.3759,-3.4783,3.3391,-0.6957
2765,9.3502,1.1879,2.3759,-3.7565,3.4783,-0.7652
2770,9.3118,1.2646,2.3375,-3.9652,3.7565,-0.7652
2775,9.4268,1.2646,2.3375,-4.0348,3.7565,-0.9739
2780,9.3885,1.2263,2.2609,-4.1043,3.9652,-0.8348
2785,9.4651,1.1496,2.2226,-3.9652,4.1043,-0.8348
2790,9.5418,1.1496,2.7207,-3.7565,4.2435,-0.6957
2795,9.2735,1.3029,2.2609,-3.5478,4.3826,-0.6957
2800,9.3502,1.1496,2.3759,-2.9913,4.5217,-0.5565
2805,9.3118,1.1496,2.3759,-2.2957,4.6609,-0.487
2810,9.2735,1.2646,2.1843,-1.3913,4.9391,-0.3478
2815,9.3118,1.1879,2.2992,-0.2783,5.1478,-0.2087
2820,9.3502,0.9963,2.2609,0.8348,5.4957,-0.1391
2825,9.2735,1.1879,2.1459,1.8783,5.9826,-0.0696
2830,9.3885,1.073,2.1843,2.713,6.6087,-0.0696
2835,9.3118,1.073,2.2226,3.6174,7.0957,0.0
2840,9.3885,1.2263,2.0693,4.1739,7.6522,0.2087
2845,9.2735,1.073,2.1843,4.6609,8.2783,0.1391
2850,9.3118,1.1496,2.1843,5.0087,9.0435,0.2783
2855,9.4268,0.9963,2.3759,5.287,9.5304,0.1391
2860,9.3118,1.1879,2.2992,5.4261,10.2957,0.1391
2865,9.2352,1.1496,2.1459,5.7043,10.713,0.0696
2870,9.4651,1.0346,2.4908,5.6348,11.2,0.0696
2875,9.5034,1.1496,2.2609,5.7739,11.5478,0.0
2880,9.3885,1.0346,2.4142,5.913,11.8957,0.0
2885,9.4651,1.073,2.4525,6.0522,11.8957,0.0
2890,9.5034,1.073,2.6441,6.2609,11.8957,0.0
2895,9.4651,1.0346,2.5291,6.4,11.687,-0.0696
2900,9.5418,1.0346,2.5291,6.4696,11.6174,0.0
2905,9.3885,1.073,2.7207,6.5391,11.4087,-0.0696
2910,9.4651,0.9963,2.6441,6.4,11.0609,-0.1391
2915,9.5034,1.1113,2.7207,6.3304,10.4348,-0.1391
2920,9.4651,1.2263,2.7591,6.2609,10.0174,-0.1391
2925,9.3885,1.1879,2.7591,5.9826,9.4609,-0.1391
2930,9.3885,1.1113,2.7591,5.6348,8.6957,-0.1391
2935,9.3118,1.1879,2.6824,5.287,7.9304,-0.0696
2940,9.3118,1.2646,2.6824,4.8,7.3739,0.0
2945,9.4268,1.073,2.7207,4.313,6.6087,0.0696
2950,9.2352,1.1496,2.7591,3.687,5.9826,0.2087
2955,9.2735,1.073,2.6058,3.0609,5.5652,0.2087
2960,9.3502,1.1879,2.6441,2.5739,5.1478,0.1391
2965,9.2352,1.2646,2.7591,2.087,4.7304,0.2087
2970,9.2352,1.1879,2.6058,1.8087,4.8,0.0
2975,9.4651,1.1113,2.6441,1.5304,4.7304,-0.1391
2980,9.3502,1.1113,2.6058,1.3913,4.8,-0.2087
2985,9.2735,1.1496,2.6058,1.3217,4.8,-0.3478
2990,9.3118,1.2263,2.7207,1.3217,4.6609,-0.487
2995,9.2352,1.1496,2.6824,1.3217,4.6609,-0.5565
