timestamp,accX,accY,accZ,gyroX,gyroY,gyroZ
0,0.2682,-4.2152,7.8173,-1.9478,4.5217,-0.5565
5,0.3066,-4.1769,7.8557,-1.9478,4.5217,-0.6957
10,0.2299,-4.1386,7.8557,-2.1565,4.5913,-0.6957
15,0.1916,-4.1386,7.8173,-2.2261,4.5913,-0.7652
20,0.1916,-4.1003,7.7024,-2.4348,4.5913,-0.6957
25,0.1916,-4.1386,7.779,-2.4348,4.5913,-0.8348
30,0.2299,-4.1003,7.6641,-2.5043,4.5217,-0.6957
35,0.1533,-4.2152,7.7024,-2.8522,4.5217,-0.9043
40,0.3066,-4.1769,7.6257,-2.9913,4.4522,-0.7652
45,0.3066,-4.2919,7.779,-3.0609,4.5217,-0.9043
50,0.2299,-4.062,7.8173,-3.2696,4.4522,-0.8348
55,0.2299,-4.2536,7.6257,-3.4087,4.5217,-1.0435
60,0.115,-4.1003,7.779,-3.6174,4.3826,-0.9043
65,0.1916,-4.1386,7.7407,-3.8261,4.5913,-0.9739
70,0.2299,-4.2536,7.8173,-4.0348,4.5217,-0.9043
75,0.2299,-4.1769,7.779,-4.2435,4.5217,-1.0435
80,0.1916,-4.2536,7.779,-4.3826,4.5217,-0.9043
85,0.2299,-4.1386,7.779,-4.5217,4.3826,-1.0435
90,0.3066,-4.2536,7.779,-4.6609,4.3826,-0.9043
95,0.1533,-4.2152,7.7407,-4.8,4.4522,-1.0435
100,0.2682,-4.1003,7.8173,-4.9391,4.3826,-1.0435
105,0.1533,-4.1386,7.6257,-5.0783,4.2435,-1.1826
110,0.2682,-4.1003,7.6257,-5.2174,4.2435,-1.113
115,0.1533,-4.2152,7.894,-5.3565,4.3826,-1.1826
120,0.1916,-4.1769,7.7024,-5.4957,4.313,-1.0435
125,0.2299,-4.1386,7.6641,-5.6348,4.313,-1.1826
130,0.1533,-4.1769,7.6641,-5.8435,4.313,-1.0435
135,0.1916,-4.2919,7.779,-5.913,4.1739,-1.1826
140,0.1916,-4.2536,7.6257,-6.0522,4.313,-1.0435
145,0.2299,-4.3302,7.779,-6.1913,4.1739,-1.113
150,0.1916,-4.2152,7.7407,-6.4,4.2435,-1.0435
155,0.2299,-4.2919,7.6641,-6.4,4.2435,-1.1826
160,0.2299,-4.3302,7.6257,-6.4696,4.2435,-0.9739
165,0.1533,-4.2152,7.6641,-6.4,4.0348,-1.2522
170,0.2682,-4.2919,7.8173,-6.4696,4.0348,-0.9739
175,0.3449,-4.2536,7.7024,-6.4,3.9652,-1.1826
180,0.2299,-4.2919,7.8173,-6.4,3.9652,-1.0435
185,0.2299,-4.2536,7.7024,-6.4696,3.9652,-1.2522
190,0.2682,-4.2919,7.7024,-6.3304,3.9652,-1.113
195,0.3449,-4.3302,7.5108,-6.4696,3.8957,-1.2522
200,0.1916,-4.4068,7.8557,-6.4696,3.9652,-1.113
205,0.2299,-4.3302,7.779,-6.5391,3.8957,-1.113
210,0.2682,-4.2919,7.7024,-6.5391,3.8957,-1.113
215,0.2299,-4.2919,7.6641,-6.6087,3.8957,-1.3217
220,0.3066,-4.4452,7.779,-6.6783,3.9652,-1.1826
225,0.3449,-4.4068,7.6641,-6.6783,4.0348,-1.3217
230,0.3066,-4.3302,7.8173,-6.6087,4.1043,-1.113
235,0.2299,-4.3685,7.6641,-6.6783,4.1043,-1.1826
240,0.3066,-4.4452,7.8557,-6.4696,4.1043,-1.1826
245,0.2299,-4.2919,7.779,-6.3304,4.1043,-1.2522
250,0.2682,-4.4452,7.8557,-6.1913,4.1043,-1.0435
255,0.3832,-4.3685,7.6257,-6.0522,4.2435,-1.113
260,0.3066,-4.4068,7.6641,-5.913,4.1043,-1.0435
265,0.3066,-4.4452,7.6641,-5.7043,4.2435,-1.0435
270,0.2682,-4.4068,7.7407,-5.7739,4.313,-0.8348
275,0.3066,-4.5218,7.7407,-5.4957,4.313,-0.8348
280,0.3449,-4.4452,7.7024,-5.4261,4.3826,-0.6957
285,0.2682,-4.3302,7.7407,-5.2174,4.4522,-0.7652
290,0.2682,-4.5601,7.7024,-4.8696,4.4522,-0.6261
295,0.3449,-4.4835,7.5874,-4.8696,4.5913,-0.6957
300,0.2682,-4.4068,7.5874,-4.6609,4.5913,-0.487
305,0.2682,-4.4452,7.7024,-4.5217,4.5913,-0.6261
310,0.3066,-4.4068,7.5491,-4.313,4.5217,-0.487
315,0.3066,-4.4068,7.6641,-4.1739,4.4522,-0.487
320,0.3066,-4.4835,7.6641,-3.7565,4.313,-0.4174
325,0.3066,-4.4452,7.6257,-3.5478,4.1739,-0.4174
330,0.2682,-4.4452,7.5874,-3.3391,4.0348,-0.3478
335,0.1916,-4.4068,7.779,-3.2696,3.9652,-0.3478
340,0.2682,-4.3685,7.7407,-3.1304,3.9652,-0.2783
345,0.3449,-4.3685,7.7407,-2.9913,3.8957,-0.4174
350,0.3449,-4.3685,7.7024,-3.0609,3.8957,-0.4174
355,0.1533,-4.4068,7.7407,-3.0609,3.8261,-0.487
360,0.2299,-4.3302,7.6257,-3.0609,3.8957,-0.487
365,0.2682,-4.4452,7.7407,-3.1304,3.9652,-0.5565
370,0.1533,-4.3685,7.6257,-3.3391,4.0348,-0.7652
375,0.2299,-4.3302,7.6257,-3.7565,4.0348,-0.7652
380,0.2299,-4.2919,7.6641,-3.9652,4.1043,-0.8348
385,0.2682,-4.2536,7.7407,-4.1043,4.2435,-0.8348
390,0.2299,-4.2152,7.6257,-4.3826,4.3826,-0.8348
395,0.2682,-4.3302,7.6641,-4.6609,4.3826,-0.9043
400,0.3066,-4.3302,7.779,-4.7304,4.5217,-0.9043
405,0.2299,-4.4068,7.6641,-4.8696,4.5913,-0.8348
410,0.1916,-4.3685,7.5874,-4.9391,4.6609,-0.9043
415,0.2682,-4.5218,7.6257,-5.0087,4.6609,-0.9043
420,0.1916,-4.4452,7.5108,-5.0783,4.7304,-0.9739
425,0.2299,-4.4835,7.5108,-5.0087,4.6609,-0.9739
430,0.2299,-4.4452,7.6257,-5.0087,4.7304,-0.8348
435,0.3066,-4.5218,7.5491,-4.8,4.6609,-0.8348
440,0.2682,-4.4835,7.5874,-4.7304,4.5913,-0.9043
445,0.3449,-4.4835,7.779,-4.5217,4.5217,-0.6957
450,0.3066,-4.5984,7.5108,-4.313,4.5913,-0.7652
455,0.3066,-4.4068,7.5491,-4.2435,4.4522,-0.6261
460,0.2299,-4.5601,7.5874,-4.0348,4.3826,-0.6261
465,0.2682,-4.5984,7.6257,-3.9652,4.4522,-0.6261
470,0.3832,-4.4835,7.7024,-3.7565,4.3826,-0.6261
475,0.2299,-4.4835,7.6641,-3.6174,4.3826,-0.6261
480,0.3832,-4.5218,7.6641,-3.4783,4.3826,-0.6957
485,0.1916,-4.5218,7.5491,-3.4783,4.3826,-0.5565
490,0.3449,-4.4835,7.5874,-3.4087,4.2435,-0.6261
495,0.2299,-4.5601,7.6257,-3.3391,4.313,-0.4174
500,0.3066,-4.4835,7.6257,-3.2696,4.313,-0.6261
505,0.3832,-4.4835,7.6257,-3.3391,4.1739,-0.487
510,0.2682,-4.4068,7.5108,-3.2696,4.1739,-0.5565
515,0.1916,-4.5218,7.5108,-3.2,4.1739,-0.4174
520,0.3449,-4.4835,7.6257,-3.2,4.0348,-0.487
525,0.3066,-4.5601,7.5491,-3.1304,4.0348,-0.3478
530,0.1916,-4.4835,7.5874,-3.0609,4.1739,-0.3478
535,0.3066,-4.4452,7.5874,-2.9913,4.1739,-0.4174
540,0.2682,-4.4835,7.6257,-2.9913,4.1739,-0.4174
545,0.2299,-4.4068,7.5491,-2.9217,4.0348,-0.1391
550,0.2299,-4.4452,7.6641,-2.7826,4.1739,-0.2783
555,0.3066,-4.3685,7.6257,-2.8522,4.0348,-0.1391
560,0.3449,-4.4452,7.5108,-2.8522,4.0348,-0.3478
565,0.2682,-4.5218,7.6641,-2.8522,4.1043,-0.2087
570,0.3066,-4.4835,7.6257,-2.7826,4.0348,-0.4174
575,0.2299,-4.4068,7.5874,-2.713,4.0348,-0.2783
580,0.1916,-4.5218,7.7024,-2.8522,4.1043,-0.487
585,0.2299,-4.5218,7.7024,-2.9913,4.1739,-0.3478
590,0.2682,-4.4835,7.6641,-2.9217,4.1739,-0.4174
595,0.2299,-4.5601,7.7024,-3.0609,4.2435,-0.2783
600,0.2299,-4.5601,7.6641,-3.1304,4.313,-0.4174
605,0.2299,-4.4835,7.5491,-3.2696,4.313,-0.2783
610,0.2299,-4.5601,7.5874,-3.2696,4.2435,-0.3478
615,0.3066,-4.5218,7.5108,-3.2,4.313,-0.0696
620,0.3066,-4.5218,7.4725,-3.1304,4.313,-0.3478
625,0.2682,-4.5601,7.5491,-2.9913,4.2435,-0.1391
630,0.3066,-4.4835,7.5874,-2.8522,4.2435,-0.3478
635,0.3066,-4.5218,7.5874,-2.7826,4.0348,-0.0696
640,0.2682,-4.5984,7.5874,-2.713,4.0348,-0.2087
645,0.3066,-4.5601,7.5108,-2.5739,3.9652,-0.0696
650,0.1916,-4.5218,7.5874,-2.6435,3.8957,-0.2087
655,0.2299,-4.4452,7.6257,-2.5739,4.0348,-0.0696
660,0.3066,-4.5218,7.6257,-2.6435,4.0348,-0.3478
665,0.1533,-4.5218,7.6257,-2.5739,3.8957,-0.0696
670,0.1916,-4.4835,7.5491,-2.5739,3.8957,-0.2087
675,0.3066,-4.5601,7.6641,-2.5739,4.0348,-0.0696
680,0.2682,-4.5984,7.6641,-2.6435,4.1043,-0.3478
685,0.3832,-4.6368,7.5491,-2.713,4.1739,-0.2087
690,0.2299,-4.5984,7.779,-2.6435,4.1739,-0.3478
695,0.3066,-4.4835,7.5874,-2.6435,4.2435,-0.2087
700,0.3832,-4.5601,7.5491,-2.5739,4.2435,-0.4174
705,0.2682,-4.6368,7.5491,-2.6435,4.3826,-0.3478
710,0.2682,-4.5218,7.7024,-2.6435,4.2435,-0.5565
715,0.3449,-4.5984,7.5108,-2.713,4.2435,-0.4174
720,0.3066,-4.5601,7.5491,-2.713,4.2435,-0.5565
725,0.1916,-4.4835,7.5874,-2.713,4.2435,-0.4174
730,0.2299,-4.5601,7.6257,-2.713,4.2435,-0.5565
735,0.2682,-4.4452,7.6257,-2.5739,4.2435,-0.4174
740,0.2682,-4.5601,7.5108,-2.4348,4.1043,-0.5565
745,0.3066,-4.5601,7.4725,-2.2957,4.2435,-0.2783
750,0.3066,-4.4068,7.6257,-2.2261,4.1739,-0.3478
755,0.3449,-4.5984,7.5491,-2.2261,4.1043,-0.2783
760,0.1916,-4.5601,7.5874,-2.1565,4.1739,-0.487
765,0.3832,-4.5984,7.5108,-2.087,4.2435,-0.3478
770,0.3449,-4.4452,7.6257,-2.0174,4.3826,-0.5565
775,0.4598,-4.6368,7.7024,-1.9478,4.4522,-0.3478
780,0.2299,-4.4452,7.8173,-1.7391,4.7304,-0.6957
785,0.2682,-4.4068,7.8173,-1.3217,5.0783,-0.6957
790,0.4598,-4.4452,8.0089,-0.9043,5.287,-1.0435
795,0.3449,-4.4068,8.1622,-0.4174,5.287,-0.9739
800,0.1916,-4.3685,8.3155,0.4174,5.3565,-1.1826
805,0.2682,-4.2919,8.5838,1.4609,4.9391,-0.9739
810,0.2682,-4.3302,8.5454,2.2957,4.4522,-0.8348
815,0.2299,-4.2536,8.4688,2.7826,3.687,-0.6261
820,0.0766,-4.1769,8.5454,3.2,2.8522,-0.7652
825,0.0766,-4.1769,8.5838,3.3391,2.2261,-0.4174
830,0.0766,-4.1003,8.4305,2.8522,1.5304,0.2087
835,0.0383,-3.9853,8.2772,1.6696,0.487,1.1826
840,0.0383,-3.8704,7.8173,0.0,-0.7652,2.0174
845,0.0,-3.7554,7.6641,-2.6435,-1.8087,2.8522
850,0.0766,-3.6404,7.2042,-6.2609,-2.3652,3.2696
855,0.0766,-3.5255,6.7827,-10.9913,-2.4348,3.4783
860,0.115,-3.5255,6.5911,-16.487,-2.2957,3.4087
865,0.0766,-3.3339,6.3995,-22.6087,-2.2261,3.4783
870,0.0383,-3.3722,6.2845,-28.8,-2.087,3.2696
875,0.2299,-3.3339,6.4378,-34.713,-2.0174,3.2
880,0.1916,-3.4871,6.4761,-40.0,-2.0174,2.9217
885,0.2682,-3.5255,6.4378,-44.3826,-1.9478,2.713
890,0.2299,-3.6787,6.7827,-48.4174,-1.9478,2.5739
895,0.1916,-3.7554,6.936,-50.4348,-1.8783,2.5043
900,0.1533,-3.9087,7.1276,-51.3391,-1.6696,2.2261
905,0.1533,-4.062,7.2425,-51.3391,-1.4609,2.087
910,0.3066,-4.3685,7.4725,-50.4348,-0.9739,1.6
915,0.2682,-4.4835,7.3958,-49.113,-0.4174,1.2522
920,0.115,-4.79,7.3575,-47.3043,-0.0696,0.9043
925,0.1533,-4.8284,7.5874,-45.2174,0.0,0.5565
930,0.1916,-4.9433,7.6257,-42.7826,-0.0696,0.3478
935,0.1533,-4.9816,7.6641,-40.2783,-0.2783,0.4174
940,0.1533,-5.0966,7.5491,-37.6348,-0.5565,0.5565
945,0.1533,-5.2499,7.5108,-34.1565,-0.6261,0.7652
950,0.2682,-5.2116,7.5874,-30.8174,-1.113,1.113
955,0.3832,-5.2882,7.6641,-27.0609,-1.3217,1.6
960,0.3449,-5.2499,7.6641,-23.0261,-1.4609,2.2261
965,0.3066,-5.2882,7.5491,-18.9913,-1.8783,2.9913
970,0.3449,-5.2882,7.5108,-15.0261,-2.4348,3.7565
975,0.4215,-5.2882,7.3958,-11.4087,-2.713,4.6609
980,0.5365,-5.1732,7.2425,-8.5565,-2.8522,5.4957
985,0.6898,-5.02,7.2809,-6.8174,-2.713,6.0522
990,0.6898,-4.9433,7.0893,-6.1913,-2.2957,6.5391
995,0.6131,-4.9816,6.9743,-6.4696,-1.8783,6.7478
1000,0.6131,-4.8667,6.7827,-8.0,-1.3913,7.0957
1005,0.5748,-4.9433,6.8593,-9.6696,-1.0435,7.1652
1010,0.6898,-4.9433,6.5528,-11.687,-0.487,7.3043
1015,0.6514,-5.02,6.5911,-13.8435,0.0,7.0957
1020,0.7664,-5.1349,6.5145,-15.8609,0.2783,6.7478
1025,0.5748,-5.2116,6.4378,-17.4609,0.6261,5.9826
1030,0.6131,-5.3648,6.4761,-18.2261,1.0435,4.8696
1035,0.5748,-5.4415,6.5911,-17.2522,0.9043,3.6174
1040,0.5365,-5.748,6.5528,-14.3304,0.9043,2.3652
1045,0.4598,-6.1313,6.7827,-9.1826,0.5565,0.9043
1050,0.4982,-6.3229,6.7444,-2.3652,0.2087,0.0
1055,0.4982,-6.3995,6.8593,5.4957,-0.487,-1.3217
1060,0.4215,-6.5911,6.7061,14.7478,-1.2522,-1.9478
1065,0.3066,-6.4761,6.7827,21.7739,-1.9478,-2.3652
1070,0.4215,-6.3995,6.7061,27.6174,-2.4348,-2.087
1075,0.3449,-6.3229,6.9743,32.0,-2.5739,-1.6696
1080,0.2682,-6.0546,7.1276,34.5043,-2.3652,-0.8348
1085,0.4215,-5.4032,7.0509,34.7826,-1.9478,-0.4174
1090,0.3832,-5.02,7.2042,32.9739,-1.6696,0.1391
1095,0.1916,-4.4452,7.6257,29.287,-1.6696,0.487
1100,0.1533,-4.0236,7.894,24.3478,-2.0174,0.9043
1105,0.115,-3.6787,8.1622,18.5739,-2.5043,1.2522
1110,0.0,-3.2189,8.3921,12.1043,-3.0609,1.5304
1115,0.0766,-2.989,8.4688,3.3391,-3.4783,1.2522
1120,0.0383,-2.6824,8.5071,-4.7304,-3.4783,0.9043
1125,0.0383,-2.5675,8.7754,-13.287,-3.2696,-0.2087
1130,0.0766,-2.4525,8.8137,-22.2609,-2.713,-1.1826
1135,0.115,-2.3375,9.0053,-31.3739,-2.2957,-2.5739
1140,0.3449,-2.4142,9.0053,-40.2087,-1.9478,-3.687
1145,0.3066,-2.5291,9.0436,-48.6261,-1.8087,-5.2174
1150,0.3832,-2.6441,9.1202,-57.0435,-1.3913,-6.1217
1155,0.2682,-2.8357,8.852,-65.4609,-0.6957,-7.3043
1160,0.2682,-3.1039,8.5838,-74.2261,-0.1391,-8.0
1165,0.3066,-3.4871,8.1622,-83.4783,0.6957,-8.487
1170,0.3449,-3.8704,8.1239,-93.7043,2.087,-8.1391
1175,0.1533,-4.062,8.0089,-106.9217,3.0609,-8.0
1180,-0.0383,-4.2152,7.8557,-118.1913,3.8957,-7.3739
1185,0.0383,-4.6751,7.779,-129.2522,4.0348,-6.9565
1190,0.0383,-5.1732,7.8173,-139.7565,3.687,-6.4696
1195,-0.1533,-5.3648,7.6641,-148.8,3.4783,-6.4696
1200,-0.1533,-5.748,7.3575,-157.6348,3.3391,-5.913
1205,-0.2682,-6.0929,7.2809,-166.2609,3.6174,-5.3565
1210,0.0,-6.3995,7.2809,-174.8174,4.2435,-3.8957
1215,0.0,-6.6294,7.2042,-183.2348,5.8435,-2.8522
1220,0.0383,-7.0509,7.3192,-192.1391,7.6522,-2.1565
1225,0.3449,-7.2809,7.5491,-201.2522,8.9043,-1.3217
1230,0.4598,-7.9706,7.9323,-211.8261,9.3217,-0.1391
1235,0.3449,-8.3538,8.2389,-220.313,9.9478,0.5565
1240,0.6898,-8.8137,8.2389,-227.8261,9.3913,0.6957
1245,0.9963,-9.695,8.3155,-233.6,9.3913,0.487
1250,1.2263,-10.0399,8.5071,-237.913,9.5304,-0.2087
1255,1.6095,-10.883,8.2005,-241.2522,10.1565,-1.8783
1260,1.8011,-11.2279,8.2005,-244.1739,10.0174,-4.0348
1265,1.8011,-11.9559,8.2005,-247.8609,7.8609,-6.4
1270,2.1459,-13.1439,8.3538,-251.4783,4.8,-8.0
1275,2.1076,-13.872,8.737,-252.1043,1.6696,-10.087
1280,2.0693,-15.0216,9.3118,-246.887,-0.0696,-11.5478
1285,2.2609,-16.2095,10.0399,-233.0435,-0.3478,-11.5478
1290,2.2226,-17.1675,10.6914,-204.7304,1.4609,-9.8783
1295,2.1459,-18.0105,10.9213,-171.8261,4.0348,-8.1391
1300,1.8777,-18.3171,11.0746,-132.5217,6.1913,-6.8174
1305,1.7244,-18.0489,10.1166,-90.3652,7.5826,-6.7478
1310,1.7627,-17.2441,8.967,-49.1826,7.8609,-6.3304
1315,1.916,-16.0945,7.7407,-12.8696,7.4435,-6.6087
1320,1.8011,-14.9449,6.7827,15.8609,6.4696,-7.4435
1325,1.9543,-13.6804,5.4415,37.2174,5.8435,-8.7652
1330,1.8394,-12.4158,4.4452,51.1304,5.0087,-9.7391
1335,1.8394,-11.1512,3.4488,57.8087,4.0348,-11.4087
1340,1.6095,-10.1549,2.4908,57.8087,3.6174,-12.8696
1345,1.4179,-9.4268,1.8011,49.5304,3.4783,-14.2609
1350,1.2646,-8.5838,0.7664,37.0087,3.4783,-15.7217
1355,1.0346,-7.8557,0.2682,19.5478,3.4087,-17.3217
1360,0.9963,-7.5874,0.115,-2.087,3.6174,-17.7391
1365,0.6898,-7.4341,-0.0383,-26.0174,3.687,-16.9739
1370,0.6514,-7.5491,0.0,-49.3217,3.4087,-15.3043
1375,0.7664,-7.8557,0.115,-70.2609,3.0609,-13.7739
1380,0.958,-8.2389,0.3832,-87.513,2.3652,-12.2435
1385,1.0346,-8.6221,0.8047,-100.3826,1.7391,-11.4783
1390,1.1113,-8.852,1.3029,-108.3826,1.4609,-10.6435
1395,1.0346,-9.0053,1.6478,-111.3043,1.0435,-8.6957
1400,0.8814,-9.1586,2.2226,-107.2696,1.113,-5.5652
1405,0.9963,-9.6567,2.5291,-97.3217,2.3652,-2.3652
1410,0.7664,-9.7717,2.989,-81.3913,4.5913,0.0
1415,0.4982,-9.81,3.0656,-60.0348,6.8174,2.5739
1420,0.6131,-9.5418,2.9507,-34.5739,9.1826,5.1478
1425,0.3832,-9.0436,2.6441,-7.9304,11.2696,6.887
1430,0.3066,-8.4688,2.1459,17.7391,12.5217,7.6522
1435,0.3449,-7.7407,1.8777,40.6957,12.9391,7.513
1440,0.3066,-7.0893,1.3412,59.9652,13.287,7.0261
1445,0.115,-6.3995,0.6514,74.8522,14.0522,5.913
1450,0.0766,-5.6331,0.0766,85.5652,14.8174,5.4957
1455,0.1533,-5.0583,-0.3449,93.4261,16.2087,4.313
1460,0.0766,-4.1769,-1.0346,95.5826,16.9739,2.2957
1465,0.0,-3.5255,-1.2646,93.9826,17.6,1.5304
1470,0.0,-2.7591,-1.7627,89.7391,18.2261,1.8087
1475,0.0,-2.4142,-2.0693,83.0609,18.6435,2.5739
1480,0.0383,-2.1076,-2.4142,74.087,17.8783,3.7565
1485,0.0383,-1.916,-2.6441,63.4435,15.9304,4.5913
1490,0.0,-1.7627,-2.7207,52.0348,13.5652,4.5913
1495,0.0,-1.6861,-3.1039,39.7217,11.2696,4.7304
1500,0.0383,-1.5328,-3.1039,26.9913,8.6957,4.8
1505,0.0766,-1.7244,-3.2189,14.6087,6.3304,5.7739
1510,0.115,-1.9927,-3.1039,0.9043,3.4087,6.6087
1515,0.1916,-2.3375,-3.2189,-9.6,1.5304,6.4
1520,0.0766,-2.4525,-2.9507,-18.9217,-0.0696,6.1913
1525,0.3066,-2.9507,-2.6441,-26.5043,-1.8783,5.9826
1530,0.3449,-3.1423,-2.4142,-30.9565,-4.0348,4.7304
1535,0.3832,-3.3722,-2.3375,-33.8087,-6.2609,3.9652
1540,0.4982,-3.7937,-2.1843,-34.9913,-8.2087,3.5478
1545,0.6514,-3.947,-1.9543,-34.5739,-9.6696,3.2696
1550,0.7664,-4.1386,-1.6095,-32.6957,-10.8522,2.7826
1555,0.6898,-4.2536,-1.5711,-29.8435,-11.7565,2.2957
1560,0.6131,-4.3685,-1.5328,-26.4348,-12.313,2.087
1565,0.6131,-4.4835,-1.3795,-23.0957,-12.8,2.087
1570,0.6514,-4.6368,-1.4562,-19.2,-12.9391,2.087
1575,0.8047,-4.9433,-1.4945,-15.6522,-13.1478,2.2957
1580,0.7664,-5.02,-1.3412,-11.7565,-13.7739,2.2261
1585,0.8814,-5.1349,-1.4179,-7.6522,-14.3304,2.5043
1590,0.958,-4.905,-1.5328,-4.1739,-14.887,2.4348
1595,0.8814,-4.79,-1.3029,-1.6,-14.4696,2.8522
1600,0.9963,-4.7517,-1.3029,-0.0696,-13.7043,3.4783
1605,1.0346,-4.6751,-1.1113,0.3478,-12.6609,4.5217
1610,1.073,-4.3685,-0.8814,-0.8348,-11.2,5.6348
1615,1.1113,-4.2536,-0.4982,-3.4087,-9.8783,6.4
1620,1.0346,-4.4835,-0.2682,-7.0261,-8.4174,7.0261
1625,1.1496,-4.7517,0.0383,-11.8957,-7.3739,8.2783
1630,1.1879,-4.9433,0.3066,-15.0957,-6.9565,9.5304
1635,1.1879,-5.3265,0.8814,-17.6,-6.887,10.1565
1640,1.1496,-5.5181,0.9963,-18.9217,-6.8174,10.1565
1645,1.2263,-5.9013,1.4562,-19.687,-6.6087,10.3652
1650,1.2263,-6.2845,1.7244,-20.0348,-6.1217,10.2957
1655,1.2263,-6.7827,1.9543,-19.8261,-5.2174,10.4348
1660,1.3795,-7.1659,2.2609,-19.8261,-4.313,10.087
1665,1.2646,-7.5491,2.6824,-21.913,-4.0348,9.2522
1670,1.3029,-8.3155,3.6021,-24.9043,-3.3391,8.2087
1675,1.4179,-9.0819,4.1769,-27.5478,-1.7391,7.1652
1680,1.3795,-9.81,4.905,-28.7304,1.4609,6.0522
1685,1.1879,-10.4614,5.6714,-27.7565,3.7565,6.1217
1690,1.2646,-11.3811,6.2462,-24.2087,5.1478,6.6087
1695,1.1879,-12.2625,6.936,-18.0174,6.7478,7.6522
1700,0.9963,-13.1439,7.3575,-9.113,7.513,8.6957
1705,1.1879,-13.9103,7.3958,3.7565,7.9304,10.9913
1710,1.2646,-14.1402,7.3958,19.0609,7.9304,12.8696
1715,1.3412,-14.1019,7.5108,35.2,7.9304,13.7043
1720,1.1879,-13.9103,7.3575,51.8957,7.6522,12.8696
1725,1.1113,-13.872,7.0893,68.1043,6.8174,11.2696
1730,0.8814,-13.3355,6.9743,83.6174,5.6348,8.9739
1735,0.5365,-12.9139,6.8593,100.9391,4.3826,7.3043
1740,0.2682,-12.3008,6.5911,113.3913,3.1304,5.4957
1745,0.0766,-11.5727,6.2845,123.4783,1.9478,4.6609
1750,0.0,-10.768,5.9396,130.7826,0.7652,3.9652
1755,-0.0383,-10.0782,5.5948,135.3739,-0.4174,3.8261
1760,-0.115,-9.4651,5.4032,137.6,-1.6696,3.7565
1765,0.0,-9.0436,5.6331,137.7391,-2.8522,3.9652
1770,0.115,-8.7754,5.6714,137.0435,-4.1739,3.6174
1775,0.3449,-8.3155,6.0163,136.7652,-5.5652,2.9217
1780,0.3832,-8.0856,6.821,137.2522,-5.5652,1.8087
1785,0.8047,-8.2005,8.2389,140.2435,-4.1739,0.487
1790,0.4215,-9.1586,10.4614,150.887,-1.8087,-0.9739
1795,0.4982,-10.1166,12.4924,170.5739,0.2087,-1.6696
1800,0.5365,-11.1895,15.3664,200.5565,2.7826,-2.4348
1805,0.4982,-12.6457,18.8919,242.2261,5.913,-3.8261
1810,0.958,-14.1785,21.7659,296.3478,10.6435,-5.0087
1815,0.3066,-16.6693,24.1035,359.1652,16.3478,-4.8
1820,-0.115,-18.5854,22.9539,423.8609,20.8696,-0.8348
1825,-0.6131,-18.1255,18.4321,477.4261,19.2,7.4435
1830,-0.6898,-17.8956,12.0709,506.3652,13.7043,16.3478
1835,-0.7664,-16.9376,6.1696,500.313,6.4,19.9652
1840,-0.8814,-13.9486,2.1076,459.2,-1.8087,17.7391
1845,-0.5365,-11.6494,-0.4598,394.0174,-12.1043,11.0609
1850,-0.958,-7.3958,-1.6478,295.513,-16.7652,9.6
1855,0.5365,-3.0273,-0.5748,209.6,-18.6435,13.7739
1860,1.073,1.0346,1.1113,136.6261,-18.6435,15.1652
1865,0.5365,3.8704,2.2226,83.6174,-17.3217,14.5391
1870,-0.3066,4.6751,1.3029,44.7304,-14.8174,11.9652
1875,-0.3449,3.4488,0.0383,3.8261,-11.8957,9.3217
1880,0.0,1.4179,-0.0383,-48.487,-8.0696,5.7739
1885,0.3449,-0.4982,0.7281,-110.4,-3.8261,1.7391
1890,0.6898,-2.989,2.2609,-173.4957,0.0696,-3.5478
1895,0.115,-5.2882,4.9816,-229.287,3.6174,-10.3652
1900,0.3449,-7.5491,7.7407,-267.6174,6.1217,-16.3478
1905,0.7281,-8.8137,9.6567,-280.2087,7.0261,-19.3391
1910,0.7281,-9.5801,10.5764,-263.1652,7.3739,-22.6087
1915,0.8814,-9.8866,11.1129,-226.5739,7.8609,-23.9304
1920,0.7664,-9.7334,11.2279,-177.113,8.487,-23.1652
1925,0.6131,-9.2352,11.0746,-121.6,8.7652,-20.313
1930,0.2299,-8.2772,10.3848,-64.8348,8.0,-16.4174
1935,0.2299,-7.2042,10.1549,-10.9913,6.6087,-11.1304
1940,0.1533,-5.9396,9.7717,36.3826,5.6348,-6.6087
1945,0.0,-4.79,9.4268,74.9913,5.1478,-3.5478
1950,-0.1533,-3.5255,9.4268,103.7217,4.7304,-1.8087
1955,-0.3066,-2.4908,9.0819,123.1304,4.2435,0.3478
1960,-0.0766,-2.1459,8.737,135.3739,3.7565,2.5739
1965,0.0,-1.9543,8.6987,137.6696,4.8,5.4957
1970,0.115,-1.9543,8.0856,134.6783,7.1652,8.487
1975,0.2682,-2.0693,7.779,126.9565,10.3652,11.1304
1980,0.3066,-2.2992,7.4725,114.9913,13.3565,12.8696
1985,0.2299,-2.3375,7.1659,98.7826,15.3739,13.4957
1990,0.3449,-2.6058,7.0509,79.0261,15.7913,12.9391
1995,0.3832,-2.9123,7.0893,57.3913,14.7478,11.4783
2000,0.6131,-3.0656,6.9743,35.6174,13.1478,8.8348
2005,0.6898,-3.2572,7.3192,15.513,11.3391,5.4957
2010,0.7664,-3.4871,7.8173,-1.3217,9.9478,1.2522
2015,0.843,-3.6404,8.0089,-15.4435,8.5565,-1.9478
2020,1.2263,-4.0236,8.2389,-21.6348,7.3739,-4.7304
2025,1.4562,-4.1769,8.2005,-23.1652,6.4,-7.0261
2030,1.4179,-4.3685,8.1622,-20.8,5.7043,-8.9043
2035,1.4945,-4.4452,7.9323,-15.3739,5.0783,-9.8087
2040,1.3029,-4.3685,7.8173,-7.3739,4.1739,-9.8783
2045,1.3795,-4.6751,7.894,2.1565,3.2696,-9.3217
2050,1.4179,-4.7517,7.4341,11.9652,2.1565,-8.487
2055,1.3795,-4.79,7.1659,21.2174,1.3913,-7.513
2060,1.3412,-4.8284,6.8593,29.287,1.1826,-6.5391
2065,1.0346,-4.79,6.7061,35.5478,1.3217,-5.4261
2070,0.9963,-4.79,6.5911,40.9739,1.113,-4.5913
2075,0.9963,-4.79,6.3995,43.5478,1.2522,-3.4783
2080,0.843,-4.5601,6.5911,44.6609,1.7391,-2.3652
2085,0.6898,-4.6751,6.5911,44.3826,2.2261,-1.6696
2090,0.5748,-4.4452,6.8593,42.9217,2.3652,-0.9739
2095,0.6131,-4.4068,6.936,40.487,2.5043,-0.6957
2100,0.5365,-4.2919,7.1276,37.4261,2.713,-0.9043
2105,0.4982,-4.2536,7.3958,33.7391,2.9913,-1.3217
2110,0.3449,-4.1003,7.5108,29.7739,3.0609,-1.8783
2115,0.4215,-4.1769,7.5491,25.6696,2.8522,-2.6435
2120,0.4598,-4.1386,7.5491,21.4957,2.5739,-3.2696
2125,0.4598,-4.1003,7.779,16.487,2.2261,-3.8957
2130,0.4982,-4.1386,7.8557,12.5913,1.8783,-4.3826
2135,0.4982,-4.1003,7.779,9.3913,1.6,-5.0087
2140,0.5365,-4.2152,7.779,7.0957,1.6,-5.0087
2145,0.5748,-4.1386,7.894,5.5652,1.6696,-5.0087
2150,0.6898,-4.062,7.779,5.1478,1.8087,-4.6609
2155,0.6898,-4.1769,7.8173,5.4957,2.3652,-4.5217
2160,0.6514,-3.947,7.779,6.4696,2.8522,-4.0348
2165,0.6898,-3.832,7.7407,8.2087,3.4783,-3.8261
2170,0.7281,-3.7937,7.7024,10.2957,4.1739,-3.5478
2175,0.6898,-3.6787,7.5491,12.6609,4.4522,-3.2696
2180,0.6514,-3.6404,7.5108,15.6522,4.7304,-2.8522
2185,0.5748,-3.3722,7.4725,18.0174,4.6609,-2.9217
2190,0.6898,-3.4105,7.5491,20.0348,4.6609,-2.6435
2195,0.6898,-3.2955,7.5491,21.7739,4.3826,-2.6435
2200,0.7281,-3.1423,7.5108,22.9565,3.9652,-2.4348
2205,0.6514,-3.1423,7.5108,23.5826,3.4783,-2.5739
2210,0.7664,-3.1806,7.5108,23.7217,2.8522,-2.3652
2215,0.7664,-3.0656,7.6257,23.0957,2.5043,-2.5739
2220,0.843,-3.0273,7.5108,21.7043,2.2957,-2.5739
2225,0.9197,-3.0273,7.5108,19.9652,2.1565,-2.7826
2230,0.7281,-3.2189,7.7407,17.6,2.4348,-2.7826
2235,0.8814,-3.0656,7.8173,14.4,2.6435,-2.9913
2240,0.9197,-3.2189,7.779,11.6174,2.9913,-2.9913
2245,0.958,-3.2955,8.0089,8.9043,3.6174,-3.2696
2250,0.958,-3.4871,8.0856,6.4,4.3826,-3.2
2255,0.8814,-3.6021,8.2005,4.1739,5.3565,-3.4783
2260,0.8814,-3.7171,8.0856,2.1565,6.6087,-3.2696
2265,0.7664,-3.8704,8.2389,0.487,8.0,-3.6174
2270,0.7281,-3.947,8.1622,-1.0435,9.4609,-3.5478
2275,0.6131,-3.9853,8.0089,-2.2957,10.9913,-3.8261
2280,0.5365,-3.832,7.894,-3.4783,12.1043,-3.7565
2285,0.5748,-4.0236,8.0473,-4.6609,13.2174,-4.0348
2290,0.5365,-4.2152,7.8173,-5.4957,14.4,-4.1043
2295,0.4215,-4.1769,7.779,-6.4696,15.2348,-4.313
2300,0.4215,-4.1386,7.779,-6.9565,15.9304,-4.0348
2305,0.3066,-4.1386,7.6641,-7.3043,16.4174,-4.2435
2310,0.4215,-4.1386,7.779,-7.3739,16.6261,-4.1043
2315,0.2299,-4.1386,7.7407,-7.5826,16.6957,-4.1043
2320,0.4215,-4.1769,7.8173,-7.513,16.4174,-3.9652
2325,0.3832,-4.2536,7.7024,-7.5826,15.8609,-3.9652
2330,0.4982,-4.3302,7.7407,-7.513,15.3043,-3.8261
2335,0.5365,-4.2919,7.779,-7.3043,14.6087,-4.1043
2340,0.4598,-4.2152,7.779,-6.887,13.9826,-3.8957
2345,0.4598,-4.1769,7.6257,-6.1913,13.1478,-3.8957
2350,0.6514,-4.2536,7.6641,-5.3565,12.5217,-3.6174
2355,0.7281,-4.1769,7.779,-4.9391,12.0348,-3.687
2360,0.6514,-4.1386,7.7407,-5.0087,11.4783,-3.4783
2365,0.7281,-3.947,7.6257,-5.4957,10.8522,-3.7565
2370,0.6898,-3.9853,7.6641,-6.3304,10.4348,-3.5478
2375,0.6898,-3.9853,7.6257,-7.3739,9.8087,-3.7565
2380,0.8047,-4.062,7.6641,-8.7652,9.4609,-3.8261
2385,0.7664,-4.1003,7.6641,-10.2957,8.8348,-4.3826
2390,0.843,-4.1386,7.5491,-11.8957,8.3478,-4.313
2395,0.8814,-4.2536,7.5108,-13.4261,8.2087,-4.5217
2400,0.9197,-4.3302,7.779,-14.6087,8.2087,-4.4522
2405,0.843,-4.3685,7.779,-15.7913,8.2783,-4.7304
2410,0.8814,-4.5601,7.5874,-16.6261,8.487,-4.6609
2415,0.8814,-4.5601,7.7024,-17.1826,8.7652,-4.7304
2420,0.843,-4.5601,7.7407,-17.6696,8.7652,-4.4522
2425,0.9197,-4.7134,7.7024,-18.0174,8.9043,-4.4522
2430,0.8047,-4.905,7.779,-18.3652,8.9739,-4.2435
2435,0.843,-4.9433,7.6641,-18.2957,8.9739,-3.9652
2440,0.6131,-4.8284,7.6641,-18.2957,9.113,-3.5478
2445,0.6514,-4.905,7.6257,-17.9478,8.9739,-3.2696
2450,0.6898,-4.9816,7.6257,-17.3913,8.8348,-2.713
2455,0.6514,-5.0583,7.5108,-16.9739,8.487,-2.2261
2460,0.4982,-5.02,7.3192,-16.3478,8.2087,-1.4609
2465,0.6131,-5.0966,7.1659,-16.0696,7.7913,-0.9043
2470,0.5365,-5.1349,7.3575,-15.9304,7.3739,-0.4174
2475,0.3832,-5.02,7.1659,-15.9304,6.9565,0.0
2480,0.4982,-5.0966,7.2042,-16.3478,6.5391,0.487
2485,0.4215,-5.0966,7.0893,-16.7652,5.8435,0.6957
2490,0.3832,-5.1732,6.9743,-17.113,5.2174,0.9739
2495,0.3449,-5.02,7.1659,-17.3913,4.7304,1.113
2500,0.3066,-5.1349,7.0893,-17.4609,4.1043,1.3913
2505,0.2682,-5.0966,7.2042,-17.3217,3.4783,1.6
2510,0.1533,-5.1349,7.0126,-17.0435,2.9217,1.8783
2515,0.1916,-5.2882,7.0509,-16.5565,2.5043,1.9478
2520,0.0766,-5.2499,7.0126,-16.0,2.2957,2.087
2525,0.115,-5.2116,7.0893,-15.5826,2.2957,2.1565
2530,0.0383,-5.2882,7.1276,-15.1652,2.2261,2.3652
2535,0.0766,-5.3648,7.2425,-14.8174,2.1565,2.5739
2540,0.0383,-5.1732,7.1659,-14.0522,2.0174,2.7826
2545,0.115,-5.3265,7.2809,-13.2174,1.8783,2.9913
2550,0.1533,-5.4032,7.3192,-12.1043,1.7391,3.2
2555,0.2682,-5.3265,7.3575,-10.6435,1.8087,3.2
2560,0.0766,-5.0966,7.3958,-8.7652,2.1565,3.3391
2565,0.1916,-5.2882,7.3575,-6.6783,2.5043,3.2696
2570,0.2299,-5.2116,7.3192,-4.0348,2.7826,3.3391
2575,0.3066,-5.1732,7.3575,-2.087,3.0609,3.2696
2580,0.4215,-5.1732,7.4341,-0.1391,3.4783,3.2696
2585,0.4982,-5.2499,7.2809,1.3913,3.9652,3.4087
2590,0.5748,-5.1349,7.3575,2.713,4.2435,3.3391
2595,0.6131,-5.0583,7.3575,3.687,4.5913,3.5478
2600,0.6898,-5.1732,7.3958,4.4522,4.8696,3.4087
2605,0.843,-5.1349,7.3575,5.0087,5.2174,3.4087
2610,0.8814,-5.02,7.3575,5.3565,5.2174,3.4783
2615,0.8814,-5.0966,7.2809,5.5652,5.287,3.6174
2620,0.9197,-5.1349,7.3192,5.6348,5.3565,3.6174
2625,0.8814,-4.9816,7.3192,5.7043,5.287,3.5478
2630,0.8814,-4.9816,7.5491,5.7043,5.1478,3.5478
2635,0.8814,-5.0966,7.3958,5.7739,4.9391,3.6174
2640,0.8047,-5.0966,7.3958,5.7739,4.6609,3.4783
2645,0.6898,-5.0583,7.2042,5.8435,4.313,3.4087
2650,0.6131,-5.0966,7.3192,5.8435,4.2435,3.1304
2655,0.6898,-5.1349,7.4341,5.913,4.1739,3.0609
2660,0.7281,-5.1732,7.4341,5.9826,4.313,2.713
2665,0.6898,-5.02,7.4341,6.0522,4.4522,2.5043
2670,0.6898,-5.0583,7.5108,6.3304,4.5913,2.2261
2675,0.6514,-5.02,7.3575,6.8174,4.8696,2.1565
2680,0.7281,-4.9816,7.4725,7.2348,5.1478,1.9478
2685,0.6514,-4.9816,7.5874,7.7913,5.4261,1.9478
2690,0.6514,-4.905,7.3958,8.1391,5.7043,1.8783
2695,0.5748,-4.8667,7.4725,8.487,5.9826,1.9478
2700,0.5748,-4.905,7.5108,8.7652,5.9826,1.8087
2705,0.4982,-4.9816,7.5874,8.9043,5.9826,1.6
2710,0.5748,-4.5218,7.5491,8.9739,5.7739,1.6696
2715,0.5748,-4.6751,7.3958,8.8348,6.2609,2.4348
2720,0.6131,-4.5984,7.3958,8.6261,6.6783,2.2261
2725,0.4215,-4.5601,7.3958,8.2087,7.0261,2.3652
2730,0.4982,-4.4835,7.4725,7.5826,7.1652,2.2957
2735,0.3066,-4.4452,7.4725,6.8174,7.3739,2.3652
2740,0.4598,-4.4068,7.4725,5.4957,7.5826,2.087
2745,0.5365,-4.4835,7.3958,4.6609,7.7217,2.087
2750,0.4982,-4.4452,7.5108,3.5478,7.8609,1.8087
2755,0.4215,-4.3685,7.3575,2.5043,7.8609,1.7391
2760,0.4598,-4.4068,7.5108,1.6,7.9304,1.3913
2765,0.3449,-4.2919,7.5108,0.8348,7.9304,1.3913
2770,0.2299,-4.3302,7.5108,0.2087,8.0,0.9043
2775,0.4598,-4.2152,7.5491,-0.3478,7.7217,0.5565
2780,0.5365,-4.3685,7.5491,-0.9043,8.0,0.6957
2785,0.4598,-4.2919,7.5874,-1.1826,8.3478,0.6261
2790,0.3449,-4.2152,7.5491,-1.3217,8.487,0.2087
2795,0.3832,-4.2536,7.5108,-1.4609,8.6261,0.2087
2800,0.3449,-4.3302,7.5491,-1.6,8.5565,-0.1391
2805,0.4215,-4.4452,7.4725,-1.8087,8.6957,-0.0696
2810,0.3449,-4.4835,7.5874,-1.9478,8.6957,-0.2087
2815,0.4215,-4.4835,7.5874,-2.2261,8.6261,-0.0696
2820,0.3066,-4.7134,7.6641,-2.3652,8.487,-0.2783
2825,0.3832,-4.3302,7.5108,-2.5043,7.7217,-0.2783
2830,0.4215,-4.6751,7.6257,-2.5739,7.7913,0.4174
2835,0.3449,-4.5218,7.5108,-2.6435,7.7913,0.6957
2840,0.3832,-4.7517,7.5491,-2.7826,7.6522,0.6957
2845,0.2299,-4.6751,7.6641,-2.5739,7.1652,1.113
2850,0.2682,-4.79,7.5491,-2.5043,6.7478,1.3217
2855,0.3066,-4.79,7.4341,-2.3652,6.2609,1.6
2860,0.1916,-4.79,7.5874,-2.2261,5.8435,1.6
2865,0.1916,-4.8667,7.5491,-2.1565,5.3565,1.7391
2870,0.2299,-4.8667,7.4341,-1.9478,4.7304,1.3217
2875,0.2682,-4.8284,7.3575,-1.9478,4.5217,2.0174
2880,0.3832,-4.8667,7.3958,-1.9478,4.3826,2.087
2885,0.3066,-4.8667,7.3192,-1.8087,4.5217,2.3652
2890,0.2682,-4.8667,7.2809,-1.5304,4.3826,2.2957
2895,0.3832,-4.8667,7.3575,-1.4609,4.2435,2.5739
2900,0.2299,-4.905,7.2425,-1.3217,4.1043,2.6435
2905,0.3449,-4.905,7.2809,-1.1826,3.9652,2.9217
2910,0.3449,-4.9433,7.2425,-0.7652,3.8261,2.9913
2915,0.4215,-4.8284,7.2425,-0.2783,3.8957,3.1304
2920,0.3832,-4.8284,7.3575,0.487,3.9652,3.1304
2925,0.3832,-4.8667,7.3192,1.113,4.1739,3.4783
2930,0.3832,-4.8667,7.3958,1.8087,4.313,3.4783
2935,0.3449,-4.8284,7.2809,2.3652,4.313,3.687
2940,0.2682,-4.8284,7.3575,2.9913,4.3826,3.5478
2945,0.3832,-4.905,7.3575,3.4783,4.4522,3.6174
2950,0.4215,-4.8667,7.2042,3.8957,4.5217,3.3391
2955,0.3449,-4.79,7.5108,4.2435,4.6609,3.3391
2960,0.4598,-4.8284,7.3192,4.5217,4.7304,3.1304
2965,0.3066,-4.8284,7.4341,4.8696,4.8696,2.9913
2970,0.3066,-4.79,7.4341,5.1478,5.1478,2.713
2975,0.2682,-4.79,7.4341,5.3565,5.2174,2.5043
2980,0.3066,-4.79,7.5491,5.4261,5.3565,2.2957
2985,0.1916,-4.6751,7.5108,5.4957,5.287,2.1565
2990,0.3066,-4.79,7.3575,5.4957,5.0087,1.8783
2995,0.1916,-4.79,7.3958,5.4261,4.8696,1.7391
