timestamp,accX,accY,accZ,gyroX,gyroY,gyroZ
0,1.4179,-5.0966,-1.4562,38.1913,22.7478,-9.1826
5,1.2646,-4.6751,-2.1843,29.4957,22.7478,-12.1043
10,1.073,-4.2536,-2.6824,20.1739,21.4261,-14.7478
15,1.3412,-3.9853,-3.4105,10.8522,19.9652,-17.113
20,1.3412,-3.6404,-4.1386,2.3652,18.2261,-19.6174
25,1.4945,-3.5255,-4.5984,-5.287,16.6957,-21.9826
30,1.1496,-3.3339,-5.0583,-12.1043,15.513,-24.2783
35,0.843,-3.1423,-5.5948,-17.8087,14.5391,-25.6
40,0.1916,-3.1806,-5.748,-21.7043,13.8435,-25.9478
45,-0.1533,-3.4105,-6.0546,-23.0261,13.1478,-25.5304
50,-0.6514,-3.4488,-6.2845,-21.4261,12.313,-24.6957
55,-0.9963,-3.6787,-6.3229,-17.8087,11.5478,-23.9304
60,-1.3795,-3.7937,-6.1696,-12.2435,11.2,-23.8609
65,-1.5711,-4.0236,-6.0929,-6.1217,10.8522,-23.0957
70,-1.6861,-4.4068,-5.7864,-0.487,10.3652,-21.7739
75,-1.8394,-4.5601,-5.3648,4.4522,9.6696,-21.1478
80,-1.916,-4.5601,-5.3265,7.7913,9.0435,-20.8696
85,-1.8394,-4.6368,-5.1349,9.5304,8.5565,-19.7565
90,-1.6861,-4.8284,-4.8667,10.0174,7.8609,-18.4348
95,-1.3029,-5.02,-4.6751,9.8087,6.9565,-17.3217
100,-1.2263,-5.0583,-4.4835,9.0435,6.1217,-16.4174
105,-0.9197,-5.2882,-4.4068,7.3739,5.5652,-15.5826
110,-0.843,-5.3648,-4.7517,4.7304,4.9391,-14.7478
115,-0.6514,-5.4415,-4.7517,1.8087,4.3826,-13.8435
120,-0.2299,-5.5948,-4.79,-0.9739,4.0348,-13.287
125,-0.0766,-5.5948,-4.6368,-2.6435,3.7565,-13.0087
130,0.0383,-5.7097,-4.5218,-3.2,3.5478,-12.6609
135,0.2682,-5.5948,-4.4835,-2.9913,3.3391,-11.9652
140,0.2682,-5.5948,-4.5601,-2.087,3.4087,-11.3391
145,0.3832,-5.5948,-4.5218,-0.487,3.5478,-10.8522
150,0.4215,-5.5564,-4.79,1.6,4.0348,-10.4348
155,0.4215,-5.5948,-4.7517,3.3391,4.7304,-10.0174
160,0.4215,-5.5181,-4.8284,5.7739,5.4957,-9.7391
165,0.3066,-5.4415,-4.7134,8.0696,6.0522,-9.3913
170,0.3066,-5.4798,-4.79,9.9478,6.1913,-9.3913
175,0.2299,-5.5564,-4.7517,11.2696,6.1217,-9.3217
180,0.2299,-5.5181,-4.7517,12.313,6.0522,-9.113
185,0.2682,-5.6714,-4.6751,12.9391,5.8435,-8.7652
190,0.1916,-5.7097,-4.5984,12.8696,5.5652,-8.2783
195,0.2299,-5.8247,-4.79,12.2435,5.4957,-7.5826
200,0.2682,-6.0163,-4.79,11.2,5.4261,-6.7478
205,0.3066,-6.0546,-4.8667,9.5304,5.4261,-6.0522
210,0.4982,-6.1696,-4.9433,7.6522,5.3565,-5.3565
215,0.4598,-6.2845,-4.905,5.913,5.287,-5.0783
220,0.4598,-6.3995,-4.9433,4.2435,5.287,-4.7304
225,0.4598,-6.5911,-4.9816,2.6435,5.1478,-4.4522
230,0.2682,-6.5528,-4.9816,1.6,5.0087,-4.2435
235,0.1916,-6.5911,-4.79,0.9739,4.6609,-3.9652
240,0.3066,-6.8593,-4.7517,0.487,4.313,-3.5478
245,0.0383,-6.6677,-4.6368,0.2783,4.0348,-3.0609
250,0.0383,-6.8593,-4.4452,0.1391,3.9652,-2.5043
255,0.0,-7.0126,-4.2536,0.2783,3.687,-1.8783
260,-0.1533,-7.1276,-4.2152,0.487,3.687,-1.1826
265,-0.2682,-7.2425,-4.1003,0.9043,3.4783,-0.5565
270,-0.4598,-7.3192,-3.8704,1.3913,3.3391,0.1391
275,-0.4598,-7.4341,-3.7554,2.0174,3.2696,0.9043
280,-0.6131,-7.6641,-3.4105,2.713,3.0609,1.7391
285,-0.6131,-7.779,-3.5255,3.4783,2.8522,2.5739
290,-0.8047,-7.894,-3.3339,4.5217,2.6435,3.5478
295,-0.843,-7.9706,-3.3339,5.7739,2.6435,4.313
300,-0.8047,-7.9323,-3.2955,7.513,2.713,5.1478
305,-0.6898,-7.9323,-3.2955,9.5304,2.713,5.9826
310,-0.9197,-7.9706,-3.3722,11.5478,2.6435,6.887
315,-0.6514,-8.0089,-3.2572,13.1478,2.4348,8.0696
320,-0.4215,-8.0856,-3.1423,14.9565,2.6435,8.9739
325,-0.2682,-8.0856,-3.2189,17.1826,3.5478,9.4609
330,-0.0383,-8.1239,-3.2955,19.4783,4.1739,10.2957
335,0.0,-8.1622,-3.1039,21.9826,5.0087,10.9913
340,0.0766,-8.2005,-3.3339,24.4174,6.0522,11.4783
345,0.1916,-8.2005,-3.2572,26.6435,6.9565,11.5478
350,0.3449,-8.1622,-3.4488,28.6609,7.3739,11.3391
355,0.3449,-8.1239,-3.2572,30.4696,7.7913,10.9217
360,0.3832,-8.1239,-3.4105,32.1391,8.0696,10.087
365,0.3066,-8.0473,-3.5255,33.5304,8.2087,9.1826
370,0.1533,-8.0089,-3.4105,34.7826,8.1391,8.4174
375,0.1916,-7.779,-3.6021,35.5478,7.7217,7.8609
380,0.0,-7.779,-3.4871,35.8957,6.8174,7.4435
385,0.0766,-7.6257,-3.2955,35.8957,5.7043,7.2348
390,0.0,-7.5874,-3.3722,35.4783,4.4522,7.0957
395,0.0383,-7.6641,-3.2572,34.9217,3.2,7.0957
400,0.0383,-7.7407,-3.2955,34.0174,2.1565,6.9565
405,0.0,-7.7407,-3.3339,33.113,1.0435,6.9565
410,-0.0383,-7.8173,-3.1806,32.2783,0.2783,6.7478
415,-0.0383,-8.0089,-3.2189,31.9304,-0.1391,6.4696
420,-0.2299,-8.2389,-3.1423,32.0696,-0.5565,5.9826
425,-0.3066,-8.4305,-2.9123,32.6957,-0.5565,5.5652
430,-0.2682,-8.6987,-2.989,33.8783,-0.3478,5.0783
435,-0.2682,-8.9286,-2.9123,35.6174,-0.2087,5.1478
440,-0.0766,-9.0436,-3.0273,38.1217,0.1391,5.3565
445,-0.1916,-9.1586,-2.7591,41.113,0.6261,5.3565
450,-0.115,-9.3502,-2.7591,44.3826,1.113,5.3565
455,-0.1533,-9.5801,-2.6824,47.8609,1.4609,5.2174
460,-0.115,-9.695,-2.5675,51.3391,2.0174,5.2174
465,-0.1533,-9.81,-2.6058,54.6087,2.5043,5.2174
470,-0.0766,-9.695,-2.4908,57.6,2.9913,5.3565
475,0.0,-9.8866,-2.4525,60.4522,3.4783,5.3565
480,-0.0766,-9.81,-2.2992,63.0957,4.2435,5.287
485,0.0383,-10.0016,-2.2226,65.3913,4.8,5.0087
490,0.0,-10.0016,-2.1843,67.4783,5.3565,4.7304
495,-0.0766,-10.1932,-2.1076,69.2174,5.6348,4.4522
500,0.0383,-10.0399,-2.1843,71.0261,5.8435,4.1739
505,-0.0383,-10.0782,-1.9927,72.8348,6.1217,3.8261
510,0.0383,-10.2315,-1.9543,74.2261,6.1913,3.0609
515,0.0,-10.1166,-1.916,75.8957,6.2609,2.1565
520,0.0766,-10.1932,-1.8394,77.913,6.6783,0.9739
525,0.0766,-10.4231,-1.6478,80.2783,7.1652,0.0
530,0.0766,-10.653,-1.3795,83.6174,7.5826,-0.7652
535,0.0766,-10.883,-1.1496,88.0696,7.9304,-1.4609
540,0.0383,-11.1129,-0.7281,93.8435,8.5565,-2.4348
545,0.115,-11.4961,-0.3066,101.0087,9.1826,-3.0609
550,0.115,-12.1859,0.6131,109.287,9.8087,-3.8957
555,0.4598,-16.2095,7.6257,120.487,11.2,-3.5478
560,0.0,-14.1402,0.2299,141.7043,13.0087,0.1391
565,-0.0766,-15.4431,1.3029,162.3652,9.3217,-3.1304
570,-0.115,-16.8609,1.6095,184.487,7.6522,-7.2348
575,-0.6131,-17.8956,1.7627,207.9304,10.087,-7.1652
580,-0.4215,-18.2405,1.7627,233.3913,12.0348,-5.7043
585,0.0383,-19.1985,1.8777,260.3826,12.313,-5.5652
590,0.1916,-19.5817,1.8011,287.4435,12.8,-5.4261
595,0.4982,-20.0032,1.6861,312.6261,14.6087,-5.287
600,0.3832,-20.2714,1.4945,333.287,17.7391,-6.1913
605,0.1533,-20.5014,1.1879,346.5739,20.313,-9.113
610,-0.0766,-18.6237,-0.9197,344.3478,20.5913,-13.3565
615,-0.1533,-15.7496,-4.9433,312.3478,19.1304,-15.7913
620,-0.2299,-14.1402,-6.5528,246.7478,17.5304,-16.5565
625,-0.2682,-12.9523,-6.9743,160.7652,15.3739,-16.5565
630,-0.4215,-11.4961,-5.9013,71.3043,12.5913,-16.7652
635,-0.7664,-10.4614,-3.3339,-5.287,8.487,-16.2087
640,-0.8814,-10.9213,-0.4982,-56.9043,3.4783,-13.5652
645,-0.6898,-11.9559,1.6861,-80.2783,-0.8348,-9.8087
650,-0.6898,-12.7607,2.874,-79.0261,-3.2,-5.8435
655,-0.2682,-13.4121,3.0656,-61.287,-3.687,-2.1565
660,0.0383,-13.8336,2.2609,-35.8957,-1.6696,0.2087
665,0.3449,-13.7953,1.4945,-9.8783,2.2261,2.0174
670,0.6898,-13.3355,0.6131,11.6174,7.1652,3.5478
675,0.8814,-12.5307,0.0383,26.5043,11.9652,4.5913
680,0.8814,-11.726,-0.3066,34.087,15.513,4.9391
685,1.1496,-10.6147,-0.6514,35.687,17.3217,4.5217
690,1.1113,-10.0016,-0.7281,32.4174,17.8783,3.687
695,0.958,-9.5034,-0.6514,25.8783,17.8087,2.5739
700,0.8814,-9.0053,-0.3449,16.9043,16.9043,1.8783
705,0.9197,-8.5838,0.0383,6.9565,15.2348,1.5304
710,0.8047,-8.2005,0.6514,-2.4348,13.1478,1.2522
715,0.843,-7.9706,1.4562,-9.6696,10.713,0.9043
720,0.6898,-7.779,2.1459,-14.4,8.7652,0.0
725,0.6898,-7.6257,2.7207,-16.1391,6.887,-1.6
730,0.3832,-7.5108,3.2955,-15.0957,5.2174,-3.4087
735,0.1533,-7.5491,3.7554,-12.2435,3.6174,-4.9391
740,-0.0766,-7.5874,3.8704,-8.2087,1.8087,-5.913
745,0.0,-7.5874,4.1003,-3.5478,0.5565,-6.2609
750,-0.0766,-7.8173,3.7554,1.0435,0.2087,-6.3304
755,0.0,-8.1239,3.3722,5.6348,0.3478,-6.0522
760,-0.3832,-8.2772,3.1806,9.8087,0.6261,-5.5652
765,-0.2682,-8.5071,2.9507,13.2174,0.7652,-5.0087
770,-0.4215,-8.737,2.7974,15.3043,0.9043,-4.4522
775,-0.2682,-9.0436,2.6058,16.1391,1.0435,-3.687
780,-0.4598,-9.3118,2.5675,16.0696,1.4609,-3.2
785,-0.3449,-9.5034,2.5675,15.6522,2.2957,-2.9217
790,-0.5365,-9.7717,2.4525,15.3043,2.8522,-2.6435
795,-0.5748,-9.925,2.4908,15.3043,3.3391,-2.5043
800,-0.6514,-10.2698,2.3759,15.6522,3.6174,-2.4348
805,-0.7281,-10.3465,2.1843,16.9043,3.687,-2.2957
810,-0.7664,-10.4231,1.916,18.6435,3.8957,-1.8783
815,-0.8814,-10.4998,1.9927,21.0087,4.0348,-1.3217
820,-0.843,-10.3848,1.7627,23.513,4.3826,-0.5565
825,-0.8047,-10.1932,1.7627,25.9478,4.6609,0.2783
830,-0.7281,-10.1549,1.4945,27.8261,5.0087,1.113
835,-0.7281,-9.925,1.0346,28.9391,5.4957,1.6696
840,-0.4982,-10.0399,1.0346,29.4957,5.9826,2.087
845,-0.5748,-9.7334,0.9197,29.287,6.2609,2.3652
850,-0.3832,-9.695,0.7664,28.3826,6.3304,2.3652
855,0.0,-9.6184,0.6131,26.9913,6.3304,2.2261
860,0.115,-9.695,0.6131,24.8348,6.4,1.7391
865,0.0383,-9.5418,0.6131,22.887,6.3304,0.9043
870,0.0766,-9.4651,0.7664,20.3826,6.1217,0.1391
875,0.0383,-9.4268,0.8814,18.087,6.0522,-0.487
880,0.1533,-9.5034,0.9963,16.0,5.8435,-1.0435
885,0.115,-9.5801,0.958,14.1913,5.6348,-1.2522
890,0.0766,-9.6184,1.3412,13.0783,5.3565,-1.3913
895,0.0383,-9.6567,1.4945,12.3826,5.0087,-1.5304
900,0.0,-9.5801,1.4562,12.1739,4.9391,-1.6
905,0.1533,-9.7717,1.3412,12.313,4.9391,-1.7391
910,0.115,-9.7717,1.3029,12.7304,5.1478,-1.7391
915,0.115,-9.81,1.4945,13.287,5.4261,-1.6696
920,0.0766,-9.81,1.3795,13.6348,6.0522,-1.5304
925,0.0383,-9.8483,1.4179,13.7043,6.4,-1.5304
930,0.0383,-9.925,1.5328,13.287,6.6087,-1.2522
935,0.0383,-9.9633,1.6861,12.4522,6.8174,-0.8348
940,0.0383,-10.0782,1.6095,11.4087,7.0261,-0.4174
945,0.0766,-10.0399,1.6478,10.5043,7.0261,0.0
950,0.0,-10.1166,1.9927,9.8783,6.887,0.2783
955,-0.0383,-10.0782,1.8011,9.6,6.6783,0.4174
960,0.0,-10.3465,1.9543,9.6696,6.3304,0.487
965,0.0,-10.3465,1.916,10.0174,5.9826,0.5565
970,0.0,-10.3465,1.8394,10.7826,5.7043,0.5565
975,-0.0383,-10.4998,2.0693,11.8957,5.4957,0.487
980,0.0,-10.653,2.031,13.1478,5.287,0.487
985,-0.1533,-10.768,2.2609,14.4696,5.287,0.3478
990,-0.0383,-10.6914,2.1459,15.513,5.2174,0.1391
995,-0.0383,-10.7297,2.1843,16.1391,5.2174,-0.0696
1000,-0.115,-10.6914,1.9927,16.3478,5.287,-0.3478
1005,-0.115,-10.3848,2.1843,16.5565,5.3565,-0.5565
1010,-0.0383,-10.4231,2.0693,16.6957,5.3565,-0.6957
1015,0.0,-10.1932,1.916,16.6957,5.2174,-0.5565
1020,0.115,-10.0016,2.1076,16.487,5.1478,-0.4174
1025,0.1916,-9.8866,1.9927,16.2087,4.9391,-0.2783
1030,0.1533,-9.81,1.9543,15.7913,4.8696,-0.1391
1035,0.2682,-9.6184,1.916,15.0261,4.6609,0.2087
1040,0.3832,-9.6567,1.8777,13.7739,4.6609,0.4174
1045,0.2682,-9.5418,1.7627,12.2435,4.7304,0.487
1050,0.3066,-9.4268,1.7627,10.5739,4.9391,0.487
1055,0.3832,-9.3502,1.8777,8.6957,5.287,0.4174
1060,0.3449,-9.3885,1.8777,6.6087,5.6348,0.487
1065,0.4598,-9.5801,1.8777,4.5913,5.8435,0.6261
1070,0.4215,-9.4651,1.916,2.6435,5.913,0.7652
1075,0.4215,-9.5801,2.031,0.9043,5.8435,0.9739
1080,0.4982,-9.81,2.031,-0.487,5.6348,0.9739
1085,0.4982,-9.8866,2.2226,-1.3913,5.3565,0.9043
1090,0.3449,-9.925,2.2226,-1.6,5.0087,0.8348
1095,0.3832,-10.0399,2.1076,-1.3217,4.4522,0.6261
1100,0.2299,-10.0782,2.2226,-0.7652,3.5478,0.3478
1105,0.1533,-10.1166,2.1076,0.1391,2.5739,0.0696
1110,0.2299,-10.1549,2.1843,1.1826,1.4609,-0.2783
1115,0.2682,-9.9633,2.1459,2.5043,0.487,-0.7652
1120,0.0383,-10.2315,1.8394,4.1739,-0.5565,-1.2522
1125,0.0766,-10.3082,1.8777,6.2609,-1.4609,-1.3913
1130,0.0,-10.2698,1.6095,8.4174,-2.0174,-1.4609
1135,-0.0383,-10.3465,1.4562,10.5739,-2.2957,-1.3217
1140,0.0,-10.2698,1.5328,12.313,-2.5043,-0.9739
1145,-0.0383,-10.2698,1.3412,13.6348,-2.5043,-1.0435
1150,0.0,-10.2698,1.4179,14.4696,-2.3652,-0.9043
1155,-0.1916,-10.1166,1.4179,15.0261,-2.2261,-1.0435
1160,-0.1533,-10.0399,1.4179,15.0261,-2.087,-0.9043
1165,-0.115,-10.0016,1.5711,14.887,-1.8087,-0.8348
1170,-0.115,-10.0016,1.7627,14.6087,-1.7391,-0.9043
1175,-0.0383,-10.0782,1.9543,14.3304,-1.6,-0.8348
1180,-0.115,-10.1166,2.031,13.9826,-1.5304,-0.6957
1185,-0.0383,-9.9633,2.031,13.4261,-1.3217,-0.6261
1190,-0.0766,-9.925,2.1459,12.9391,-0.9739,-0.487
1195,0.0,-9.9633,2.2609,12.5913,-0.8348,-0.4174
1200,0.0,-9.8483,2.2226,12.1043,-0.487,-0.2783
1205,-0.115,-9.9633,2.3375,11.5478,-0.2783,-0.0696
1210,-0.0383,-9.8483,2.3375,11.0609,-0.1391,0.0696
1215,-0.115,-9.9633,2.4142,10.4348,0.0,0.1391
1220,-0.0766,-9.925,2.4142,9.6696,0.0,0.1391
1225,-0.1916,-9.8483,2.2992,8.8348,-0.0696,0.1391
1230,-0.115,-9.81,2.2609,8.0,-0.2783,0.0696
1235,0.0,-9.8483,2.2609,7.0957,-0.487,0.0
1240,-0.1533,-9.8483,2.4525,6.1217,-0.8348,-0.0696
1245,-0.0383,-9.81,2.3759,5.287,-1.0435,-0.2783
1250,-0.115,-9.8866,2.4142,4.313,-1.3913,-0.5565
1255,-0.1916,-9.81,2.4142,3.5478,-1.4609,-0.5565
1260,-0.1916,-9.8866,2.4525,2.9913,-1.4609,-0.7652
1265,-0.0766,-9.81,2.5291,2.8522,-1.4609,-0.9739
1270,-0.0383,-9.925,2.4142,2.9217,-1.6,-1.113
1275,0.0,-10.0016,2.3759,2.8522,-1.6,-1.2522
1280,-0.0383,-10.0016,2.2992,2.9913,-1.4609,-1.3217
1285,0.0,-9.925,2.3375,3.0609,-1.2522,-1.4609
1290,0.115,-10.0016,2.3759,3.2,-0.8348,-1.6
1295,0.0383,-9.9633,2.2609,3.2696,-0.6261,-1.8087
1300,0.1533,-10.0016,2.3375,3.0609,-0.2783,-1.9478
1305,0.0766,-10.0016,2.2992,2.9913,0.0696,-2.2261
1310,0.1916,-10.0399,2.2226,2.7826,0.2087,-2.5043
1315,0.1916,-9.9633,2.2226,2.5043,0.2783,-2.6435
1320,0.2299,-9.9633,2.1459,2.2261,0.5565,-2.9217
1325,0.0766,-9.925,2.2609,1.8087,0.6957,-3.1304
1330,0.115,-10.0016,2.2609,1.5304,0.9043,-3.2696
1335,0.0,-10.0399,2.2226,1.1826,1.0435,-3.4087
1340,0.115,-10.1166,2.3375,0.6957,1.3217,-3.2696
1345,0.0383,-10.1166,2.1076,0.2087,1.4609,-3.2696
1350,0.1533,-10.0782,2.1076,-0.1391,1.8087,-3.3391
1355,0.0766,-9.9633,2.1459,-0.4174,2.0174,-3.2696
1360,0.0383,-10.0782,2.031,-0.6261,2.3652,-3.2696
1365,0.0383,-9.9633,1.9543,-0.5565,2.5043,-3.3391
1370,0.0383,-10.0016,2.0693,-0.6261,2.6435,-3.4087
1375,0.0383,-10.0782,2.031,-0.6957,2.5739,-3.3391
1380,-0.115,-10.2698,1.9543,-0.9043,2.5739,-3.2696
1385,0.0383,-9.8866,1.8011,-1.1826,2.5739,-3.3391
1390,0.0766,-9.925,1.9543,-1.6,2.5739,-3.3391
1395,0.0383,-10.0016,1.8011,-2.087,2.5739,-3.2
1400,0.115,-10.0782,1.9927,-2.713,2.3652,-3.0609
1405,0.0766,-10.0782,1.916,-3.3391,2.2957,-3.0609
1410,0.1533,-10.0782,1.8394,-3.7565,2.2957,-3.0609
1415,0.115,-10.1549,1.916,-3.9652,2.4348,-2.9913
1420,0.1533,-10.1166,1.916,-3.9652,2.4348,-3.1304
1425,0.1533,-10.0016,2.031,-3.7565,2.6435,-3.0609
1430,0.1533,-10.1166,1.8394,-3.4087,2.7826,-3.0609
1435,0.1916,-10.0782,1.916,-2.9217,2.7826,-3.0609
1440,0.2682,-10.0782,1.9543,-2.5043,2.713,-3.2
1445,0.1533,-10.1166,2.0693,-2.0174,2.7826,-3.2
1450,0.2299,-10.0399,1.9543,-1.4609,3.0609,-3.2
1455,0.2299,-10.0399,1.9927,-1.113,3.2,-3.2696
1460,0.1533,-10.0782,1.916,-0.7652,3.3391,-3.2696
1465,0.3449,-9.9633,2.0693,-0.2087,3.5478,-3.2
1470,0.2682,-10.1166,1.916,0.5565,3.7565,-3.2
1475,0.3449,-9.9633,1.9927,1.2522,3.8957,-3.1304
1480,0.2682,-10.0016,1.9543,1.6,4.1043,-2.9217
1485,0.4215,-10.0399,2.1076,1.9478,4.3826,-2.713
1490,0.4982,-9.9633,1.9543,2.2261,4.6609,-2.5739
1495,0.4215,-9.8483,1.9927,2.3652,5.0783,-2.2957
1500,0.3832,-9.925,1.9927,2.3652,5.5652,-2.0174
1505,0.3449,-9.8866,2.0693,2.2957,5.8435,-1.9478
1510,0.3066,-9.8483,2.1459,2.2957,5.913,-1.8783
1515,0.3066,-9.8483,2.3375,2.2261,5.8435,-1.8087
1520,0.2299,-9.8866,2.3375,1.9478,5.7043,-1.8087
1525,0.1916,-9.925,2.4142,1.6,5.5652,-1.8783
1530,0.0766,-9.8483,2.2609,1.3217,5.3565,-1.8783
1535,0.1533,-9.8866,2.3375,0.8348,5.287,-2.0174
1540,0.115,-9.9633,2.2992,0.5565,5.2174,-1.8783
1545,0.1533,-9.8866,2.3759,0.3478,5.287,-1.6
1550,0.1916,-10.0016,2.3375,0.1391,5.5652,-1.3913
1555,0.1916,-10.0782,2.3759,0.0696,5.6348,-1.3217
1560,0.115,-9.9633,2.3375,0.1391,5.7739,-1.3217
1565,0.115,-9.925,2.2609,0.2783,5.8435,-1.6696
1570,0.2299,-9.8866,2.2992,0.3478,5.8435,-1.9478
1575,0.115,-9.9633,2.2992,0.4174,5.7739,-2.1565
1580,0.0766,-9.925,2.3375,0.487,5.7043,-2.3652
1585,0.115,-9.9633,2.3375,0.6261,5.6348,-2.5043
1590,0.1533,-9.8866,2.3759,0.9043,5.4957,-2.5739
1595,0.2299,-9.8483,2.2226,0.9739,5.3565,-2.5739
1600,0.2299,-10.0399,2.1843,0.8348,5.287,-2.6435
1605,0.115,-9.9633,2.1843,0.6957,4.9391,-2.713
1610,0.115,-9.8483,2.2992,0.487,4.8,-2.6435
1615,0.1533,-10.0016,2.1076,0.0,4.7304,-2.5043
1620,0.2299,-9.9633,2.2609,-0.4174,4.6609,-2.4348
1625,0.1916,-10.0016,2.1076,-0.6957,4.5913,-2.2261
1630,0.1533,-10.0016,2.2992,-0.9739,4.6609,-2.0174
1635,0.1916,-9.925,2.2226,-1.113,4.5913,-1.8087
1640,0.2299,-10.0016,2.3375,-1.0435,4.5913,-1.5304
1645,0.2299,-10.0016,2.1459,-0.9043,4.7304,-1.3217
1650,0.3066,-10.0016,2.2609,-0.7652,4.8696,-1.0435
1655,0.1533,-10.0782,2.1459,-0.487,5.0783,-0.7652
1660,0.4215,-9.9633,2.2226,-0.2783,5.287,-0.487
1665,0.3066,-9.925,2.3759,-0.1391,5.4957,-0.3478
1670,0.1916,-10.0016,2.1459,0.1391,5.6348,-0.0696
1675,0.2299,-9.8866,2.1459,0.2087,5.5652,0.0
1680,0.2299,-10.0016,2.2609,0.3478,5.4957,0.0696
1685,0.2682,-10.0016,2.2226,0.3478,5.5652,0.1391
1690,0.3449,-9.9633,1.9927,0.2783,5.3565,0.2783
1695,0.3066,-10.0016,2.0693,0.1391,5.2174,0.4174
1700,0.2682,-9.925,2.1843,-0.1391,5.0087,0.487
1705,0.3449,-9.9633,2.2609,-0.2783,4.8,0.6957
1710,0.2299,-9.9633,2.031,-0.487,4.5217,0.7652
1715,0.2682,-9.9633,2.1843,-0.7652,4.2435,0.8348
1720,0.2299,-10.0016,2.1076,-0.8348,3.9652,0.9043
1725,0.3066,-10.1166,2.1843,-0.8348,3.8261,0.9043
1730,0.2299,-10.1166,2.1843,-0.5565,3.7565,0.9739
1735,0.1916,-10.0399,2.031,-0.3478,3.4783,0.9739
1740,0.0766,-10.0399,2.1459,-0.4174,3.1304,0.9043
1745,0.1916,-9.9633,2.2992,-0.3478,3.1304,1.0435
1750,0.1533,-9.925,2.1076,-0.487,3.1304,1.113
1755,0.2682,-10.0016,2.2609,-0.4174,3.2,1.2522
1760,0.0766,-9.9633,2.2992,-0.6261,3.3391,1.1826
1765,0.115,-9.81,2.1076,-0.6957,3.4087,1.0435
1770,0.115,-9.9633,2.1843,-0.8348,3.5478,0.9043
1775,0.1916,-10.0782,2.2226,-1.0435,3.8957,0.8348
1780,0.1533,-9.9633,2.2609,-1.0435,4.1739,0.8348
1785,0.2299,-10.0399,2.1076,-1.1826,4.7304,0.7652
1790,0.115,-9.925,2.1843,-1.0435,5.0783,0.7652
1795,0.115,-10.0782,2.2609,-0.7652,5.3565,0.6957
1800,0.2299,-10.0399,2.2609,-0.487,5.5652,0.6957
1805,0.1916,-10.0399,2.2609,-0.0696,5.7043,0.5565
1810,0.0383,-9.9633,2.2226,0.3478,5.5652,0.5565
1815,0.2299,-9.9633,2.2609,0.5565,5.4957,0.5565
1820,0.1916,-9.8866,2.1459,0.7652,5.287,0.6261
1825,0.1533,-9.925,2.1843,0.9043,5.2174,0.6957
1830,0.1533,-9.9633,2.1076,1.0435,5.0087,0.7652
1835,0.2299,-9.925,2.1459,0.9043,4.8696,0.9043
1840,0.3066,-9.925,2.1459,0.6957,4.5217,1.113
1845,0.3066,-9.925,2.1843,0.5565,4.4522,1.113
1850,0.1916,-9.8866,2.1076,0.4174,4.4522,1.1826
1855,0.115,-9.81,2.3759,0.3478,4.313,1.3913
1860,0.2682,-9.8866,2.1843,0.3478,4.313,1.3217
1865,0.1916,-10.0016,2.2226,0.2783,4.2435,1.3217
1870,0.0766,-9.925,2.2609,0.2087,4.1739,1.2522
1875,0.3832,-9.9633,1.916,0.3478,4.0348,1.1826
1880,0.115,-9.8483,2.2992,0.3478,4.0348,1.1826
1885,0.1916,-10.1166,2.2609,0.487,3.8957,1.113
1890,0.3066,-10.0782,2.2992,0.4174,3.8957,1.0435
1895,0.3449,-10.0016,2.2992,0.3478,4.0348,1.113
1900,0.2682,-10.0016,2.1076,0.3478,4.1739,1.0435
1905,0.2299,-10.1166,2.2992,0.3478,4.4522,0.9739
1910,0.2682,-10.0399,2.1843,0.3478,4.5913,1.113
1915,0.2299,-10.0782,2.1843,0.2783,4.8,1.2522
1920,0.2299,-10.0016,2.0693,0.4174,5.0783,1.3217
1925,0.2299,-10.0016,2.2226,0.3478,5.0783,1.6
1930,0.1916,-10.0782,2.2992,0.2087,5.0783,1.8783
1935,0.0383,-9.8866,2.2609,-0.0696,5.1478,2.5043
1940,0.1533,-10.0782,2.3375,-0.4174,5.287,2.9217
1945,0.115,-10.0782,2.4142,-0.7652,5.3565,3.687
1950,0.115,-10.1166,2.3375,-1.1826,5.3565,4.313
1955,0.115,-10.1166,2.4525,-1.6,5.5652,5.0783
1960,0.0383,-9.9633,2.4908,-2.0174,5.7739,5.7739
1965,0.0,-10.2698,2.4142,-2.2957,5.9826,6.6783
1970,0.0383,-10.1166,2.4142,-2.5739,6.2609,7.4435
1975,0.1533,-10.1166,2.4908,-2.9913,6.6087,8.0696
1980,0.0383,-10.0399,2.4908,-3.2696,6.7478,8.6261
1985,0.115,-10.0782,2.7974,-3.4783,7.0261,8.9739
1990,0.0,-10.0016,2.5291,-3.687,7.2348,9.2522
1995,0.0,-9.8866,2.4525,-3.8261,7.0957,9.3217
2000,0.0766,-9.925,2.6058,-4.1043,7.1652,9.2522
2005,-0.0383,-9.81,2.5291,-4.1043,7.0957,8.9739
2010,0.0,-9.8483,2.5675,-4.1739,7.0261,8.4174
2015,0.0,-9.81,2.7591,-4.1739,6.8174,7.7217
2020,-0.0383,-9.7717,2.7591,-4.0348,6.887,7.0957
2025,0.0,-9.7334,2.7207,-3.7565,7.0957,6.2609
2030,0.0,-9.81,2.5291,-3.2696,7.3043,5.7043
2035,0.0,-9.81,2.6058,-2.6435,7.513,5.0087
2040,0.0,-9.81,2.6441,-1.8783,8.0,4.313
2045,0.0,-9.81,2.4908,-1.0435,8.4174,3.687
2050,0.0766,-9.8866,2.5675,-0.2087,8.6957,2.9217
2055,0.0766,-9.925,2.4525,0.487,8.9739,2.1565
2060,0.0766,-9.7334,2.3375,0.9043,9.2522,1.3217
2065,0.0383,-9.81,2.4525,1.113,9.5304,0.4174
2070,0.0766,-9.81,2.2992,0.9739,9.6696,-0.3478
2075,0.0383,-9.81,2.2992,0.7652,10.087,-1.1826
2080,0.1533,-9.81,2.2992,0.5565,10.2261,-2.0174
2085,0.0383,-9.81,2.1076,0.487,10.5043,-2.713
2090,0.0766,-9.8866,2.1076,0.5565,10.7826,-3.4087
2095,0.2299,-9.8866,2.0693,0.6957,11.0609,-3.8957
2100,0.1916,-9.8866,2.1459,0.8348,11.1304,-4.4522
2105,0.0383,-9.8483,2.2226,0.9739,11.2,-4.9391
2110,0.0383,-9.8483,1.9927,0.9043,11.1304,-5.287
2115,0.1533,-9.81,1.916,0.7652,10.9913,-5.5652
2120,0.115,-9.8483,1.7244,0.3478,10.7826,-5.8435
2125,0.0766,-9.9633,1.8777,-0.0696,10.4348,-5.8435
2130,0.1916,-9.925,1.8394,-0.6261,10.1565,-5.8435
2135,0.0766,-9.8483,1.7244,-1.2522,10.0174,-5.8435
2140,0.115,-9.81,1.7627,-1.7391,9.6,-5.7739
2145,0.0766,-9.925,1.6861,-2.1565,9.1826,-5.5652
2150,0.0,-9.925,1.7244,-2.4348,8.6261,-5.3565
2155,0.0766,-9.8483,1.5711,-2.6435,8.1391,-5.1478
2160,0.0383,-9.8866,1.7627,-2.7826,7.7217,-4.7304
2165,0.0383,-9.81,1.7244,-2.9913,7.3739,-4.3826
2170,0.115,-9.9633,1.8011,-3.1304,7.0957,-3.9652
2175,0.0383,-9.925,1.8777,-3.1304,7.0261,-3.6174
2180,0.0766,-9.9633,1.6478,-3.0609,7.0957,-3.4087
2185,0.1533,-9.8866,1.7627,-2.7826,6.887,-3.2696
2190,0.115,-10.0399,1.9543,-2.4348,6.5391,-3.0609
2195,0.1533,-10.0016,1.8394,-2.0174,6.0522,-2.9217
2200,0.115,-10.0782,1.4179,-1.6696,5.4957,-2.8522
2205,0.0,-10.1166,1.9543,-1.3217,4.9391,-2.713
2210,0.1916,-10.1549,1.7244,-0.9739,4.3826,-2.5739
2215,0.2682,-10.2315,1.8011,-0.7652,3.8957,-2.4348
2220,0.2682,-10.1549,1.8394,-0.6261,3.4087,-2.3652
2225,0.115,-10.1549,1.8394,-0.6261,2.9913,-2.0174
2230,0.115,-10.1932,1.8394,-0.4174,2.5739,-1.8783
2235,0.115,-10.0782,1.9927,-0.2783,2.0174,-1.6696
2240,0.2682,-10.0782,2.0693,-0.2087,1.6,-1.3217
2245,0.3066,-10.0782,2.1459,-0.1391,1.1826,-1.3217
2250,0.115,-10.0016,2.0693,-0.0696,0.5565,-1.113
2255,0.1533,-9.9633,2.0693,0.0,0.0696,-1.113
2260,0.0766,-9.9633,2.0693,0.0696,-0.4174,-1.113
2265,0.1533,-10.1166,2.1076,0.0696,-0.6957,-0.9739
2270,0.0383,-10.0016,2.2226,0.1391,-0.9739,-0.9043
2275,0.0383,-9.9633,2.2992,0.2783,-1.113,-0.7652
2280,0.0383,-10.0782,2.3375,0.5565,-1.0435,-0.6957
2285,-0.0383,-10.0399,2.4525,0.9043,-0.8348,-0.3478
2290,0.0383,-10.1166,2.4142,1.3217,-0.6261,0.0
2295,-0.115,-10.1549,2.4142,1.8783,-0.2087,0.2783
2300,0.0,-10.1166,2.3759,2.4348,0.0696,0.5565
2305,0.0766,-10.1166,2.4525,2.8522,0.2783,0.6957
2310,0.0383,-9.925,2.2226,3.3391,0.5565,0.8348
2315,0.0,-10.0399,2.5675,3.5478,0.9739,0.9043
2320,0.115,-10.0782,2.4142,3.8261,1.113,0.9043
2325,0.0766,-10.0016,2.4525,3.8261,1.3913,0.9043
2330,0.0,-9.8866,2.5291,3.7565,1.5304,0.9739
2335,0.115,-9.8866,2.4908,3.5478,1.7391,1.0435
2340,0.1916,-9.925,2.5291,3.3391,2.0174,1.113
2345,0.115,-9.8866,2.4142,3.0609,2.2957,1.113
2350,0.1533,-10.0399,2.6824,2.713,2.5739,0.9739
2355,0.1533,-9.8483,2.4908,2.2957,2.9217,0.9739
2360,0.115,-9.8483,2.4525,1.8783,3.0609,0.9043
2365,0.1533,-9.8483,2.5291,1.3913,3.2,0.9043
2370,0.2682,-9.8483,2.4908,0.9739,3.4087,0.7652
2375,0.1533,-9.925,2.4525,0.5565,3.4783,0.6261
2380,0.2299,-9.8866,2.4525,0.2087,3.6174,0.4174
2385,0.2682,-10.0399,2.4142,-0.2087,3.687,0.3478
2390,0.2682,-10.0016,2.4142,-0.487,3.687,0.2783
2395,0.2299,-9.8866,2.2992,-0.7652,3.687,0.1391
2400,0.2682,-9.8866,2.2609,-1.0435,3.687,0.0696
2405,0.2299,-9.925,2.3759,-1.3913,3.687,0.1391
2410,0.2682,-9.9633,2.3375,-1.8087,3.8261,0.2087
2415,0.3066,-10.0782,2.2992,-2.0174,3.8957,0.2783
2420,0.0766,-9.9633,2.1459,-1.9478,4.0348,0.4174
2425,0.115,-9.8483,2.2226,-1.8087,4.1739,0.3478
2430,0.1533,-9.925,2.1843,-1.6696,4.3826,0.2783
2435,0.1533,-10.0016,2.2226,-1.3913,4.5217,0.2087
2440,0.1916,-9.8483,2.2226,-1.113,4.5913,0.2087
2445,0.2299,-9.8866,2.2226,-0.8348,4.5913,0.0696
2450,0.1533,-9.8866,2.2226,-0.7652,4.7304,0.1391
2455,0.1533,-9.925,2.1459,-0.9043,4.8,0.2087
2460,0.1916,-9.8483,2.2609,-0.7652,4.8,0.2087
2465,0.115,-9.8483,2.2992,-1.0435,4.7304,0.1391
2470,0.115,-9.925,2.1843,-1.2522,4.7304,0.2087
2475,0.0766,-10.0399,2.3759,-1.5304,4.5913,0.1391
2480,0.0,-9.8866,2.1459,-1.7391,4.5217,0.0
2485,0.0383,-9.925,2.3375,-1.8087,4.5217,-0.0696
2490,-0.0383,-10.0399,2.1843,-1.9478,4.5217,0.0
2495,0.0,-10.0016,2.2609,-1.9478,4.5217,0.0696
2500,-0.0766,-9.8866,2.2992,-1.9478,4.6609,0.0696
2505,0.0,-10.0016,2.2992,-1.9478,4.8,-0.2087
2510,0.0,-10.0782,2.3375,-1.8783,5.0087,-0.2783
2515,-0.1533,-9.9633,2.2992,-1.7391,5.2174,-0.2783
2520,-0.115,-10.1166,2.3759,-1.6,5.3565,-0.4174
2525,0.0,-10.0399,2.2609,-1.6696,5.5652,-0.4174
2530,-0.115,-10.0399,2.2609,-1.6696,5.8435,-0.487
2535,-0.1533,-10.0399,2.2609,-1.6696,6.1217,-0.4174
2540,-0.0766,-10.0782,2.2609,-1.3913,6.3304,-0.487
2545,-0.0383,-9.9633,2.2992,-1.3913,6.6087,-0.487
2550,-0.0383,-10.0399,2.3375,-1.113,6.887,-0.2783
2555,0.0,-10.0016,2.3759,-0.8348,7.1652,-0.2783
2560,0.0,-9.925,2.2992,-0.6261,7.2348,-0.2783
2565,0.0,-10.0399,2.3759,-0.2783,7.3739,-0.2783
2570,-0.0766,-10.0399,2.3375,-0.0696,7.4435,-0.1391
2575,0.0,-9.8866,2.4142,0.1391,7.4435,-0.2087
2580,0.0383,-10.0782,2.3375,0.3478,7.3043,-0.0696
2585,0.115,-10.1166,2.2992,0.4174,7.1652,-0.1391
2590,0.1533,-10.0782,2.2609,0.2783,6.8174,-0.2783
2595,0.115,-9.8483,2.3375,0.2087,6.5391,-0.5565
2600,0.0383,-10.0016,2.3375,-0.0696,6.1913,-0.6957
2605,0.115,-9.925,2.4142,-0.487,5.7739,-0.9043
2610,0.115,-9.9633,2.2992,-0.9043,5.4957,-1.113
2615,0.0766,-9.8866,2.2226,-1.1826,5.1478,-1.3217
2620,0.1533,-9.925,2.3375,-1.3217,4.9391,-1.4609
2625,0.2299,-10.0016,2.1459,-1.3217,4.7304,-1.4609
2630,0.0766,-9.925,2.031,-1.3913,4.5913,-1.5304
2635,0.115,-9.9633,2.1076,-1.3217,4.5913,-1.4609
2640,0.1916,-9.8866,2.2609,-1.1826,4.5913,-1.5304
2645,0.1916,-9.9633,2.1459,-1.113,4.5913,-1.3913
2650,0.1916,-10.0782,2.0693,-1.3217,4.5913,-1.113
2655,0.2299,-10.0399,2.2992,-1.3913,4.7304,-0.9043
2660,0.2682,-10.0782,2.2609,-1.4609,4.8,-0.8348
2665,0.2299,-10.0399,2.1843,-1.4609,4.8696,-0.6957
2670,0.2682,-9.8866,2.2609,-1.4609,4.9391,-0.487
2675,0.3066,-10.0782,2.2226,-1.4609,5.0087,-0.2783
2680,0.1916,-9.9633,2.2992,-1.4609,4.9391,-0.0696
2685,0.1533,-9.8483,2.2226,-1.3913,4.9391,0.1391
2690,0.2299,-9.925,2.2226,-1.3913,4.9391,0.2087
2695,0.1533,-9.925,2.2609,-1.4609,4.8696,0.2783
2700,0.115,-9.8866,2.3759,-1.5304,4.5913,0.4174
2705,0.3449,-9.925,2.2609,-1.5304,4.5913,0.4174
2710,0.1916,-9.9633,2.3375,-1.7391,4.3826,0.487
2715,0.1916,-9.8866,2.2609,-1.8087,4.1739,0.3478
2720,0.1533,-9.8483,2.2992,-2.0174,4.2435,0.3478
2725,0.0766,-9.9633,2.3759,-2.087,4.2435,0.2087
2730,0.1916,-9.8866,2.4142,-2.087,4.313,0.2087
2735,0.0766,-9.9633,2.3375,-2.087,4.313,0.2087
2740,0.0766,-9.8866,2.3759,-1.8087,4.3826,0.2087
2745,0.115,-9.81,2.1076,-1.7391,4.5217,0.1391
2750,0.1533,-10.0016,2.2226,-1.4609,4.5217,0.2087
2755,0.0383,-10.0016,2.1076,-1.3913,4.6609,0.2783
2760,0.0383,-9.925,2.3375,-1.3913,4.7304,0.2783
2765,0.115,-9.9633,2.3759,-1.3217,4.8,0.2783
2770,0.1533,-10.0016,2.2992,-1.3217,4.8,0.2087
2775,0.0,-9.925,2.3759,-1.3217,4.8696,0.2783
2780,0.0766,-9.8866,2.3759,-1.3217,5.0087,0.3478
2785,0.0383,-9.925,2.2609,-1.3913,5.2174,0.487
2790,0.1533,-9.9633,2.2609,-1.5304,5.4261,0.487
2795,0.0766,-9.8483,2.2992,-1.6696,5.4261,0.3478
2800,0.1533,-9.8483,2.3375,-1.8783,5.5652,0.4174
2805,0.115,-9.8483,2.4908,-2.087,5.5652,0.3478
2810,0.0766,-9.8866,2.2992,-2.3652,5.4957,0.2087
2815,0.1533,-9.8866,2.2226,-2.5043,5.4957,0.0696
2820,0.1533,-9.8866,2.3375,-2.713,5.4261,0.1391
2825,0.3832,-9.9633,2.2609,-3.0609,5.287,0.0696
2830,0.0383,-9.81,2.3759,-3.1304,5.2174,-0.1391
2835,0.115,-9.925,2.2609,-3.4087,5.1478,-0.1391
2840,0.0,-9.8866,2.2992,-3.5478,5.0087,-0.0696
2845,0.1533,-9.925,2.4142,-3.7565,4.8696,-0.2087
2850,0.0766,-9.8483,2.2992,-3.8957,4.8,-0.2783
2855,0.3832,-9.8866,2.4525,-4.0348,4.8696,-0.2783
2860,0.115,-9.925,2.2609,-4.1043,4.8,-0.2783
2865,0.0766,-10.1166,2.2226,-4.2435,4.8,-0.2783
2870,0.0383,-10.0016,2.2226,-4.2435,4.8696,-0.2783
2875,0.1533,-10.0016,2.4142,-4.1739,4.9391,-0.3478
2880,0.0383,-9.8866,2.1843,-4.1043,5.0783,-0.2783
2885,0.0383,-9.9633,2.2992,-3.8261,5.2174,-0.1391
2890,0.0383,-10.0782,2.1843,-3.6174,5.4261,0.0
2895,0.0383,-10.0016,2.2992,-3.4783,5.4957,0.0
2900,0.0383,-9.925,2.0693,-3.4087,5.7739,0.0696
2905,0.0,-9.9633,2.1459,-3.3391,5.7043,0.0
2910,0.0766,-10.0399,2.2609,-3.4087,5.7043,0.0696
2915,0.1533,-10.1549,2.2226,-3.4783,5.7043,0.0696
2920,0.0766,-10.1166,2.2609,-3.687,5.6348,0.0
2925,0.115,-10.0782,2.2609,-3.8261,5.5652,0.0696
2930,0.0383,-9.9633,2.2226,-4.0348,5.5652,0.0696
2935,0.0383,-10.0782,1.9927,-4.0348,5.4957,0.1391
2940,0.0383,-10.0016,2.0693,-4.1043,5.287,0.0696
2945,0.0766,-10.0399,2.1843,-4.0348,5.287,0.0696
2950,0.1533,-9.9633,2.1843,-3.9652,5.1478,0.2087
2955,0.0766,-10.0016,2.1076,-3.8261,5.0087,0.3478
2960,0.0766,-10.0016,2.2226,-3.6174,4.8696,0.4174
2965,0.1916,-10.0016,2.4142,-3.4087,4.8696,0.487
2970,0.1533,-10.0016,2.1843,-3.3391,4.8696,0.487
2975,0.0766,-10.0016,2.2992,-3.0609,4.8,0.487
2980,0.0,-9.8483,2.2226,-2.9913,4.7304,0.4174
2985,0.0766,-9.8483,2.2226,-3.0609,4.8696,0.2783
2990,0.0766,-9.81,2.1843,-3.0609,4.8696,0.3478
2995,0.0766,-9.925,2.2609,-3.1304,5.0087,0.3478
