timestamp,accX,accY,accZ,gyroX,gyroY,gyroZ
0,0.0,-8.4305,3.4871,-1.3913,3.9652,-0.6957
5,0.0383,-8.3155,3.4105,-1.4609,4.1739,-0.7652
10,0.115,-8.4688,3.3339,-1.6,4.2435,-0.7652
15,0.0,-8.4305,3.2955,-1.8087,4.5913,-0.6261
20,0.1533,-8.3538,3.2955,-2.2261,5.1478,-0.7652
25,0.0766,-8.3155,3.1423,-2.713,5.6348,-0.5565
30,0.0766,-8.5071,3.3339,-3.1304,6.3304,-0.5565
35,0.2299,-8.4305,3.1039,-3.3391,7.0261,-0.3478
40,0.1533,-8.5071,3.1806,-3.5478,7.6522,-0.3478
45,0.0766,-8.4688,3.3722,-3.4783,8.2087,-0.2087
50,0.2299,-8.5454,3.3722,-3.4087,8.4174,-0.2783
55,0.0383,-8.5838,3.3722,-3.2,8.487,-0.2783
60,0.0,-8.5838,3.4871,-2.9913,8.3478,-0.487
65,0.0383,-8.5454,3.6404,-2.6435,7.9304,-0.6957
70,0.0766,-8.5071,3.5255,-2.1565,7.3739,-1.1826
75,0.0,-8.4305,3.6787,-1.9478,6.887,-1.0435
80,0.0,-8.6221,3.6787,-1.8783,6.4,-1.1826
85,0.0383,-8.5454,3.7937,-1.7391,6.0522,-1.1826
90,-0.0383,-8.5454,3.5255,-1.9478,5.6348,-1.3217
95,-0.0766,-8.3921,3.5638,-2.087,5.287,-1.2522
100,0.0,-8.4305,3.5638,-2.1565,4.8696,-1.3217
105,-0.115,-8.5071,3.7171,-2.3652,4.6609,-1.113
110,0.0,-8.5071,3.6787,-2.4348,4.5217,-1.113
115,0.0383,-8.6221,3.7554,-2.4348,4.313,-0.9739
120,0.0383,-8.5071,3.6787,-2.4348,4.3826,-0.9739
125,0.0766,-8.5071,3.6021,-2.3652,4.3826,-0.6957
130,0.0383,-8.5838,3.5638,-2.2957,4.4522,-0.7652
135,0.1916,-8.5454,3.6021,-2.2957,4.3826,-0.5565
140,0.0383,-8.5454,3.5638,-2.2261,4.5217,-0.7652
145,0.0383,-8.5838,3.4871,-2.1565,4.5913,-0.6957
150,0.0383,-8.5071,3.5638,-2.1565,4.5913,-0.9739
155,0.115,-8.6221,3.4488,-2.0174,4.6609,-0.7652
160,0.0766,-8.5071,3.6021,-1.8087,4.6609,-0.9043
165,0.115,-8.5838,3.4871,-1.6,4.7304,-0.6957
170,0.0766,-8.5838,3.5255,-1.5304,4.8696,-0.7652
175,0.115,-8.4305,3.5255,-1.3217,4.8696,-0.6261
180,-0.0383,-8.4305,3.3722,-1.1826,4.8,-0.6957
185,0.0383,-8.4305,3.6021,-1.113,4.6609,-0.4174
190,0.115,-8.4688,3.5255,-1.113,4.5913,-0.6261
195,0.0766,-8.4688,3.4105,-1.0435,4.4522,-0.3478
200,0.1533,-8.6221,3.5255,-0.9739,4.313,-0.5565
205,0.115,-8.5454,3.5638,-0.8348,4.1043,-0.2783
210,0.0,-8.4688,3.5638,-0.9043,3.9652,-0.487
215,-0.0383,-8.3921,3.5255,-0.9739,3.8957,-0.2783
220,-0.0766,-8.5071,3.6021,-0.9739,3.8261,-0.487
225,-0.0383,-8.5071,3.5255,-1.0435,3.7565,-0.487
230,-0.0383,-8.6221,3.4871,-1.113,3.6174,-0.5565
235,0.0766,-8.4688,3.6021,-1.1826,3.5478,-0.4174
240,0.0383,-8.5071,3.4871,-1.1826,3.5478,-0.6261
245,0.0,-8.3921,3.2955,-1.1826,3.6174,-0.487
250,0.0383,-8.4305,3.4488,-1.2522,3.6174,-0.7652
255,0.1533,-8.6221,3.4488,-1.2522,3.7565,-0.5565
260,0.0,-8.4305,3.4105,-1.3217,4.0348,-0.6261
265,0.0,-8.5454,3.4105,-1.3913,4.0348,-0.3478
270,-0.0383,-8.5838,3.4871,-1.5304,4.1739,-0.4174
275,0.0,-8.4688,3.5255,-1.3913,4.1739,-0.2783
280,0.0383,-8.4688,3.5255,-1.5304,4.1043,-0.2783
285,0.0,-8.5071,3.4871,-1.5304,3.9652,-0.2087
290,0.0,-8.4305,3.6404,-1.5304,3.687,-0.2783
295,0.0,-8.4688,3.6404,-1.5304,3.4783,-0.2087
300,0.0766,-8.5454,3.5255,-1.6,3.4087,-0.3478
305,0.0383,-8.5838,3.5255,-1.6696,3.4087,-0.2087
310,0.0766,-8.4688,3.6404,-1.7391,3.3391,-0.4174
315,0.0766,-8.4688,3.4871,-1.8087,3.3391,-0.4174
320,0.115,-8.5071,3.4871,-1.7391,3.4087,-0.6261
325,0.1533,-8.5838,3.4488,-1.6696,3.4783,-0.487
330,-0.1916,-8.4305,3.2572,-1.6,3.4783,-0.6261
335,0.115,-8.5454,3.6021,-1.5304,3.6174,-0.5565
340,0.0383,-8.6221,3.6021,-1.4609,3.6174,-0.6957
345,0.0383,-8.5071,3.4488,-1.3913,3.5478,-0.4174
350,0.0383,-8.4688,3.4871,-1.3217,3.5478,-0.6957
355,0.1533,-8.5838,3.4871,-1.4609,3.6174,-0.5565
360,0.115,-8.5838,3.4105,-1.4609,3.687,-0.6957
365,0.1916,-8.6604,3.5255,-1.4609,3.6174,-0.5565
370,0.0,-8.5838,3.5638,-1.3913,3.6174,-0.6957
375,0.0766,-8.4688,3.4871,-1.3217,3.687,-0.5565
380,0.0766,-8.5838,3.4871,-1.2522,3.6174,-0.6957
385,0.1533,-8.5454,3.5255,-1.1826,3.687,-0.487
390,0.0383,-8.5071,3.3339,-1.1826,3.6174,-0.6261
395,0.115,-8.5838,3.4871,-0.9739,3.7565,-0.487
400,-0.0766,-8.4305,3.4488,-0.9739,3.7565,-0.6261
405,0.0383,-8.5454,3.6021,-0.7652,3.8261,-0.4174
410,-0.1533,-8.3921,3.5255,-0.8348,3.7565,-0.6261
415,-0.0383,-8.4305,3.4871,-0.7652,3.8261,-0.487
420,-0.0383,-8.5838,3.5638,-0.6957,3.8957,-0.6261
425,0.0383,-8.5838,3.3339,-0.6957,3.8957,-0.487
430,0.0,-8.4688,3.5638,-0.6261,3.8261,-0.6261
435,0.0,-8.4688,3.5638,-0.6957,3.687,-0.487
440,-0.0383,-8.5454,3.4871,-0.7652,3.687,-0.5565
445,-0.0383,-8.3921,3.5638,-0.6957,3.7565,-0.487
450,0.0383,-8.5071,3.4105,-0.6261,3.7565,-0.5565
455,-0.0383,-8.5454,3.5638,-0.6957,3.687,-0.3478
460,0.0383,-8.5071,3.4871,-0.6957,3.6174,-0.5565
465,0.0383,-8.737,3.5638,-0.5565,3.5478,-0.4174
470,0.0,-8.4688,3.5255,-0.5565,3.4783,-0.4174
475,-0.0383,-8.5071,3.4488,-0.5565,3.4087,-0.2783
480,-0.115,-8.4305,3.4871,-0.5565,3.2696,-0.4174
485,0.0383,-8.5454,3.4871,-0.6261,3.2696,-0.2783
490,-0.0383,-8.4688,3.4488,-0.6957,3.2,-0.6957
495,0.0383,-8.4688,3.4488,-0.6957,3.2,-0.487
500,0.0383,-8.5838,3.5638,-0.7652,3.2,-0.5565
505,-0.115,-8.4305,3.5638,-0.7652,3.2,-0.487
510,0.0383,-8.6604,3.6404,-0.6957,3.2,-0.6261
515,0.0,-8.5071,3.5255,-0.6261,3.2,-0.487
520,0.115,-8.4688,3.4871,-0.6261,3.2,-0.6957
525,0.0383,-8.5838,3.6021,-0.6261,3.2696,-0.5565
530,0.0766,-8.4305,3.4105,-0.6261,3.2,-0.6957
535,0.0383,-8.5071,3.4871,-0.4174,3.2,-0.5565
540,0.0766,-8.5454,3.5638,-0.487,3.1304,-0.8348
545,0.0,-8.5454,3.4488,-0.4174,3.2696,-0.6261
550,0.0,-8.4305,3.4488,-0.4174,3.3391,-0.6957
555,-0.0383,-8.5071,3.3722,-0.3478,3.4783,-0.6957
560,0.1533,-8.5071,3.4488,-0.3478,3.5478,-0.8348
565,0.0,-8.5071,3.5638,-0.3478,3.4087,-0.6261
570,0.0383,-8.5454,3.6404,-0.2783,3.4087,-0.9043
575,-0.0383,-8.5454,3.6021,-0.2783,3.5478,-0.6957
580,-0.0383,-8.5454,3.6021,-0.1391,3.6174,-0.9043
585,0.0383,-8.5838,3.3722,-0.1391,3.6174,-0.7652
590,0.0766,-8.5071,3.3722,-0.1391,3.6174,-0.9043
595,0.115,-8.4688,3.6021,-0.1391,3.687,-0.6957
600,0.0,-8.4305,3.5255,-0.0696,3.6174,-0.9043
605,0.115,-8.3538,3.4871,-0.2087,3.687,-0.7652
610,0.115,-8.3538,3.3722,-0.1391,3.8957,-0.8348
615,0.115,-8.5454,3.4871,-0.0696,3.9652,-0.7652
620,0.1533,-8.4688,3.5638,-0.2783,4.1043,-0.6957
625,0.1916,-8.4688,3.6021,-0.2783,4.1739,-0.487
630,0.0,-8.4688,3.6021,-0.2783,4.1043,-0.5565
635,0.0,-8.4305,3.3339,-0.2783,4.1043,-0.4174
640,-0.0766,-8.3921,3.6021,-0.4174,4.1043,-0.487
645,0.0766,-8.4305,3.5255,-0.6261,4.0348,-0.4174
650,0.1533,-8.4688,3.7171,-0.6261,3.9652,-0.5565
655,0.0383,-8.5838,3.4871,-0.6261,3.8957,-0.487
660,0.115,-8.5071,3.3722,-0.7652,3.8957,-0.6261
665,0.115,-8.4305,3.5255,-0.5565,3.9652,-0.6261
670,0.0,-8.3921,3.4488,-0.6261,3.8957,-0.6261
675,0.0766,-8.5071,3.3339,-0.6261,3.9652,-0.6261
680,-0.0383,-8.4688,3.4488,-0.6957,4.0348,-0.7652
685,0.0383,-8.5071,3.5638,-0.6261,3.9652,-0.487
690,0.0,-8.3921,3.4488,-0.5565,4.0348,-0.5565
695,0.115,-8.5838,3.5638,-0.487,4.0348,-0.487
700,0.0,-8.5071,3.6404,-0.487,3.8957,-0.487
705,0.0383,-8.4688,3.5638,-0.6261,3.7565,-0.4174
710,-0.0383,-8.3921,3.5255,-0.8348,3.687,-0.487
715,0.0,-8.4305,3.7171,-0.8348,3.687,-0.4174
720,0.1533,-8.5454,3.4871,-0.6957,3.7565,-0.4174
725,0.0383,-8.3921,3.6021,-0.7652,3.4783,-0.4174
730,0.0766,-8.5071,3.4488,-0.9043,3.5478,-0.5565
735,-0.0383,-8.5454,3.4488,-0.9739,3.6174,-0.487
740,0.0766,-8.4305,3.4105,-1.0435,3.5478,-0.5565
745,-0.115,-8.4305,3.4871,-1.1826,3.687,-0.487
750,0.0383,-8.4688,3.5638,-1.0435,3.7565,-0.487
755,0.0,-8.5071,3.6404,-1.113,3.7565,-0.3478
760,0.0766,-8.5071,3.6404,-1.113,3.8261,-0.4174
765,0.1916,-8.6221,3.5638,-1.1826,3.687,-0.3478
770,0.0766,-8.5454,3.5638,-1.1826,3.6174,-0.3478
775,0.3832,-8.5071,3.2955,-1.113,3.6174,-0.3478
780,0.115,-8.4305,3.6021,-1.113,3.5478,-0.2087
785,0.115,-8.4688,3.4871,-1.113,3.5478,-0.3478
790,0.0383,-8.4688,3.3722,-0.9739,3.4783,-0.2783
795,0.115,-8.3921,3.4871,-0.9043,3.4783,-0.2783
800,0.115,-8.5838,3.4871,-0.9043,3.5478,-0.3478
805,0.0383,-8.5071,3.5255,-0.9043,3.5478,-0.3478
810,0.115,-8.5454,3.4488,-0.8348,3.6174,-0.4174
815,0.0,-8.5071,3.5255,-0.7652,3.687,-0.4174
820,0.1533,-8.5071,3.6404,-0.7652,3.687,-0.3478
825,0.115,-8.4688,3.4488,-0.7652,3.7565,-0.5565
830,0.0766,-8.4688,3.5255,-0.7652,3.8261,-0.487
835,0.1533,-8.3921,3.4871,-0.6957,3.8957,-0.4174
840,0.0766,-8.4688,3.6404,-0.7652,3.8957,-0.4174
845,0.1533,-8.5454,3.4105,-0.8348,4.0348,-0.487
850,0.0766,-8.5071,3.5638,-0.9043,4.1043,-0.4174
855,0.115,-8.5838,3.5638,-0.7652,4.1043,-0.487
860,0.0766,-8.5838,3.4488,-0.9043,4.1739,-0.4174
865,0.0383,-8.3921,3.5255,-0.9043,4.2435,-0.487
870,0.115,-8.4688,3.3722,-0.7652,4.2435,-0.4174
875,0.1533,-8.4688,3.5638,-0.7652,4.313,-0.487
880,0.1533,-8.5071,3.4871,-0.6957,4.313,-0.3478
885,0.0383,-8.5071,3.6787,-0.7652,4.2435,-0.2783
890,0.0766,-8.3921,3.4488,-0.7652,4.2435,-0.2783
895,0.0383,-8.4305,3.4871,-0.7652,4.313,-0.3478
900,0.2299,-8.5071,3.6404,-0.7652,4.313,-0.4174
905,0.115,-8.5071,3.4488,-0.6261,4.2435,-0.4174
910,0.0383,-8.4688,3.5255,-0.6261,4.2435,-0.3478
915,0.0383,-8.5838,3.6404,-0.6261,4.2435,-0.4174
920,0.115,-8.5454,3.5638,-0.7652,4.1739,-0.4174
925,0.0383,-8.5838,3.5255,-0.7652,3.9652,-0.4174
930,0.115,-8.5071,3.5638,-0.7652,4.0348,-0.4174
935,0.0766,-8.5838,3.5255,-0.9043,4.0348,-0.5565
940,0.1533,-8.4305,3.4871,-0.9043,3.9652,-0.5565
945,0.0,-8.3538,3.4105,-0.9739,4.0348,-0.7652
950,0.115,-8.4305,3.6021,-1.113,3.9652,-0.5565
955,0.0,-8.3538,3.5255,-1.113,4.0348,-0.6261
960,0.0383,-8.5454,3.3722,-1.1826,4.1043,-0.5565
965,0.1533,-8.5454,3.5638,-1.113,4.0348,-0.6957
970,0.0766,-8.4688,3.4871,-1.113,4.1043,-0.487
975,0.115,-8.3921,3.6404,-1.1826,4.1043,-0.5565
980,0.0766,-8.3921,3.4871,-1.1826,3.8957,-0.4174
985,0.115,-8.4688,3.4871,-1.0435,3.8261,-0.487
990,0.0766,-8.4305,3.4871,-0.9739,3.8261,-0.3478
995,0.0383,-8.4688,3.6404,-0.9043,3.8957,-0.487
1000,-0.0766,-8.3921,3.4871,-0.9043,3.8261,-0.4174
1005,0.115,-8.5454,3.4871,-0.9739,3.687,-0.5565
1010,0.0766,-8.4688,3.4871,-0.9043,3.7565,-0.487
1015,0.0,-8.5071,3.6404,-0.9043,3.8261,-0.5565
1020,0.0766,-8.5071,3.5255,-0.9739,3.8957,-0.6261
1025,0.0383,-8.4305,3.4105,-0.9043,3.8261,-0.6261
1030,0.0383,-8.5454,3.6021,-0.9043,3.8957,-0.5565
1035,0.115,-8.5071,3.5255,-0.9043,3.8957,-0.6957
1040,0.115,-8.5071,3.1423,-0.9043,3.9652,-0.6957
1045,0.0383,-8.4688,3.4488,-0.9043,3.9652,-0.6957
1050,0.0,-8.5454,3.4871,-0.9739,4.0348,-0.5565
1055,0.0,-8.5071,3.5255,-0.9043,4.0348,-0.6957
1060,0.0766,-8.4688,3.4871,-0.9043,3.9652,-0.6261
1065,-0.0383,-8.4688,3.4488,-0.9739,3.8957,-0.6957
1070,0.0766,-8.5454,3.4105,-0.8348,3.8957,-0.5565
1075,0.115,-8.5838,3.5255,-0.8348,3.9652,-0.6957
1080,0.0383,-8.5071,3.5638,-0.9043,3.9652,-0.487
1085,0.0383,-8.4688,3.5638,-0.8348,3.8957,-0.6261
1090,0.0766,-8.5838,3.4871,-0.7652,3.8957,-0.5565
1095,-0.0383,-8.4688,3.4871,-0.7652,3.8957,-0.6261
1100,0.115,-8.5071,3.6021,-0.7652,3.8957,-0.4174
1105,0.0,-8.4688,3.3339,-0.6261,3.8957,-0.6261
1110,0.0,-8.4688,3.5638,-0.6957,3.9652,-0.5565
1115,0.115,-8.4688,3.6021,-0.6957,4.0348,-0.6957
1120,0.0383,-8.3921,3.4871,-0.5565,3.9652,-0.5565
1125,0.0383,-8.5454,3.4871,-0.5565,3.9652,-0.7652
1130,0.0383,-8.5454,3.6404,-0.6261,3.8957,-0.6261
1135,0.0766,-8.4305,3.3722,-0.6261,3.9652,-0.6957
1140,0.0383,-8.5071,3.5638,-0.6261,4.0348,-0.487
1145,0.0383,-8.5071,3.4871,-0.6261,4.0348,-0.6957
1150,0.115,-8.5838,3.4871,-0.5565,4.0348,-0.4174
1155,0.0766,-8.4688,3.5255,-0.6261,4.0348,-0.6261
1160,0.0383,-8.4305,3.4871,-0.6261,3.8957,-0.487
1165,0.0766,-8.4305,3.6404,-0.6957,3.9652,-0.6261
1170,0.0766,-8.4688,3.5638,-0.6957,3.8957,-0.4174
1175,0.0,-8.4688,3.4105,-0.6957,3.8957,-0.5565
1180,0.0766,-8.5454,3.6404,-0.6957,3.8261,-0.4174
1185,0.0,-8.4688,3.5255,-0.6261,3.8957,-0.6261
1190,0.0766,-8.4305,3.6404,-0.6957,3.8957,-0.487
1195,0.0766,-8.4305,3.5255,-0.6957,3.8957,-0.6957
1200,0.1916,-8.5838,3.5255,-0.6261,3.9652,-0.3478
1205,0.0383,-8.4305,3.6021,-0.6957,4.0348,-0.6957
1210,0.115,-8.5071,3.4105,-0.6261,4.1739,-0.487
1215,0.0383,-8.4688,3.5255,-0.6957,4.1043,-0.6261
1220,0.0383,-8.3921,3.5255,-0.7652,4.1739,-0.487
1225,0.115,-8.4305,3.3339,-0.7652,4.1739,-0.5565
1230,0.0,-8.3538,3.4871,-0.6957,4.1739,-0.487
1235,0.0766,-8.5454,3.5638,-0.6957,4.1739,-0.6261
1240,0.0766,-8.5454,3.6021,-0.6957,4.1043,-0.4174
1245,-0.0766,-8.4688,3.5638,-0.8348,4.1043,-0.6261
1250,-0.0383,-8.4688,3.4871,-0.7652,4.1043,-0.4174
1255,0.0,-8.5071,3.4871,-0.7652,4.0348,-0.5565
1260,0.0,-8.4305,3.4871,-0.6957,4.1043,-0.4174
1265,0.115,-8.4305,3.5255,-0.8348,4.0348,-0.6957
1270,0.0766,-8.4688,3.4871,-0.7652,4.0348,-0.487
1275,0.1533,-8.5454,3.6787,-0.7652,3.9652,-0.6261
1280,0.0766,-8.4688,3.5638,-0.8348,4.0348,-0.3478
1285,0.115,-8.5838,3.5638,-0.9739,3.9652,-0.5565
1290,0.0766,-8.5838,3.4105,-0.9043,3.8261,-0.3478
1295,0.1916,-8.4305,3.5638,-0.8348,3.8957,-0.5565
1300,0.115,-8.4688,3.5255,-0.9043,4.0348,-0.3478
1305,0.115,-8.5071,3.5638,-0.9043,4.0348,-0.487
1310,0.0766,-8.5454,3.4871,-0.8348,3.8957,-0.4174
1315,0.0,-8.5454,3.832,-0.8348,3.9652,-0.6261
1320,0.1916,-8.4688,3.6021,-0.8348,4.0348,-0.4174
1325,0.0383,-8.4688,3.4871,-0.8348,4.0348,-0.5565
1330,0.0,-8.4305,3.4871,-0.8348,4.1043,-0.4174
1335,0.0383,-8.3921,3.4488,-0.8348,4.0348,-0.5565
1340,0.1916,-8.3921,3.4871,-0.6957,4.2435,-0.2783
1345,0.0766,-8.5071,3.5638,-0.7652,4.1739,-0.5565
1350,0.0,-8.4305,3.5638,-0.9043,4.1739,-0.2783
1355,0.115,-8.5071,3.5255,-0.9043,4.2435,-0.4174
1360,0.0383,-8.5454,3.5255,-1.0435,4.1739,-0.3478
1365,0.0,-8.5071,3.4871,-1.0435,4.1739,-0.5565
1370,-0.0383,-8.6221,3.5638,-0.9739,4.0348,-0.487
1375,0.115,-8.5071,3.6021,-0.9043,4.0348,-0.5565
1380,0.1533,-8.5454,3.4488,-0.9043,4.0348,-0.5565
1385,0.0766,-8.6221,3.5255,-0.9043,3.9652,-0.6957
1390,0.0383,-8.3538,3.5255,-0.9043,4.1043,-0.5565
1395,0.1533,-8.4688,3.6404,-0.9043,4.1739,-0.6957
1400,0.1533,-8.5454,3.4488,-0.8348,4.1043,-0.5565
1405,0.115,-8.5454,3.6021,-0.6957,4.1043,-0.6261
1410,0.0,-8.5071,3.5638,-0.5565,4.0348,-0.4174
1415,0.0,-8.4305,3.5638,-0.487,3.8957,-0.487
1420,0.0766,-8.4305,3.5638,-0.3478,3.8261,-0.3478
1425,-0.0383,-8.3921,3.5638,-0.4174,3.7565,-0.4174
1430,0.0,-8.3921,3.4871,-0.4174,3.7565,-0.2783
1435,0.0,-8.4305,3.5255,-0.487,3.687,-0.4174
1440,-0.0383,-8.4305,3.6404,-0.5565,3.687,-0.4174
1445,0.0766,-8.5071,3.5638,-0.487,3.687,-0.5565
1450,-0.0383,-8.5454,3.6021,-0.6261,3.687,-0.5565
1455,0.0383,-8.5454,3.7554,-0.7652,3.6174,-0.6261
1460,0.0,-8.5454,3.6021,-0.7652,3.7565,-0.487
1465,0.0766,-8.5071,3.5255,-0.8348,3.9652,-0.6261
1470,0.0383,-8.5454,3.5638,-0.7652,4.0348,-0.5565
1475,-0.115,-8.3921,3.7554,-0.9043,4.0348,-0.6261
1480,0.115,-8.5454,3.4871,-0.8348,3.9652,-0.487
1485,0.115,-8.5454,3.7554,-1.0435,3.9652,-0.6261
1490,0.115,-8.4688,3.6021,-1.1826,4.0348,-0.4174
1495,0.0383,-8.3538,3.6021,-1.2522,4.0348,-0.3478
1500,0.115,-8.5071,3.6021,-1.1826,3.9652,-0.2783
1505,0.0,-8.4688,3.6787,-1.2522,3.9652,-0.3478
1510,-0.0383,-8.5454,3.6404,-1.2522,3.8957,-0.1391
1515,-0.0766,-8.3155,3.6404,-1.2522,3.8957,-0.2087
1520,0.115,-8.5454,3.5255,-1.1826,3.9652,-0.1391
1525,0.1916,-8.3921,3.4488,-1.2522,3.9652,-0.1391
1530,0.115,-8.4305,3.6021,-1.113,3.8261,-0.1391
1535,0.0383,-8.4305,3.4488,-1.113,3.8261,-0.2087
1540,0.0766,-8.4305,3.5255,-1.0435,3.8957,0.0
1545,0.115,-8.5838,3.4871,-0.9739,3.8957,-0.3478
1550,0.1916,-8.5454,3.5255,-0.9739,3.8957,-0.2087
1555,0.0383,-8.5071,3.6021,-0.9739,3.9652,-0.3478
1560,0.115,-8.5838,3.5638,-0.9739,4.1043,-0.2783
1565,0.0383,-8.4688,3.4871,-0.9043,4.1043,-0.487
1570,0.1533,-8.5071,3.4105,-0.9043,4.0348,-0.4174
1575,0.115,-8.4688,3.4871,-0.7652,4.0348,-0.487
1580,0.115,-8.4688,3.4105,-0.7652,4.1043,-0.4174
1585,0.0383,-8.5454,3.4871,-0.6957,4.1043,-0.4174
1590,0.115,-8.4305,3.5255,-0.6261,4.1739,-0.5565
1595,-0.0383,-8.5071,3.5255,-0.6261,4.0348,-0.487
1600,0.0383,-8.5454,3.5255,-0.487,4.1043,-0.487
1605,0.0766,-8.4305,3.4871,-0.487,4.0348,-0.5565
1610,0.0766,-8.4688,3.4871,-0.5565,3.9652,-0.487
1615,-0.0383,-8.4688,3.4871,-0.487,4.0348,-0.4174
1620,0.1533,-8.5838,3.4871,-0.4174,4.1043,-0.4174
1625,0.0,-8.4305,3.6021,-0.3478,4.0348,-0.487
1630,0.0383,-8.4305,3.6404,-0.3478,4.0348,-0.4174
1635,0.0766,-8.5454,3.5638,-0.2783,3.8957,-0.4174
1640,-0.0383,-8.4305,3.6021,-0.4174,3.8957,-0.487
1645,0.0766,-8.5071,3.5638,-0.4174,3.8261,-0.487
1650,0.0383,-8.5071,3.5638,-0.4174,3.7565,-0.4174
1655,0.115,-8.4305,3.5638,-0.5565,3.8957,-0.5565
1660,0.0766,-8.4688,3.6404,-0.487,3.7565,-0.487
1665,0.1533,-8.3921,3.5255,-0.6261,3.7565,-0.6261
1670,0.1533,-8.3921,3.6404,-0.6957,3.7565,-0.6261
1675,0.1916,-8.3921,3.6021,-0.6957,3.8957,-0.6957
1680,0.0,-8.3538,3.6021,-0.8348,4.0348,-0.7652
1685,0.115,-8.4688,3.5638,-0.9043,4.0348,-0.6261
1690,0.0766,-8.4688,3.4488,-0.9043,4.1043,-0.6261
1695,0.0,-8.3538,3.5638,-0.8348,4.0348,-0.6261
1700,0.2682,-8.5454,3.5255,-0.7652,3.8957,-0.6261
1705,0.0383,-8.4305,3.6021,-0.7652,3.8261,-0.5565
1710,0.1533,-8.4305,3.5638,-0.7652,3.8957,-0.487
1715,0.0766,-8.4688,3.5255,-0.6957,3.8957,-0.487
1720,0.0383,-8.4688,3.4871,-0.6261,3.8261,-0.5565
1725,0.0766,-8.4305,3.4871,-0.6261,3.7565,-0.6261
1730,0.0766,-8.3538,3.7554,-0.6957,3.687,-0.6261
1735,0.0383,-8.4688,3.6404,-0.7652,3.6174,-0.5565
1740,0.0,-8.5071,3.6404,-0.6261,3.687,-0.6261
1745,0.0383,-8.4305,3.4871,-0.5565,3.687,-0.5565
1750,0.0766,-8.3921,3.832,-0.6261,3.7565,-0.6957
1755,0.0383,-8.5454,3.4105,-0.6261,3.6174,-0.6261
1760,0.0766,-8.4305,3.5255,-0.5565,3.6174,-0.6261
1765,0.115,-8.5838,3.6021,-0.5565,3.7565,-0.5565
1770,0.0766,-8.5454,3.5255,-0.487,3.6174,-0.6261
1775,0.115,-8.5071,3.4871,-0.5565,3.5478,-0.6261
1780,0.115,-8.4305,3.5255,-0.5565,3.6174,-0.6261
1785,0.0766,-8.5071,3.4871,-0.487,3.4783,-0.5565
1790,-0.0766,-8.4688,3.4105,-0.5565,3.5478,-0.6261
1795,0.0766,-8.3921,3.5255,-0.6261,3.6174,-0.487
1800,0.115,-8.5071,3.5255,-0.487,3.7565,-0.6957
1805,0.0766,-8.3538,3.5255,-0.5565,3.7565,-0.5565
1810,0.0766,-8.4688,3.6021,-0.5565,3.7565,-0.6261
1815,0.0766,-8.4305,3.4871,-0.4174,3.7565,-0.487
1820,0.1533,-8.4688,3.6021,-0.3478,3.7565,-0.6261
1825,0.2299,-8.4305,3.5255,-0.3478,3.8261,-0.5565
1830,0.0766,-8.4305,3.6021,-0.3478,3.8261,-0.5565
1835,0.0766,-8.4305,3.4871,-0.5565,3.8957,-0.5565
1840,0.0766,-8.4688,3.6787,-0.487,3.9652,-0.6957
1845,0.0383,-8.4305,3.6787,-0.487,4.1043,-0.5565
1850,0.115,-8.3921,3.4871,-0.487,4.0348,-0.6261
1855,0.115,-8.3538,3.5638,-0.487,4.0348,-0.5565
1860,0.115,-8.5071,3.5255,-0.487,4.0348,-0.6261
1865,0.115,-8.3921,3.5638,-0.5565,4.0348,-0.487
1870,0.0766,-8.4688,3.5638,-0.5565,4.0348,-0.6261
1875,0.115,-8.3921,3.4871,-0.6957,3.9652,-0.4174
1880,0.0383,-8.4305,3.5255,-0.6957,3.9652,-0.6261
1885,0.0383,-8.5071,3.4871,-0.6261,3.9652,-0.5565
1890,0.0,-8.4305,3.5255,-0.6957,3.8261,-0.5565
1895,0.115,-8.5071,3.6021,-0.6957,3.8957,-0.3478
1900,0.0766,-8.5071,3.4871,-0.7652,3.8957,-0.4174
1905,0.0766,-8.3921,3.5255,-0.9043,3.7565,-0.4174
1910,0.4215,-8.5071,3.7554,-0.8348,3.8261,-0.5565
1915,0.1533,-8.4688,3.4871,-0.8348,3.8261,-0.4174
1920,0.0,-8.4688,3.5638,-0.8348,3.8957,-0.487
1925,0.0383,-8.4305,3.6021,-0.8348,3.9652,-0.3478
1930,0.115,-8.4305,3.5638,-0.9043,3.9652,-0.487
1935,0.0,-8.4688,3.4871,-0.8348,3.9652,-0.4174
1940,0.1916,-8.3538,3.5638,-0.8348,4.0348,-0.5565
1945,0.115,-8.4688,3.5255,-0.8348,4.1043,-0.3478
1950,0.0383,-8.5071,3.4105,-0.9043,4.1739,-0.5565
1955,0.0383,-8.3921,3.4871,-0.9043,4.1739,-0.3478
1960,0.0,-8.4688,3.5638,-0.9043,4.2435,-0.5565
1965,0.0,-8.4688,3.6787,-0.8348,4.1739,-0.3478
1970,0.0766,-8.3921,3.6021,-0.9043,4.1739,-0.4174
1975,0.0766,-8.4688,3.5638,-0.9739,4.0348,-0.3478
1980,0.0383,-8.4688,3.6404,-0.9739,4.1043,-0.487
1985,0.0766,-8.5454,3.5638,-0.9739,4.0348,-0.2783
1990,0.1533,-8.5071,3.7937,-1.113,3.9652,-0.4174
1995,0.0383,-8.5071,3.7171,-0.9043,3.9652,-0.3478
2000,0.0766,-8.5071,3.4488,-0.9043,3.8957,-0.5565
2005,0.115,-8.3155,3.6021,-0.9739,3.9652,-0.3478
2010,0.0,-8.4305,3.6404,-0.9043,3.9652,-0.4174
2015,0.0766,-8.5071,3.6021,-0.9043,3.8957,-0.2783
2020,0.0383,-8.5071,3.6021,-1.0435,3.8957,-0.3478
2025,0.115,-8.4305,3.5255,-0.9739,3.8957,-0.2783
2030,0.115,-8.2772,3.6404,-0.9043,3.8957,-0.4174
2035,0.1533,-8.4688,3.5255,-0.9739,3.8957,-0.1391
2040,0.115,-8.3538,3.5638,-1.113,3.9652,-0.3478
2045,0.0383,-8.5071,3.5638,-1.113,4.1043,-0.1391
2050,0.0,-8.5071,3.7554,-1.0435,4.1043,-0.2783
2055,0.0383,-8.4688,3.5638,-1.0435,4.1739,0.0
2060,0.0,-8.4688,3.7171,-1.113,4.1739,-0.2783
2065,0.115,-8.4305,3.6021,-0.9739,4.1739,0.0
2070,0.0383,-8.3921,3.5255,-1.0435,4.2435,-0.1391
2075,0.115,-8.4688,3.4871,-0.9739,4.1739,0.0
2080,0.1533,-8.5071,3.4488,-0.9043,4.1043,-0.0696
2085,0.0766,-8.5071,3.6021,-0.9739,4.0348,-0.0696
2090,0.0766,-8.4305,3.6787,-0.9739,3.9652,-0.2087
2095,0.0,-8.4305,3.4871,-0.9739,4.1043,-0.0696
2100,0.0383,-8.5454,3.6021,-0.9043,3.9652,-0.2783
2105,0.0766,-8.3921,3.6021,-0.9043,4.1043,-0.1391
2110,0.1916,-8.4305,3.6404,-0.9043,4.1043,-0.4174
2115,0.115,-8.5071,3.6021,-0.9043,4.1043,-0.2087
2120,0.115,-8.5838,3.6404,-0.9043,4.2435,-0.4174
2125,0.0383,-8.5071,3.5255,-0.9043,4.2435,-0.4174
2130,0.0766,-8.5454,3.5255,-1.0435,4.1739,-0.6957
2135,0.115,-8.6604,3.6787,-0.9739,4.1739,-0.6261
2140,0.0,-8.5454,3.6404,-0.6957,4.1043,-0.9739
2145,0.1533,-8.5071,3.3722,-0.6261,4.1043,-0.8348
2150,0.0383,-8.4305,3.3722,-0.5565,4.1043,-0.9739
2155,0.1916,-8.4688,3.4488,-0.6261,3.9652,-0.8348
2160,0.115,-8.5454,3.5255,-0.487,4.1043,-0.9739
2165,0.0766,-8.5071,3.6404,-0.3478,4.1739,-0.7652
2170,0.0766,-8.5071,3.4871,-0.3478,4.1043,-0.8348
2175,0.0383,-8.5838,3.5638,-0.2783,4.2435,-0.6261
2180,-0.115,-8.4688,3.6021,-0.1391,4.1739,-0.6261
2185,0.4215,-8.6221,3.832,-0.0696,3.9652,-0.4174
2190,-0.0383,-8.4305,3.3722,-0.0696,3.9652,-0.5565
2195,0.0766,-8.4688,3.5255,-0.1391,3.8957,-0.3478
2200,0.0766,-8.4688,3.6404,-0.1391,3.687,-0.5565
2205,0.0,-8.3921,3.5255,-0.1391,3.5478,-0.4174
2210,0.115,-8.5071,3.7554,-0.2087,3.5478,-0.6261
2215,0.0383,-8.4305,3.6404,-0.2087,3.5478,-0.4174
2220,0.0383,-8.3921,3.5255,-0.2087,3.5478,-0.5565
2225,0.1916,-8.3921,3.6404,-0.2087,3.6174,-0.487
2230,0.0766,-8.4688,3.5638,-0.3478,3.687,-0.6957
2235,0.0383,-8.3538,3.6021,-0.3478,3.7565,-0.487
2240,0.115,-8.4305,3.6404,-0.3478,3.8261,-0.6261
2245,0.1533,-8.3538,3.5638,-0.4174,3.7565,-0.487
2250,0.0766,-8.3538,3.6787,-0.4174,3.8261,-0.5565
2255,0.1533,-8.3921,3.6404,-0.487,3.8261,-0.487
2260,0.0766,-8.3538,3.6787,-0.487,3.8261,-0.6261
2265,0.0383,-8.4688,3.6021,-0.487,3.7565,-0.5565
2270,0.1533,-8.3538,3.6787,-0.487,3.8261,-0.7652
2275,0.0766,-8.4305,3.5255,-0.6261,3.7565,-0.5565
2280,0.115,-8.6221,3.5255,-0.5565,3.687,-0.6957
2285,0.0383,-8.3921,3.5255,-0.5565,3.7565,-0.487
2290,0.1533,-8.3921,3.5638,-0.487,3.687,-0.6261
2295,0.0766,-8.4688,3.4871,-0.487,3.8261,-0.487
2300,0.0,-8.4688,3.5638,-0.5565,3.8261,-0.5565
2305,0.1533,-8.4688,3.5638,-0.5565,3.8261,-0.487
2310,0.115,-8.4305,3.5255,-0.4174,3.8957,-0.6957
2315,0.0766,-8.4688,3.5638,-0.6261,3.8261,-0.5565
2320,0.1533,-8.6221,3.4105,-0.5565,3.7565,-0.5565
2325,0.0383,-8.3921,3.6404,-0.6261,3.8261,-0.487
2330,0.115,-8.4688,3.5638,-0.487,3.9652,-0.6261
2335,0.0383,-8.4305,3.6021,-0.487,3.8957,-0.487
2340,0.0,-8.4305,3.4871,-0.5565,3.8957,-0.5565
2345,-0.115,-8.2772,3.4105,-0.6261,3.8957,-0.487
2350,0.0766,-8.5838,3.6021,-0.6261,3.8957,-0.5565
2355,0.0766,-8.4305,3.6021,-0.5565,3.8957,-0.5565
2360,0.0383,-8.5071,3.4105,-0.6957,4.0348,-0.6261
2365,0.115,-8.5454,3.5255,-0.6957,3.9652,-0.4174
2370,0.0766,-8.4305,3.5255,-0.6261,4.0348,-0.4174
2375,0.0383,-8.4688,3.6404,-0.6957,4.0348,-0.487
2380,0.115,-8.3538,3.6404,-0.6957,4.0348,-0.5565
2385,0.0766,-8.4305,3.6404,-0.7652,4.1043,-0.4174
2390,0.115,-8.5071,3.5638,-0.7652,4.0348,-0.5565
2395,0.0383,-8.4688,3.6404,-0.8348,4.1043,-0.4174
2400,0.0,-8.5454,3.4871,-0.8348,4.0348,-0.6261
2405,0.0,-8.4305,3.6404,-0.8348,4.0348,-0.487
2410,0.0383,-8.5071,3.5638,-0.7652,3.8957,-0.5565
2415,0.115,-8.3921,3.5255,-0.8348,3.8957,-0.6261
2420,0.1533,-8.5071,3.5638,-0.8348,3.8261,-0.6957
2425,0.0383,-8.3155,3.5255,-1.0435,3.8261,-0.5565
2430,0.0383,-8.3921,3.6021,-0.9739,3.8261,-0.6261
2435,0.0383,-8.4305,3.6021,-1.0435,3.8261,-0.5565
2440,0.0766,-8.4305,3.6787,-1.0435,3.8957,-0.6261
2445,0.0766,-8.3538,3.7937,-1.1826,3.8957,-0.5565
2450,0.0766,-8.5071,3.6787,-1.113,3.9652,-0.5565
2455,0.0383,-8.3921,3.6021,-1.113,4.0348,-0.4174
2460,0.0,-8.4305,3.6021,-0.9739,3.8957,-0.5565
2465,0.115,-8.3921,3.4488,-0.9739,3.9652,-0.5565
2470,0.0766,-8.4688,3.4871,-0.9043,3.9652,-0.5565
2475,0.0,-8.3921,3.6787,-0.9043,3.8957,-0.5565
2480,0.0383,-8.5454,3.4871,-0.9043,3.8957,-0.487
2485,0.115,-8.3921,3.4871,-0.8348,3.8957,-0.5565
2490,0.0,-8.4305,3.6021,-0.9043,4.0348,-0.5565
2495,0.0383,-8.3921,3.6404,-0.9043,4.0348,-0.5565
2500,0.0383,-8.5838,3.5638,-0.8348,4.0348,-0.5565
2505,0.115,-8.4688,3.6404,-0.9739,3.9652,-0.5565
2510,-0.0383,-8.4688,3.6021,-0.8348,3.9652,-0.6261
2515,0.115,-8.4305,3.6021,-0.9043,3.9652,-0.5565
2520,0.115,-8.4688,3.5638,-0.9043,3.8261,-0.487
2525,0.0766,-8.4305,3.4871,-0.9739,3.8957,-0.5565
2530,0.1916,-8.4305,3.5638,-0.8348,3.8261,-0.487
2535,0.115,-8.5454,3.4871,-0.8348,3.8261,-0.487
2540,0.0766,-8.4305,3.4488,-0.9043,3.8261,-0.4174
2545,0.0383,-8.5071,3.4488,-0.9739,3.8957,-0.487
2550,0.2299,-8.4688,3.6021,-0.8348,3.8261,-0.487
2555,-0.0383,-8.3921,3.4871,-0.8348,3.8261,-0.487
2560,0.115,-8.5071,3.4871,-0.8348,3.8957,-0.487
2565,0.0383,-8.4305,3.5255,-0.7652,3.8957,-0.4174
2570,0.0,-8.3921,3.4871,-0.7652,3.8957,-0.5565
2575,0.0383,-8.4305,3.5638,-0.8348,3.9652,-0.487
2580,0.0766,-8.5071,3.6404,-0.7652,4.0348,-0.3478
2585,0.0383,-8.4688,3.6021,-0.7652,4.0348,-0.487
2590,0.0383,-8.4688,3.4871,-0.8348,3.8957,-0.4174
2595,0.0766,-8.3921,3.6404,-0.8348,3.8957,-0.487
2600,0.0383,-8.4305,3.5255,-0.9043,3.8261,-0.487
2605,0.0766,-8.3921,3.6787,-0.7652,3.8261,-0.5565
2610,0.0383,-8.4305,3.4488,-0.8348,3.8261,-0.487
2615,0.0383,-8.3921,3.5255,-0.9043,3.8957,-0.5565
2620,-0.0766,-8.2389,3.4871,-0.8348,3.8957,-0.5565
2625,0.0766,-8.4688,3.6787,-0.8348,3.8261,-0.487
2630,0.0,-8.4688,3.5638,-0.8348,3.8261,-0.4174
2635,0.0383,-8.3921,3.6404,-0.7652,3.8261,-0.5565
2640,0.115,-8.4688,3.4871,-0.7652,3.7565,-0.4174
2645,0.0383,-8.4305,3.6021,-0.6957,3.7565,-0.5565
2650,0.1916,-8.5454,3.4488,-0.9043,3.8957,-0.4174
2655,0.0766,-8.5838,3.5255,-0.6957,3.8261,-0.5565
2660,0.0383,-8.3538,3.6021,-0.7652,3.8261,-0.4174
2665,0.0,-8.5838,3.6787,-0.7652,3.8261,-0.487
2670,-0.0383,-8.4305,3.7171,-0.7652,3.7565,-0.487
2675,0.115,-8.4305,3.5255,-0.7652,3.8261,-0.487
2680,0.0383,-8.5071,3.6404,-0.6957,3.8957,-0.3478
2685,0.1916,-8.4305,3.6404,-0.6957,3.8957,-0.6261
2690,0.0383,-8.5454,3.6021,-0.7652,3.9652,-0.487
2695,0.0383,-8.3921,3.6021,-0.6957,3.9652,-0.5565
2700,0.1533,-8.4305,3.3339,-0.6261,3.8957,-0.4174
2705,0.0,-8.3921,3.5255,-0.6957,3.9652,-0.487
2710,0.115,-8.5071,3.4871,-0.7652,3.8957,-0.3478
2715,0.1533,-8.5071,3.6404,-0.7652,3.9652,-0.487
2720,0.115,-8.3538,3.4871,-0.6957,3.8957,-0.4174
2725,0.115,-8.5071,3.5638,-0.7652,3.8261,-0.487
2730,0.0766,-8.4688,3.6787,-0.7652,3.8261,-0.4174
2735,0.0766,-8.5454,3.6404,-0.7652,3.8957,-0.5565
2740,0.0383,-8.5071,3.5255,-0.7652,3.8957,-0.4174
2745,0.115,-8.4688,3.6021,-0.8348,3.8261,-0.5565
2750,0.1533,-8.5454,3.5255,-0.7652,3.8261,-0.4174
2755,-0.0383,-8.4305,3.5638,-0.7652,3.8957,-0.487
2760,0.0,-8.4305,3.4871,-0.7652,3.7565,-0.4174
2765,0.0383,-8.4305,3.5255,-0.7652,3.8957,-0.5565
2770,0.1916,-8.4688,3.6021,-0.8348,3.8957,-0.3478
2775,0.0383,-8.4305,3.6404,-0.9043,3.8957,-0.5565
2780,0.115,-8.4305,3.6404,-0.8348,3.8261,-0.3478
2785,0.115,-8.4688,3.5638,-0.9043,3.8957,-0.5565
2790,0.0766,-8.5454,3.5638,-0.9043,3.8957,-0.3478
2795,0.115,-8.4688,3.7171,-0.8348,3.8261,-0.487
2800,0.1533,-8.5838,3.4488,-0.8348,3.9652,-0.4174
2805,0.0383,-8.5071,3.4488,-0.8348,4.0348,-0.4174
2810,0.1533,-8.5071,3.5255,-0.8348,3.9652,-0.2783
2815,0.0766,-8.4688,3.5255,-0.8348,3.9652,-0.487
2820,0.0383,-8.4688,3.5638,-0.7652,3.9652,-0.3478
2825,0.1533,-8.5071,3.4871,-0.7652,3.9652,-0.5565
2830,0.2299,-8.4305,3.6404,-0.6957,3.9652,-0.487
2835,0.0766,-8.4688,3.5638,-0.6957,3.9652,-0.5565
2840,0.115,-8.4305,3.6021,-0.7652,4.0348,-0.4174
2845,0.1916,-8.5071,3.5255,-0.6957,4.0348,-0.6261
2850,0.0766,-8.4305,3.6787,-0.6957,4.0348,-0.487
2855,0.1916,-8.5071,3.6404,-0.7652,3.9652,-0.6957
2860,0.1533,-8.4305,3.4871,-0.6957,3.8957,-0.487
2865,0.0766,-8.5071,3.6787,-0.5565,4.0348,-0.6957
2870,0.115,-8.3538,3.7171,-0.5565,4.1043,-0.487
2875,0.115,-8.4305,3.5255,-0.6957,3.9652,-0.6261
2880,0.0383,-8.4688,3.6404,-0.6261,3.9652,-0.3478
2885,0.115,-8.5454,3.7554,-0.7652,3.8957,-0.6261
2890,0.0383,-8.5838,3.6787,-0.8348,3.8957,-0.487
2895,0.0383,-8.3921,3.5255,-0.8348,3.7565,-0.8348
2900,0.0,-8.4688,3.6787,-0.8348,3.7565,-0.6957
2905,0.0,-8.4305,3.6787,-0.7652,3.7565,-0.9043
2910,0.1533,-8.3538,3.4871,-0.7652,3.687,-0.7652
2915,0.0766,-8.4305,3.6021,-0.7652,3.7565,-0.8348
2920,0.0766,-8.4688,3.6021,-0.6957,3.8957,-0.6261
2925,0.0766,-8.5454,3.4488,-0.6957,3.8261,-0.7652
2930,0.1533,-8.5454,3.5255,-0.6261,3.8261,-0.5565
2935,0.1533,-8.4305,3.5638,-0.4174,3.8261,-0.6261
2940,0.115,-8.3921,3.6787,-0.2783,3.8957,-0.3478
2945,0.1916,-8.4688,3.5255,-0.2783,3.8957,-0.487
2950,0.0766,-8.3921,3.5638,-0.2087,3.9652,-0.3478
2955,0.115,-8.5071,3.6404,-0.2783,3.8261,-0.487
2960,0.0383,-8.3921,3.6787,-0.2783,3.8261,-0.3478
2965,0.1533,-8.4688,3.5255,-0.2783,3.7565,-0.487
2970,0.1916,-8.5071,3.6021,-0.2783,3.7565,-0.4174
2975,0.0,-8.3155,3.6021,-0.2087,3.7565,-0.6261
2980,0.2682,-8.5071,3.5255,-0.3478,3.7565,-0.4174
2985,0.1533,-8.4305,3.5638,-0.4174,3.8261,-0.6261
2990,0.1533,-8.4688,3.6787,-0.4174,3.8957,-0.4174
2995,0.0766,-8.3921,3.6787,-0.4174,3.8957,-0.5565
