timestamp,accX,accY,accZ,gyroX,gyroY,gyroZ
0,-3.6404,-8.5454,2.3375,-46.5391,-0.8348,4.5217
5,-3.6404,-8.7754,2.5675,-43.687,-1.8783,5.2174
10,-3.7937,-8.7754,2.5675,-40.6261,-2.2261,6.2609
15,-3.9087,-8.8137,2.4525,-37.4261,-2.087,7.7217
20,-3.947,-8.6987,2.6441,-34.4348,-1.6696,9.0435
25,-3.7171,-9.4268,2.4142,-32.4174,-1.6,10.3652
30,-3.7554,-8.5454,2.8357,-31.7913,-1.1826,10.3652
35,-3.6404,-8.6987,2.8357,-31.3739,-1.0435,12.2435
40,-3.7554,-8.6221,2.7974,-31.0261,-0.6261,13.4957
45,-3.6404,-8.6604,2.9507,-31.7217,-0.487,14.4
50,-3.6787,-8.2389,2.7207,-33.1826,0.0696,14.7478
55,-4.4068,-9.1202,2.5675,-35.5478,0.2087,14.4
60,-3.4488,-7.9323,3.3339,-39.2348,0.3478,11.8957
65,-3.4105,-8.2005,3.1806,-42.713,-0.487,12.7304
70,-3.2189,-8.1239,3.2189,-45.4957,-0.3478,12.8
75,-3.0656,-8.2005,3.0273,-47.9304,0.1391,12.5913
80,-2.6824,-7.779,3.3339,-49.9478,0.8348,11.8261
85,-2.6058,-7.9706,3.0656,-50.2261,0.9739,12.2435
90,-2.5675,-8.3538,2.7974,-50.087,0.7652,12.1043
95,-2.031,-7.894,3.1039,-50.2957,0.4174,10.7826
100,-2.2992,-7.9706,2.8357,-50.5739,0.5565,10.5739
105,-2.4525,-8.2005,3.0273,-49.9478,0.6957,10.9217
110,-2.5675,-8.2389,2.874,-49.3217,1.0435,10.1565
115,-2.4525,-7.9706,3.0273,-49.3913,1.2522,7.5826
120,-2.3375,-8.2005,3.0656,-50.0174,0.9739,7.6522
125,-2.5291,-8.3538,2.9507,-49.7391,1.8087,7.0261
130,-2.7974,-8.852,2.7974,-49.7391,2.5739,5.4261
135,-2.2609,-8.3921,3.0656,-50.5739,3.2696,2.5739
140,-2.5291,-8.5454,2.6058,-51.8957,2.7826,1.9478
145,-2.4142,-8.6604,2.7974,-52.4522,2.9913,0.5565
150,-3.0273,-9.1586,2.3759,-52.9391,3.9652,-1.113
155,-2.2226,-8.9286,2.6441,-53.9826,5.2174,-3.0609
160,-2.3759,-9.0053,2.6441,-54.6783,6.2609,-2.6435
165,-2.4142,-9.1586,2.5675,-53.9826,8.1391,-2.9217
170,-2.6441,-9.3885,2.4525,-52.5913,9.3913,-3.687
175,-2.5675,-9.2735,2.3759,-50.5043,10.087,-5.3565
180,-2.6824,-9.3885,1.9927,-48.1391,10.1565,-5.8435
185,-3.2189,-9.6567,1.916,-44.7304,10.7826,-5.7739
190,-2.7591,-9.7334,2.3375,-42.2957,12.0348,-5.8435
195,-3.2572,-9.7717,2.5291,-41.4609,14.5391,-7.1652
200,-3.0273,-9.1969,2.5675,-42.3652,16.4174,-8.487
205,-3.2189,-9.3118,2.6441,-43.0609,16.2087,-7.1652
210,-3.2189,-9.2352,2.4908,-43.687,15.3043,-6.1913
215,-3.4871,-9.1202,2.2226,-44.7304,14.3304,-5.7043
220,-3.6021,-8.6987,2.1076,-46.2609,12.9391,-6.4696
225,-3.4488,-8.737,1.3412,-48.0,10.087,-6.1913
230,-3.9853,-8.9286,1.1496,-46.887,7.513,-5.2174
235,-3.6021,-8.7754,1.1113,-43.8261,4.7304,-5.4957
240,-4.1003,-8.7754,1.1879,-38.9565,3.0609,-7.3043
245,-4.3302,-8.6221,0.958,-33.113,0.8348,-9.5304
250,-4.062,-8.5071,1.073,-28.0348,-0.8348,-12.0348
255,-4.1769,-8.3921,1.1496,-24.6261,-1.9478,-14.1913
260,-3.9853,-8.2772,1.2646,-22.9565,-2.6435,-15.5826
265,-3.947,-8.3921,1.3795,-23.3043,-3.1304,-16.2783
270,-3.7937,-8.2389,1.1113,-25.0435,-3.5478,-16.2087
275,-3.5638,-8.0856,0.8047,-28.0348,-2.713,-15.6522
280,-3.0656,-8.0473,0.9963,-31.9304,-1.8087,-14.6783
285,-2.9123,-8.0473,0.9963,-36.1739,-0.2087,-13.6348
290,-2.5291,-8.1622,0.7664,-40.0696,1.1826,-12.8
295,-2.9507,-8.4305,0.5748,-43.1304,2.9217,-12.3826
300,-2.7207,-8.6987,0.3066,-46.1913,2.4348,-11.9652
305,-2.5291,-8.8137,0.5748,-48.9739,1.8087,-11.5478
310,-2.3759,-9.2352,0.3832,-51.2696,1.6,-11.0609
315,-2.2226,-9.3502,0.5365,-53.4261,0.8348,-10.713
320,-1.9543,-9.5418,0.4982,-54.4696,-0.2783,-10.4348
325,-2.031,-9.8866,0.3832,-54.4696,-1.6,-10.2261
330,-1.9927,-10.0399,0.3449,-52.8,-2.8522,-9.8087
335,-1.7627,-10.1932,0.3066,-50.2957,-3.2,-9.113
340,-1.6478,-10.2698,0.4982,-47.3739,-3.0609,-8.3478
345,-1.6095,-10.3082,0.4982,-44.8,-2.6435,-7.7217
350,-1.4562,-10.1166,0.3066,-42.6435,-2.5739,-7.0261
355,-1.3795,-10.1932,0.1533,-41.2522,-2.3652,-7.2348
360,-1.3412,-10.0016,0.3066,-40.487,-2.2261,-7.8609
365,-1.7244,-9.8483,0.2682,-40.0696,-1.2522,-9.113
370,-1.8394,-9.6567,0.3832,-39.9304,0.2783,-10.2261
375,-1.7244,-9.5801,0.5365,-40.3478,2.2261,-11.1304
380,-1.8394,-9.5418,0.4598,-40.9739,4.2435,-12.1043
385,-1.5711,-9.5418,0.2299,-41.8783,5.5652,-12.8696
390,-1.5711,-9.6567,0.4982,-42.8522,6.6783,-13.6348
395,-1.6861,-9.5418,0.6131,-43.3391,7.4435,-14.1217
400,-1.5328,-9.6184,0.4215,-43.3391,7.9304,-14.5391
405,-1.6861,-9.4651,0.6131,-43.2,8.7652,-14.5391
410,-1.7244,-9.4651,0.6131,-43.2,9.113,-14.3304
415,-1.8777,-9.4268,0.843,-43.3391,8.7652,-14.4
420,-1.7244,-9.4651,0.9963,-43.1304,7.8609,-14.4696
425,-1.916,-9.695,0.4598,-42.5043,7.0957,-14.8174
430,-1.6861,-9.6567,0.5365,-41.2522,6.9565,-15.4435
435,-1.8011,-9.7334,0.4982,-39.513,7.4435,-15.7913
440,-1.6478,-9.6567,0.4215,-37.7043,8.2087,-16.0
445,-1.6861,-9.695,0.3066,-35.5478,9.113,-16.3478
450,-1.8011,-9.7334,0.4215,-33.7391,9.9478,-16.8348
455,-1.9543,-9.695,0.4598,-32.0696,10.5739,-17.2522
460,-1.916,-9.6184,0.3832,-30.6783,11.1304,-17.6
465,-1.7627,-9.4268,0.3449,-29.287,11.687,-17.8087
470,-1.6478,-9.5801,0.3832,-28.5217,12.4522,-17.8087
475,-1.5328,-9.6184,0.4982,-27.7565,13.0087,-17.5304
480,-1.6095,-9.7334,0.6898,-26.6435,13.1478,-17.4609
485,-1.6861,-9.8483,0.4598,-24.7652,12.7304,-17.5304
490,-1.9927,-9.925,0.5748,-22.0522,11.8957,-17.6696
495,-2.2992,-9.9633,0.5748,-18.9217,10.9217,-18.0174
500,-2.5675,-10.0399,0.7664,-15.1652,9.3217,-17.8087
505,-2.5675,-10.0399,0.8047,-11.5478,7.6522,-17.6696
510,-2.7207,-10.1549,1.073,-7.8609,6.6783,-17.8783
515,-2.7591,-9.925,1.073,-4.6609,5.3565,-17.3913
520,-2.7207,-9.7717,0.9963,-1.8087,4.0348,-16.7652
525,-2.8357,-9.7334,1.4562,-0.2087,3.7565,-15.6522
530,-3.1039,-9.4268,1.6478,1.0435,3.0609,-14.2609
535,-3.0656,-9.6184,1.7627,2.6435,2.1565,-13.5652
540,-3.1806,-9.4651,1.5328,5.3565,1.3913,-13.1478
545,-3.2572,-9.2735,1.6095,8.487,1.0435,-12.9391
550,-3.1806,-9.0819,1.4562,11.4087,1.0435,-12.8
555,-3.0273,-9.1969,1.4179,13.2174,1.5304,-12.7304
560,-3.0273,-8.8903,1.4179,13.7739,2.1565,-12.3826
565,-3.1423,-8.6987,1.4179,13.5652,2.7826,-11.7565
570,-3.1423,-8.8137,1.2263,12.3826,3.0609,-11.2696
575,-3.0273,-8.852,1.3795,10.5043,3.0609,-10.7826
580,-3.0273,-8.6987,1.1879,8.6261,2.9913,-10.0174
585,-3.0273,-8.5454,1.2263,6.6783,3.2,-9.2522
590,-2.8357,-8.5838,1.2263,4.5217,3.3391,-8.487
595,-2.9123,-8.5454,1.1496,2.087,3.3391,-7.9304
600,-2.6824,-8.737,0.8047,-0.4174,2.9913,-7.0261
605,-2.6441,-8.737,0.7664,-2.9217,2.2261,-5.7043
610,-2.3375,-8.852,0.4598,-4.8696,1.113,-4.5217
615,-2.2226,-8.8903,0.3832,-6.1217,0.0696,-3.2
620,-2.1076,-8.8137,0.2682,-6.6087,-1.113,-1.7391
625,-1.9927,-8.9286,0.5365,-6.2609,-2.087,-1.0435
630,-1.9543,-9.0053,0.1916,-5.287,-2.9217,-0.6261
635,-1.6478,-9.2352,-0.0766,-4.3826,-3.3391,-1.0435
640,-1.6478,-9.4651,-0.3066,-3.3391,-3.687,-1.6696
645,-1.5328,-9.6184,-0.3449,-2.0174,-3.8957,-2.9217
650,-1.4945,-9.5801,-0.5748,-0.5565,-3.7565,-5.1478
655,-1.5711,-9.5801,-0.4982,0.6957,-3.1304,-7.0957
660,-1.5711,-9.6567,-0.6131,0.9739,-1.9478,-9.1826
665,-1.6861,-9.4268,-0.4215,0.0696,-0.3478,-11.4087
670,-1.7627,-9.3885,-0.0766,-1.2522,1.113,-12.8696
675,-1.8777,-9.3118,-0.115,-2.9913,2.713,-13.9826
680,-1.916,-9.0436,-0.2682,-5.0783,4.1043,-14.5391
685,-2.1459,-9.0436,-0.1533,-7.513,5.4957,-14.8174
690,-1.8011,-9.0053,-0.5365,-10.2261,6.4696,-15.0261
695,-1.8394,-9.3502,-0.2682,-12.313,7.3739,-14.887
700,-1.8777,-9.2352,-0.2299,-12.9391,7.9304,-14.6087
705,-1.7627,-9.2735,-0.3066,-12.5913,7.9304,-14.4
710,-1.7627,-9.4651,-0.5365,-11.8957,7.3043,-13.9826
715,-1.7627,-9.5418,-0.6131,-10.5043,6.4,-13.7739
720,-1.6095,-9.3885,-0.958,-8.487,5.5652,-13.4261
725,-1.916,-9.81,-0.843,-6.3304,5.1478,-13.7043
730,-1.9927,-9.81,-0.6898,-3.8957,5.0087,-14.0522
735,-2.1076,-9.8483,-0.5365,-1.6,5.0087,-14.9565
740,-1.9543,-9.7717,-0.5365,0.5565,5.3565,-16.0696
745,-1.9543,-9.5801,-0.8047,2.6435,5.9826,-16.6261
750,-2.1843,-9.6184,-0.6514,4.4522,6.6087,-17.2522
755,-1.7627,-9.4268,-0.7281,5.4957,7.3739,-17.0435
760,-1.6478,-9.3502,-0.843,5.913,8.3478,-16.0696
765,-1.6861,-9.3885,-0.8047,5.3565,9.0435,-15.1652
770,-1.4945,-9.3502,-0.7281,3.8261,10.4348,-14.1217
775,-1.5328,-9.3885,-1.1496,1.9478,11.9652,-13.1478
780,-1.4179,-9.4268,-0.958,0.4174,13.4957,-12.313
785,-1.3029,-9.3118,-0.9963,-0.6957,15.2348,-11.4783
790,-1.3412,-9.3502,-1.1879,-1.113,16.8348,-11.1304
795,-1.3412,-9.2352,-1.1496,-0.7652,18.2261,-10.713
800,-1.3795,-9.2735,-1.1496,0.3478,19.4783,-10.6435
805,-1.6095,-9.1202,-1.4945,1.9478,20.7304,-10.5043
810,-1.4562,-9.0819,-1.4179,3.4783,21.913,-10.2957
815,-1.4562,-9.0436,-1.4562,4.313,23.3739,-10.0174
820,-1.5711,-9.0436,-1.6861,4.1043,25.1826,-9.2522
825,-1.6095,-9.0819,-1.4179,2.5739,27.4087,-8.2783
830,-1.5711,-9.1586,-1.1113,0.6261,29.3565,-6.9565
835,-1.7627,-8.9286,-1.2646,-1.5304,30.9565,-5.6348
840,-1.8011,-8.852,-1.4945,-4.0348,31.9304,-4.313
845,-1.5711,-8.9286,-1.1113,-7.0957,32.487,-2.713
850,-1.4562,-8.8903,-1.2263,-10.5043,33.1826,-1.2522
855,-1.4562,-9.1969,-1.2646,-13.9826,33.8783,0.3478
860,-1.4179,-9.1586,-1.2646,-17.3217,34.4348,1.6
865,-1.2263,-9.3118,-1.3412,-19.8261,34.6435,3.2696
870,-1.2263,-9.3118,-1.2263,-21.913,35.0609,4.5913
875,-0.958,-9.3885,-1.5328,-23.6522,35.9652,5.7739
880,-0.8814,-9.4651,-1.3795,-25.3913,36.9391,6.6087
885,-0.9197,-9.3885,-1.6095,-26.5739,38.2609,7.513
890,-0.843,-9.4651,-1.6478,-27.7565,40.0696,7.9304
895,-0.9963,-9.3118,-1.8011,-29.4957,41.9478,8.2087
900,-1.0346,-9.1586,-1.8011,-31.513,43.687,8.0696
905,-1.0346,-9.0436,-1.8394,-34.0174,45.2174,8.0696
910,-1.1879,-8.737,-1.8011,-36.9391,45.9826,8.487
915,-1.3412,-8.6604,-2.031,-40.1391,46.4,9.5304
920,-1.8394,-8.3538,-1.8777,-43.5478,46.1913,11.8957
925,-1.9543,-8.5071,-1.7627,-46.6087,45.7043,14.2609
930,-2.031,-8.5071,-1.8011,-49.6,45.7739,16.0696
935,-2.1843,-8.4688,-1.3795,-51.7565,45.9826,17.3913
940,-2.2609,-8.3921,-1.3029,-53.4957,46.1913,18.2957
945,-2.1843,-8.3538,-1.1496,-54.6783,46.1217,18.5739
950,-2.2609,-8.5071,-1.2263,-55.2348,45.2174,18.9913
955,-2.2609,-8.6987,-1.1113,-55.0957,42.9913,19.4783
960,-2.2992,-8.7754,-0.9963,-53.9826,40.8348,19.8957
965,-2.1459,-9.1586,-0.7281,-52.4522,38.8174,20.2435
970,-2.4525,-9.2352,-0.8814,-50.8522,36.8696,20.6609
975,-2.5675,-9.3885,-0.7664,-48.7652,34.9913,20.7304
980,-2.4525,-9.4651,-0.7281,-46.887,33.3217,20.6609
985,-2.5291,-9.4268,-0.7281,-45.4261,32.2087,21.0087
990,-2.4908,-9.6184,-0.5365,-44.1739,31.3739,21.3565
995,-2.4142,-9.6567,-0.6514,-43.6174,30.9565,21.913
1000,-2.3759,-9.81,-0.4598,-42.6435,30.7478,22.887
1005,-2.1076,-9.8866,-0.3449,-41.9478,30.5391,23.3739
1010,-2.1076,-10.0399,-0.115,-41.4609,30.4,24.0696
1015,-1.9927,-9.925,-0.3066,-40.5565,30.1217,24.6957
1020,-1.9927,-10.3082,-0.0383,-40.2087,29.5652,25.3913
1025,-1.6478,-10.3848,-0.0383,-39.4435,29.0783,26.087
1030,-1.8011,-10.4231,-0.115,-37.7043,28.5913,26.7826
1035,-1.8394,-10.3465,0.0383,-35.7565,27.3391,26.5739
1040,-1.916,-10.4614,0.2299,-33.6696,26.087,25.9478
1045,-2.031,-10.2315,0.2299,-30.887,24.3478,25.0435
1050,-2.3759,-9.925,0.1916,-27.8261,22.1217,24.3478
1055,-2.2226,-9.81,0.3832,-24.4174,19.687,23.7913
1060,-2.2226,-10.0399,0.3066,-21.0087,17.5304,23.4435
1065,-2.2609,-9.7717,0.2299,-18.087,15.3739,22.8174
1070,-2.2992,-9.695,0.2682,-15.6522,13.4957,22.4
1075,-2.5291,-9.4651,0.1916,-13.0087,11.7565,22.1217
1080,-2.4525,-9.5034,0.0,-10.5043,10.0174,22.1913
1085,-2.2609,-9.4651,-0.2299,-8.5565,8.487,23.0261
1090,-2.1843,-9.5034,-0.2682,-7.7217,7.3043,24.0696
1095,-2.031,-9.5801,-0.4598,-7.513,5.913,25.2522
1100,-1.9927,-9.5418,-0.3832,-8.1391,4.6609,26.2957
1105,-1.7627,-9.5801,-0.6131,-8.9739,3.9652,27.4087
1110,-1.9927,-9.5418,-0.7664,-10.2957,3.3391,28.6609
1115,-1.8011,-9.6184,-1.1879,-12.0348,3.2,29.6348
1120,-2.0693,-9.4651,-1.8394,-14.8174,3.6174,30.4696
1125,-2.031,-9.5034,-2.3759,-18.8522,4.5217,30.7478
1130,-2.3759,-9.5801,-2.6441,-24.0696,5.913,30.0522
1135,-2.7207,-9.2735,-2.3375,-30.4,6.2609,29.7043
1140,-2.9123,-9.3118,-2.2226,-37.0783,5.913,29.7739
1145,-2.989,-9.6184,-1.9927,-42.8522,5.7739,30.0522
1150,-3.0656,-9.695,-1.9927,-46.3304,6.6087,29.3565
1155,-3.1423,-9.81,-2.1076,-47.7913,8.8348,28.1043
1160,-3.2955,-9.695,-1.9543,-47.9304,11.8957,26.713
1165,-3.3339,-9.7717,-1.9543,-47.4435,14.7478,25.7391
1170,-3.2955,-9.7717,-2.1459,-46.7478,17.113,25.2522
1175,-3.1423,-9.6567,-2.1459,-46.5391,18.4348,25.6696
1180,-3.2955,-9.6567,-2.3759,-47.9304,19.1304,27.2
1185,-3.2955,-9.1969,-2.6441,-51.4783,18.2957,30.0522
1190,-3.1806,-9.1202,-3.2189,-57.3217,16.9739,34.2957
1195,-2.3759,-9.3118,-3.7937,-64.6957,15.4435,38.1913
1200,-2.2992,-9.7334,-4.1003,-71.6522,14.3304,42.087
1205,-2.2609,-9.9633,-4.3302,-77.1478,13.0087,43.9652
1210,-2.3759,-10.4998,-4.1386,-81.2522,12.313,44.6609
1215,-2.3759,-10.9596,-4.062,-83.7565,12.2435,43.4087
1220,-2.7207,-11.0746,-3.8704,-84.1739,13.3565,41.3913
1225,-2.8357,-11.1512,-3.4488,-82.9913,15.5826,38.9565
1230,-3.5255,-10.9213,-3.5638,-80.5565,18.2957,36.8696
1235,-3.4871,-10.653,-3.4488,-77.4261,21.6348,35.7565
1240,-3.7171,-10.1549,-3.3722,-74.2261,25.3913,35.8261
1245,-3.6021,-9.81,-3.3339,-71.2348,28.9391,37.0087
1250,-3.5255,-9.4651,-3.2955,-68.7304,32.9043,39.3739
1255,-3.2189,-9.2352,-3.3339,-66.3652,36.1739,42.1565
1260,-3.1039,-9.0819,-3.3339,-64.0696,38.6783,45.4957
1265,-3.0273,-9.0819,-3.4105,-62.4696,40.3478,48.487
1270,-2.9507,-9.0436,-3.4488,-61.913,41.6696,51.1304
1275,-2.7591,-9.0053,-3.6021,-62.4,42.7826,52.6609
1280,-2.6441,-9.1969,-3.5255,-63.5826,43.7565,52.8
1285,-2.6441,-8.967,-4.062,-65.1826,44.5913,51.8261
1290,-2.6058,-9.0053,-4.1003,-66.7826,45.3565,50.087
1295,-2.6441,-8.9286,-4.1769,-68.1739,46.1217,48.1391
1300,-2.6824,-8.852,-4.4068,-69.3565,47.0261,46.2609
1305,-2.6824,-8.8903,-4.9816,-70.1913,47.8609,44.2435
1310,-2.6824,-9.0819,-5.2499,-70.1217,48.8348,42.0174
1315,-2.8357,-8.6987,-5.4415,-69.287,49.5304,41.3217
1320,-2.9507,-8.6221,-5.5564,-68.0348,50.2261,41.8087
1325,-2.989,-8.6221,-5.7097,-66.2957,50.9913,42.1565
1330,-3.0656,-8.3538,-5.8247,-64.3478,51.9652,42.6435
1335,-3.1039,-8.5454,-6.1313,-61.8435,52.9391,42.9913
1340,-3.2572,-8.2389,-6.0929,-59.4087,53.6348,43.2
1345,-3.2189,-8.2389,-6.0546,-57.1826,53.913,43.7565
1350,-3.3722,-8.3155,-6.0929,-54.9565,54.1913,43.4087
1355,-3.3339,-8.2772,-6.0163,-52.3826,53.9826,43.0609
1360,-3.2955,-8.3538,-6.0546,-49.5304,53.8435,42.7826
1365,-3.4488,-8.3155,-6.0163,-46.1913,53.287,42.0174
1370,-3.3339,-8.5071,-6.0163,-41.9478,52.1739,41.0435
1375,-3.3339,-8.2772,-5.7864,-37.2174,50.8522,40.4174
1380,-3.6021,-8.5454,-5.7864,-32.0696,49.3913,39.513
1385,-3.5638,-8.3155,-5.978,-26.9217,48.0,38.4696
1390,-3.6404,-8.2389,-5.8247,-22.1217,47.1652,38.5391
1395,-3.2572,-8.0856,-5.748,-17.8087,46.4696,38.6783
1400,-3.6787,-8.2772,-5.863,-14.4,45.6348,38.887
1405,-3.6404,-8.1239,-5.8247,-11.7565,44.7304,39.3739
1410,-3.4871,-8.0473,-5.863,-9.9478,44.0348,39.7913
1415,-3.4871,-8.0473,-6.1313,-9.0435,43.4087,40.1391
1420,-3.6021,-8.0473,-5.978,-8.7652,43.2,40.6957
1425,-3.4488,-8.0856,-6.0546,-8.7652,42.7826,41.0435
1430,-3.4488,-7.9323,-6.0929,-9.1826,42.3652,41.2522
1435,-3.1806,-7.9706,-6.0163,-9.8783,42.087,41.6
1440,-3.2955,-7.9323,-6.0546,-10.5043,42.087,41.7391
1445,-3.0273,-7.8557,-6.1696,-11.2696,41.6696,42.087
1450,-3.1039,-7.8173,-6.0929,-11.4783,41.8087,42.1565
1455,-2.874,-7.894,-6.0929,-11.2696,41.8783,41.7391
1460,-2.6058,-7.7407,-6.0546,-10.2957,41.8087,41.1826
1465,-2.6058,-7.7407,-6.0163,-9.0435,41.9478,40.7652
1470,-2.5675,-7.7407,-5.9013,-7.513,41.8087,40.487
1475,-2.5291,-7.5874,-5.7864,-5.8435,41.6,39.6522
1480,-2.5291,-7.4341,-5.7864,-4.5217,41.3913,38.7478
1485,-2.6058,-7.4725,-5.6714,-3.4783,41.1826,38.0522
1490,-2.4142,-7.4725,-5.5181,-2.713,40.9739,37.7043
1495,-2.4908,-7.3575,-5.863,-2.3652,40.6261,37.7043
1500,-2.5675,-7.3958,-5.6331,-2.4348,40.6261,37.3565
1505,-2.3375,-7.3192,-5.5564,-2.713,40.1391,37.1478
1510,-2.6058,-7.2809,-5.7864,-3.0609,40.0696,37.1478
1515,-2.4908,-7.1276,-5.7097,-3.4087,40.2087,37.0087
1520,-2.4908,-7.0893,-5.5948,-3.7565,40.4174,37.1478
1525,-2.4908,-7.1276,-5.4798,-4.1043,40.487,37.0087
1530,-2.5291,-7.1659,-5.4415,-4.3826,40.2783,36.5913
1535,-2.6058,-7.0893,-5.2882,-4.2435,39.7217,36.6609
1540,-2.7974,-7.2425,-5.4032,-3.4087,39.0957,37.0087
1545,-2.7207,-7.1276,-5.0583,-2.1565,38.6087,37.2174
1550,-2.7974,-7.1659,-5.1732,-0.3478,38.1913,37.3565
1555,-2.7974,-6.936,-5.4415,2.2261,37.9826,37.4957
1560,-2.7207,-7.3192,-5.0583,5.3565,37.5652,38.0522
1565,-2.6058,-7.2425,-5.2882,8.9739,37.287,37.913
1570,-2.5675,-7.2425,-5.3648,12.3826,37.2174,37.4957
1575,-2.6441,-7.3575,-5.2882,15.6522,37.1478,36.8696
1580,-2.3759,-7.3575,-5.2116,18.5739,36.7304,36.1043
1585,-2.3375,-7.3192,-5.2116,21.2174,36.5217,35.4087
1590,-2.3375,-7.2042,-5.1732,23.3043,36.2435,35.1304
1595,-2.3375,-7.2809,-5.02,24.5565,36.0348,34.5043
1600,-2.2992,-7.1276,-5.02,25.2522,35.4087,33.8783
1605,-2.1843,-6.936,-4.9433,25.3217,34.7826,32.8348
1610,-2.3375,-7.2809,-4.5984,25.113,33.9478,31.5826
1615,-2.3759,-6.8977,-4.9433,24.8348,32.9739,30.1913
1620,-2.6824,-6.7444,-4.9433,24.3478,32.1391,28.7304
1625,-2.4908,-6.6677,-4.8667,23.7217,31.2348,27.7565
1630,-2.7207,-6.5528,-4.8284,23.1652,30.1913,27.1304
1635,-2.6058,-6.5145,-4.905,22.8174,29.5652,26.713
1640,-2.6058,-6.5528,-5.02,22.6783,28.9391,26.4348
1645,-2.7591,-6.3995,-4.905,22.887,28.5913,26.087
1650,-2.874,-6.3995,-4.8667,23.3043,27.8957,26.087
1655,-2.8357,-6.3612,-4.905,23.7913,26.8522,26.1565
1660,-3.1039,-6.2845,-4.9433,24.2783,26.0174,26.0174
1665,-2.7974,-6.3612,-4.6368,24.6261,25.113,26.087
1670,-3.2189,-6.2462,-4.8667,24.8348,24.4174,26.1565
1675,-3.2572,-6.1696,-4.8284,24.8348,23.7913,26.4348
1680,-3.3339,-6.2845,-5.0966,24.8348,23.3739,26.7826
1685,-3.3339,-6.4378,-4.9433,24.6957,22.887,27.1304
1690,-3.4488,-6.4761,-4.905,25.0435,21.8435,27.5478
1695,-3.2572,-6.821,-4.7134,25.8087,20.5217,27.7565
1700,-3.4871,-6.8593,-4.8667,27.2696,19.2696,27.7565
1705,-3.4488,-6.9743,-4.8284,29.5652,18.0174,28.0348
1710,-3.5638,-7.1276,-4.9433,32.6957,16.9043,27.4087
1715,-3.4105,-7.2042,-4.8667,36.6609,15.9304,27.2696
1720,-3.6787,-7.3575,-4.8284,41.4609,15.6522,27.2
1725,-3.3339,-7.2809,-4.9816,47.4435,15.5826,28.8696
1730,-3.2572,-7.3958,-5.02,53.4261,16.2783,29.6348
1735,-3.2955,-7.2809,-4.8667,57.7391,17.8783,29.5652
1740,-3.2955,-6.9743,-4.905,59.4783,18.9913,29.0783
1745,-3.0656,-6.8593,-4.905,59.4783,19.8261,29.0783
1750,-2.989,-6.6294,-4.8284,57.6,20.8696,29.0783
1755,-3.0273,-6.5911,-4.8284,54.1217,21.7739,28.8696
1760,-2.8357,-6.3995,-4.8667,50.1565,22.6087,28.7304
1765,-2.7974,-6.3995,-4.79,46.1913,24.0,28.1043
1770,-2.7591,-6.2845,-4.6751,42.5739,25.2522,27.8957
1775,-2.7207,-6.2845,-4.8667,39.0957,26.713,27.4087
1780,-2.7591,-6.1696,-4.7134,36.6609,28.313,26.9217
1785,-2.7974,-6.0546,-4.7134,34.713,29.6348,26.713
1790,-2.9507,-5.9396,-4.5984,32.9043,31.0957,26.5043
1795,-3.0273,-6.1313,-4.4835,31.3739,32.0,26.4348
1800,-3.0656,-5.9396,-4.5601,29.9826,32.3478,26.3652
1805,-3.2955,-6.0163,-4.5984,28.3826,32.4174,26.3652
1810,-3.3339,-6.0163,-4.6368,26.7826,32.3478,26.5739
1815,-3.3339,-6.0929,-4.8284,25.2522,32.2783,26.8522
1820,-3.2955,-6.1313,-4.79,23.8609,32.4174,27.2
1825,-3.4105,-6.1313,-4.79,22.8174,32.487,27.6174
1830,-3.5255,-6.2845,-4.9816,22.5391,32.5565,28.313
1835,-3.3722,-6.3612,-4.9816,22.8174,32.8348,28.8696
1840,-3.3722,-6.5145,-5.2499,23.9304,32.9739,29.2174
1845,-3.2572,-6.5911,-5.2499,25.5304,33.0435,29.6348
1850,-3.2572,-6.6677,-5.2499,27.687,32.7652,30.1217
1855,-3.2189,-6.7444,-5.3648,29.7043,32.2783,30.1913
1860,-3.0273,-6.821,-5.4032,31.4435,31.8609,30.6087
1865,-2.989,-6.9743,-5.5181,32.9043,31.6522,30.9565
1870,-3.0656,-7.0126,-5.3265,34.2261,31.4435,31.3043
1875,-3.1039,-6.8593,-5.2882,35.3391,31.1652,31.7217
1880,-3.1039,-6.8977,-5.2499,35.9652,30.9565,32.3478
1885,-3.1039,-7.0126,-5.4032,36.5913,31.1652,32.7652
1890,-3.0273,-6.8977,-5.2499,36.7304,31.6522,33.7391
1895,-2.9507,-7.0509,-5.0583,36.5913,32.487,34.6435
1900,-3.1423,-6.8977,-5.0583,36.2435,33.3217,35.4783
1905,-3.0656,-7.0893,-5.0583,35.7565,34.3652,36.4522
1910,-2.9507,-7.0509,-5.1349,35.1304,35.5478,37.4957
1915,-3.1039,-6.8593,-5.0583,34.2957,36.7304,38.5391
1920,-3.0273,-6.936,-5.0583,33.1826,37.913,39.6522
1925,-3.0656,-7.0126,-5.1732,32.4174,39.3043,40.7652
1930,-3.0656,-6.936,-5.2116,31.9304,40.6261,41.6696
1935,-3.1806,-6.8977,-5.1349,32.0,41.6696,42.3652
1940,-3.3339,-6.8977,-5.4032,32.6261,42.5043,43.1304
1945,-3.3722,-6.7444,-5.5181,33.7391,43.0609,43.8261
1950,-3.1806,-6.821,-5.5181,35.1304,43.5478,44.6609
1955,-3.0656,-6.8977,-5.1732,36.6609,44.2435,45.8435
1960,-2.989,-6.8977,-5.2116,38.4,45.2174,46.887
1965,-3.2572,-6.7444,-5.1732,40.6957,46.0522,47.7217
1970,-3.1039,-6.7061,-4.9816,42.9913,46.5391,47.9304
1975,-2.7974,-6.5145,-5.2882,44.6609,46.9565,48.0
1980,-2.989,-6.2845,-5.2882,45.3565,48.0,47.5826
1985,-3.2572,-6.0163,-5.5948,45.287,49.3217,47.2348
1990,-3.5638,-5.2116,-5.9013,44.4522,49.6696,46.4696
1995,-3.9087,-5.1732,-6.4378,42.9217,48.2087,44.8696
2000,-4.2536,-4.7134,-7.0126,40.5565,44.2435,43.3391
2005,-4.4452,-4.5218,-7.3192,37.7043,38.8174,42.2261
2010,-4.1003,-4.5218,-7.5108,34.5043,34.1565,41.5304
2015,-3.7171,-4.5218,-7.2425,31.9304,31.7913,40.9739
2020,-3.3722,-4.5601,-7.0126,30.0522,31.6522,40.487
2025,-2.874,-4.5218,-6.7444,28.3826,33.3217,39.9304
2030,-2.6441,-4.5218,-6.2845,27.0609,36.1043,38.887
2035,-3.0273,-4.5601,-5.7864,26.4348,39.8609,37.7739
2040,-3.6787,-4.5984,-5.7097,26.5739,43.7565,36.1739
2045,-4.2152,-4.7134,-5.748,27.2696,46.6087,33.8087
2050,-4.8667,-4.7134,-5.978,28.6609,48.1391,30.9565
2055,-5.1349,-4.7134,-5.9013,30.2609,48.7652,28.1043
2060,-5.2116,-4.7134,-6.1696,31.3739,48.6957,25.5304
2065,-5.4415,-4.9433,-6.3229,30.8174,48.5565,23.0957
2070,-5.5181,-5.0966,-6.3612,28.3826,48.2783,21.2174
2075,-5.6331,-5.5564,-6.2079,24.2783,47.3739,18.9217
2080,-5.8247,-5.863,-6.2845,19.4783,45.6348,16.2087
2085,-5.863,-6.2462,-6.0929,15.0957,42.9217,13.287
2090,-5.9396,-6.3612,-5.8247,12.1043,40.1391,10.0174
2095,-5.8247,-6.7827,-5.5564,10.7826,37.6348,6.9565
2100,-5.4415,-7.0126,-5.4032,11.1304,34.9913,4.0348
2105,-5.5564,-7.0126,-5.4415,12.1739,32.2087,1.113
2110,-5.4415,-7.2042,-5.5181,13.287,29.3565,-1.6
2115,-5.2882,-7.3575,-5.5181,14.2609,26.5739,-4.1043
2120,-5.3265,-7.3958,-5.4798,15.0957,23.7913,-6.6087
2125,-5.3265,-7.3575,-5.5181,15.7913,21.0783,-8.9739
2130,-5.2499,-7.3575,-5.5181,16.3478,18.4348,-11.3391
2135,-5.1349,-7.3192,-5.4032,17.113,15.9304,-13.6348
2140,-5.0966,-7.3192,-5.4415,17.8087,13.7739,-15.5826
2145,-4.9433,-7.2809,-5.0583,18.4348,11.5478,-16.9739
2150,-4.79,-7.3192,-4.8284,19.2696,9.8087,-17.7391
2155,-4.2536,-7.2809,-4.79,20.3826,8.6957,-17.7391
2160,-3.8704,-7.5874,-4.4452,21.5652,7.9304,-17.0435
2165,-3.5638,-7.7407,-4.5218,22.8174,7.8609,-15.9304
2170,-3.1423,-8.1239,-4.4452,24.1391,8.3478,-14.1217
2175,-2.7207,-8.4305,-4.2152,25.6696,9.0435,-12.0348
2180,-2.4142,-8.6987,-4.0236,28.5913,10.1565,-10.3652
2185,-2.1459,-9.1586,-3.947,32.9043,11.1304,-8.4174
2190,-1.9543,-9.5418,-3.9087,39.0957,12.1043,-6.1913
2195,-1.7627,-9.4268,-4.1769,46.7478,12.4522,-4.5217
2200,-1.9543,-8.967,-4.2536,54.0522,12.0348,-4.0348
2205,-1.8011,-8.3538,-4.2919,58.9217,11.0609,-4.7304
2210,-2.2609,-7.6257,-4.5218,60.6609,10.2261,-6.5391
2215,-2.4525,-7.1276,-4.5984,59.0609,10.087,-9.113
2220,-2.7207,-6.4378,-4.5218,54.1913,10.2261,-12.4522
2225,-2.9123,-5.978,-4.4835,47.0957,10.8522,-15.6522
2230,-3.5255,-5.7097,-4.2152,39.1652,11.9652,-18.3652
2235,-3.832,-5.5948,-4.062,30.9565,13.7739,-21.3565
2240,-4.062,-5.7097,-3.7937,23.5826,15.6522,-23.3739
2245,-4.1386,-5.748,-3.5638,17.8783,17.8087,-24.6261
2250,-4.4835,-6.0929,-3.6404,13.913,20.1739,-25.3913
2255,-4.4835,-6.3995,-3.6404,11.8261,22.7478,-25.4609
2260,-4.5984,-6.7061,-3.5255,11.4783,25.0435,-25.2522
2265,-4.3302,-6.821,-3.2572,12.5217,26.8522,-25.113
2270,-4.4835,-6.9743,-3.4488,14.6783,27.8261,-24.6261
2275,-4.5984,-7.2042,-3.4105,17.4609,28.4522,-24.4174
2280,-4.4452,-7.3192,-3.4105,20.5217,28.7304,-24.9043
2285,-4.4068,-7.3575,-3.2955,23.3043,28.7304,-25.9478
2290,-4.5601,-7.3958,-3.2955,25.6,28.8696,-26.9913
2295,-4.5984,-7.4341,-3.4488,27.8957,28.5217,-28.0348
2300,-4.5218,-7.5108,-3.4105,29.7043,28.1739,-29.0087
2305,-4.4452,-7.4341,-3.4488,31.0957,27.8957,-30.0522
2310,-4.5601,-7.4341,-3.2955,31.9304,27.8261,-31.0261
2315,-4.4068,-7.6641,-3.5638,32.3478,27.9652,-31.7913
2320,-4.2152,-7.779,-3.6787,32.487,28.1043,-32.2783
2325,-4.0236,-7.7407,-3.6021,32.6261,28.4522,-32.8348
2330,-3.6787,-7.8173,-3.6021,33.0435,28.6609,-33.3217
2335,-3.6021,-7.8173,-3.6787,33.8087,28.8,-33.8783
2340,-3.2572,-8.1239,-3.6021,35.0609,28.9391,-34.7826
2345,-3.1039,-8.1622,-3.6021,36.7304,28.9391,-35.3391
2350,-2.9507,-8.1622,-3.6021,38.6087,28.8696,-36.0348
2355,-2.874,-8.3155,-3.5638,40.5565,28.9391,-36.9391
2360,-3.1039,-8.3155,-3.4488,42.5043,28.9391,-38.1913
2365,-2.9507,-8.1622,-3.4105,44.1739,28.9391,-39.3739
2370,-2.989,-7.9706,-3.3722,45.4957,29.3565,-40.1391
2375,-2.989,-7.894,-3.6021,46.2609,29.9826,-40.7652
2380,-2.9123,-7.6641,-3.5255,46.1913,30.8174,-41.7391
2385,-2.7207,-7.5874,-3.4871,45.3565,31.3739,-42.3652
2390,-2.5291,-7.5491,-3.4488,43.8957,31.8609,-43.0609
2395,-2.6058,-7.3958,-3.3722,42.087,32.3478,-43.687
2400,-2.4908,-7.4725,-3.2572,40.2783,32.9739,-44.4522
2405,-2.5291,-7.4725,-3.2572,38.4696,33.6696,-45.0783
2410,-2.4908,-7.4725,-3.0656,36.7304,34.4348,-45.287
2415,-2.4525,-7.6257,-3.2189,35.4087,35.4783,-45.3565
2420,-2.3375,-7.7024,-3.0656,34.7826,36.8,-45.2174
2425,-2.2609,-7.8173,-2.6441,34.8522,38.2609,-45.0087
2430,-2.4525,-8.0856,-2.5675,36.1043,39.8609,-45.0087
2435,-2.3375,-7.9706,-2.6441,38.3304,40.9739,-45.4261
2440,-2.4908,-7.894,-2.6824,41.4609,41.2522,-46.2609
2445,-2.4908,-7.8173,-2.7207,44.5913,40.9739,-47.2348
2450,-2.5675,-7.7024,-2.8357,47.3739,40.2783,-48.0696
2455,-2.7207,-7.6257,-2.7591,49.6,39.5826,-48.8348
2460,-2.6441,-7.5874,-2.7591,51.3391,39.3043,-49.6696
2465,-2.6058,-7.4725,-3.0273,52.6609,39.2348,-50.5739
2470,-2.6441,-7.5108,-2.8357,53.3565,39.3739,-51.8261
2475,-2.5291,-7.779,-2.6058,53.7043,39.3043,-53.0783
2480,-2.7207,-7.5874,-2.6058,53.8435,39.0957,-54.6087
2485,-2.7974,-7.8173,-2.989,53.5652,38.887,-56.1391
2490,-2.7591,-7.7407,-2.874,52.8,38.1913,-57.8087
2495,-2.7974,-7.8173,-2.9507,51.4087,37.3565,-59.5478
2500,-2.9123,-7.6257,-2.9123,49.6696,36.6609,-61.2174
2505,-3.1806,-7.894,-3.1039,47.5826,35.8957,-63.0957
2510,-3.2572,-7.8557,-3.3339,45.3565,34.7826,-65.113
2515,-3.1423,-8.0089,-3.6404,42.7826,33.5304,-67.2
2520,-2.9507,-7.9323,-4.1769,39.5826,32.4174,-69.2174
2525,-3.1039,-7.9323,-4.79,35.5478,31.1652,-71.3739
2530,-3.3339,-8.0089,-5.0583,29.3565,29.7043,-73.3217
2535,-3.5638,-8.5071,-4.9816,24.3478,27.5478,-75.3391
2540,-3.4488,-8.8903,-4.9816,20.1739,23.3739,-76.8
2545,-3.6787,-9.1202,-5.0966,16.5565,17.7391,-77.913
2550,-3.4105,-9.3502,-5.4032,13.913,11.687,-78.2609
2555,-3.2189,-9.695,-5.8247,12.1043,5.7043,-77.0087
2560,-2.9123,-9.9633,-6.0546,11.0609,0.0,-74.2261
2565,-2.7974,-10.1932,-6.2079,11.2,-6.4696,-70.8174
2570,-2.8357,-10.4231,-6.2079,13.1478,-14.0522,-67.4087
2575,-2.9507,-10.4614,-6.3995,16.6957,-22.1217,-64.0
2580,-2.5675,-10.1549,-6.3612,20.0348,-29.5652,-59.8957
2585,-2.6441,-9.8866,-6.5145,22.7478,-36.6609,-55.513
2590,-2.7591,-9.7334,-6.0929,24.6261,-43.0609,-50.7826
2595,-2.7974,-9.4651,-6.1313,25.3217,-48.6261,-46.2609
2600,-2.7207,-9.2735,-5.9396,24.9043,-54.1217,-41.8087
2605,-2.6824,-9.0436,-5.863,23.9304,-59.7565,-37.4261
2610,-2.4908,-8.8137,-5.7097,22.4696,-65.8783,-33.3913
2615,-2.4142,-8.6604,-5.7097,21.0783,-71.8609,-29.913
2620,-2.3375,-8.5071,-5.5181,20.313,-77.3565,-27.0609
2625,-2.2992,-8.3155,-5.4415,20.1043,-81.5304,-25.1826
2630,-2.3375,-8.1622,-5.4798,20.1043,-84.3826,-24.0
2635,-2.1076,-7.7407,-5.0966,19.8261,-85.287,-23.3739
2640,-1.8011,-7.5108,-5.1349,19.3391,-84.5217,-23.0261
2645,-1.6861,-7.2425,-5.1349,17.6696,-82.4348,-23.0261
2650,-1.2263,-6.936,-5.2116,14.7478,-78.887,-23.1652
2655,-0.9197,-6.7444,-4.905,11.3391,-74.1565,-24.3478
2660,-0.5748,-6.5145,-4.6368,7.2348,-68.6609,-25.8783
2665,-0.2299,-6.5911,-4.3685,2.7826,-62.4,-27.4783
2670,0.0,-6.5145,-4.062,-1.2522,-56.0,-29.0783
2675,0.4982,-6.7061,-3.9087,-4.5217,-49.5304,-30.7478
2680,1.0346,-6.9743,-4.1003,-6.9565,-43.0609,-32.1391
2685,1.4562,-6.821,-3.8704,-9.113,-37.2174,-33.7391
2690,1.8394,-6.8977,-3.8704,-11.3391,-32.0696,-35.3391
2695,2.3375,-6.9743,-4.1769,-13.3565,-26.9913,-36.8696
2700,2.5291,-7.1276,-3.947,-14.887,-22.1217,-38.3304
2705,2.5291,-7.2809,-4.1386,-15.0957,-18.2957,-39.0957
2710,2.7591,-7.2809,-4.4452,-15.0261,-15.0957,-39.3043
2715,2.7591,-7.2042,-4.5218,-14.6087,-12.3826,-39.7217
2720,2.7974,-7.1659,-4.79,-13.9826,-10.5043,-40.1391
2725,2.7207,-7.2425,-5.0966,-13.3565,-9.6,-40.3478
2730,2.5291,-7.2042,-5.2116,-12.6609,-9.6696,-39.9304
2735,2.2609,-7.2809,-5.4415,-11.8957,-10.6435,-39.0957
2740,2.1076,-7.4725,-5.0966,-10.8522,-12.2435,-37.3565
2745,1.6095,-7.4725,-5.2116,-9.3913,-14.6087,-34.8522
2750,1.4179,-7.779,-4.7134,-7.4435,-17.3913,-32.0
2755,1.1496,-8.0089,-4.6368,-5.2174,-20.2435,-29.1478
2760,1.073,-8.2389,-4.2919,-3.2,-23.1652,-26.5043
2765,0.8047,-8.2389,-3.8704,-1.9478,-26.0174,-24.3478
2770,0.6131,-8.2005,-3.832,-1.1826,-28.6609,-22.6783
2775,0.3066,-8.4305,-3.6787,-0.8348,-31.0957,-21.0087
2780,0.2682,-8.4305,-3.832,-1.113,-33.0435,-19.4783
2785,0.1916,-8.5838,-3.7937,-2.0174,-34.5739,-17.9478
2790,0.115,-8.5071,-3.8704,-3.6174,-35.4783,-16.7652
2795,0.2299,-8.9286,-3.7171,-5.7739,-36.1043,-16.0696
2800,0.2299,-9.0053,-3.9853,-8.3478,-36.6609,-15.4435
2805,0.115,-9.1202,-4.0236,-10.9913,-37.3565,-15.3739
2810,0.1916,-9.3118,-4.2152,-13.7043,-38.2609,-15.513
2815,0.115,-9.5418,-4.2919,-16.1391,-39.4435,-15.513
2820,0.0766,-9.7717,-4.3302,-17.8783,-40.6957,-15.7217
2825,-0.0383,-10.0399,-4.4068,-19.2,-42.3652,-16.0696
2830,-0.2682,-10.1166,-4.4835,-19.7565,-44.5217,-16.2783
2835,-0.1916,-10.3848,-4.4068,-19.3391,-46.9565,-16.487
2840,-0.1916,-10.6147,-4.2919,-18.087,-49.4609,-16.487
2845,-0.2682,-10.5381,-4.5218,-16.487,-51.4087,-16.487
2850,0.0,-10.7297,-4.4835,-14.4,-52.6609,-16.487
2855,0.0383,-10.4231,-4.2152,-12.313,-53.3565,-16.6261
2860,0.115,-10.2315,-4.1769,-10.5043,-53.6348,-16.9043
2865,0.4598,-10.3848,-4.1769,-9.2522,-52.8696,-17.3217
2870,0.6131,-10.3082,-4.1386,-8.3478,-51.4087,-18.2957
2875,0.8814,-10.3848,-4.1386,-7.7913,-49.2522,-19.4783
2880,0.958,-10.3848,-3.8704,-7.1652,-47.4435,-20.8
2885,1.1879,-10.2315,-4.2152,-6.4,-45.9826,-22.5391
2890,1.3412,-10.0782,-4.2536,-5.3565,-44.6609,-24.3478
2895,1.6095,-10.0782,-4.5218,-4.313,-43.0609,-25.9478
2900,1.6478,-9.7717,-4.3302,-3.4087,-41.1826,-27.2
2905,1.8777,-9.695,-4.5984,-2.4348,-38.8174,-28.1739
2910,2.031,-9.4268,-4.3302,-1.2522,-36.5217,-28.8
2915,2.1459,-9.2352,-4.5601,0.3478,-34.4348,-29.287
2920,2.2226,-8.8903,-4.5218,2.1565,-32.6957,-29.6348
2925,2.1843,-8.737,-4.3685,3.8261,-31.3043,-29.913
2930,2.2226,-8.3538,-4.1386,4.8696,-30.1217,-30.1913
2935,2.2992,-8.3155,-4.062,5.0087,-29.0087,-30.1217
2940,2.1843,-8.1622,-4.1386,4.313,-27.8957,-29.7739
2945,2.1843,-7.9323,-4.1386,2.8522,-26.5043,-29.4261
2950,2.1843,-8.0473,-4.1003,1.1826,-25.1826,-28.8696
2955,1.916,-7.7407,-3.947,-0.487,-23.9304,-28.313
2960,1.8011,-7.6641,-3.832,-1.9478,-23.0261,-27.687
2965,1.8394,-7.5491,-3.832,-3.2696,-22.3304,-26.9217
2970,1.4945,-7.5491,-4.0236,-4.4522,-22.1913,-26.2957
2975,1.1879,-7.3958,-3.7554,-5.4261,-22.4696,-25.6696
2980,1.1496,-7.4725,-3.8704,-6.1913,-23.0957,-25.0435
2985,1.1496,-7.4341,-3.9087,-6.887,-24.0,-24.4174
2990,1.0346,-7.4341,-3.7171,-7.3739,-24.7652,-23.7217
2995,1.073,-7.4341,-3.6021,-7.6522,-25.5304,-22.887
