timestamp,accX,accY,accZ,gyroX,gyroY,gyroZ
0,0.958,-10.0016,-0.8814,-0.8348,6.5391,-2.2261
5,0.958,-9.9633,-1.073,-0.6261,5.8435,-2.087
10,1.0346,-9.925,-1.1879,-0.487,5.3565,-1.7391
15,1.1496,-9.9633,-1.1113,-0.5565,5.0087,-1.6
20,1.1496,-9.9633,-1.2263,-0.5565,4.8696,-1.3913
25,1.1113,-9.8866,-1.0346,-0.7652,5.0087,-1.0435
30,1.1113,-9.9633,-1.1113,-0.487,5.2174,-0.8348
35,1.1113,-10.1549,-1.1113,0.0,5.3565,-0.6261
40,1.1496,-10.0016,-1.1113,0.7652,5.4261,-0.2783
45,1.1879,-10.0016,-1.1113,1.3217,5.3565,-0.2087
50,1.1496,-10.0016,-0.9197,1.8783,5.287,0.0
55,1.1113,-10.0399,-0.958,2.6435,5.0087,0.0696
60,1.1879,-10.1549,-1.073,3.3391,4.5217,0.2087
65,1.1113,-10.0016,-0.9197,3.8957,3.9652,0.3478
70,1.1113,-10.0016,-1.073,4.1739,3.4783,0.5565
75,1.1879,-9.9633,-1.0346,4.4522,2.9913,0.7652
80,1.1496,-9.8483,-0.958,4.6609,2.713,1.0435
85,1.2263,-9.8866,-1.0346,4.5217,2.5739,1.2522
90,1.1496,-9.8483,-0.9197,4.4522,2.7826,1.2522
95,1.3029,-9.81,-0.9963,4.5217,2.713,1.4609
100,1.1496,-9.81,-0.7664,4.5217,2.713,1.5304
105,1.1879,-9.8483,-0.958,4.2435,2.5043,1.8087
110,1.1496,-9.7717,-0.958,3.9652,2.2261,2.0174
115,1.073,-9.8866,-0.843,3.5478,2.0174,2.2261
120,1.0346,-9.925,-0.9197,3.2,1.5304,2.5043
125,1.073,-9.8866,-0.8814,2.6435,1.3913,2.6435
130,0.9963,-9.81,-0.9963,1.8783,1.3217,2.7826
135,0.9197,-9.81,-1.1879,0.8348,1.3217,2.8522
140,0.8814,-9.8483,-1.1113,-0.1391,1.5304,2.9913
145,0.9963,-9.925,-1.1496,-1.1826,1.9478,2.9913
150,0.9197,-9.9633,-1.0346,-2.087,2.2957,2.9217
155,0.8814,-9.9633,-1.1113,-2.9913,2.3652,2.7826
160,0.8814,-9.925,-1.1496,-3.8261,2.3652,2.6435
165,0.9197,-9.925,-1.1113,-4.3826,2.2957,2.6435
170,0.843,-9.8866,-1.2263,-4.8696,2.2261,2.5739
175,0.843,-9.8866,-1.1113,-5.2174,2.3652,2.5739
180,0.7664,-9.8866,-1.0346,-5.3565,2.4348,2.5043
185,0.7664,-9.9633,-1.1113,-5.4261,2.5043,2.5043
190,0.7281,-9.925,-1.0346,-5.287,2.5043,2.5043
195,0.7281,-10.0782,-1.2263,-4.8696,2.2957,2.5739
200,0.7664,-10.0016,-1.1113,-4.6609,2.1565,2.6435
205,0.7664,-10.0399,-1.1113,-4.3826,2.0174,2.713
210,0.7281,-10.0016,-1.073,-4.1739,1.8087,2.7826
215,0.6898,-9.9633,-1.073,-4.1043,1.5304,2.8522
220,0.7281,-10.0782,-1.073,-4.2435,1.1826,2.713
225,0.6898,-10.0399,-0.958,-4.2435,0.8348,2.8522
230,0.6898,-10.0399,-1.1113,-4.313,0.6957,2.9913
235,0.7281,-9.9633,-1.1496,-4.4522,0.6261,2.8522
240,0.6514,-10.0016,-1.2263,-4.4522,0.487,2.9913
245,0.8047,-10.0782,-1.073,-4.4522,0.2783,2.9913
250,0.8047,-10.0399,-0.9963,-4.1739,0.2783,3.0609
255,0.6898,-9.9633,-0.9197,-3.7565,0.3478,2.9913
260,0.7281,-10.0399,-1.2263,-3.4783,0.6261,2.9217
265,0.7664,-10.1166,-1.0346,-3.3391,0.8348,2.8522
270,0.7664,-10.0016,-0.9963,-2.9913,1.0435,2.6435
275,0.8047,-10.0399,-1.073,-2.7826,1.2522,2.5739
280,0.6898,-9.9633,-1.1496,-2.4348,1.5304,2.713
285,0.6131,-10.0782,-1.1879,-2.0174,1.7391,2.6435
290,0.7281,-10.0399,-1.0346,-1.7391,1.9478,2.6435
295,0.6898,-10.0782,-1.1496,-1.113,2.087,2.5739
300,0.6514,-10.1549,-1.1113,-0.4174,2.087,2.713
305,0.6514,-10.0399,-1.0346,0.2087,1.8783,2.6435
310,0.6131,-10.0399,-1.1879,0.5565,1.7391,2.5043
315,0.5365,-9.9633,-1.1496,0.4174,1.3217,2.5739
320,0.4215,-9.8866,-1.1879,0.2087,0.6957,2.6435
325,0.4215,-9.81,-1.1496,-0.2087,0.2087,2.8522
330,0.4982,-9.8483,-1.073,-0.9043,-0.1391,2.9913
335,0.5365,-9.8483,-1.3029,-1.6696,-0.3478,2.9913
340,0.5365,-9.8866,-1.073,-2.3652,-0.4174,2.9217
345,0.5365,-9.925,-1.1496,-2.9217,-0.4174,2.713
350,0.6131,-9.9633,-1.2263,-3.4783,-0.3478,2.5739
355,0.6514,-10.0016,-1.073,-3.6174,-0.2783,2.3652
360,0.5748,-10.0782,-1.3412,-3.6174,-0.2783,2.2261
365,0.7281,-10.1166,-1.2263,-3.687,-0.1391,2.0174
370,0.5748,-10.0016,-1.1496,-3.687,0.1391,1.8783
375,0.6898,-10.1549,-1.2646,-3.687,0.487,1.7391
380,0.7281,-10.2315,-1.2263,-3.4087,0.9739,1.6696
385,0.4982,-10.0782,-1.3029,-3.2696,1.2522,1.4609
390,0.7281,-10.0016,-1.3795,-3.2696,1.6,1.3913
395,0.5365,-10.0016,-1.2646,-3.3391,1.8087,1.1826
400,0.7664,-10.0782,-1.3412,-3.6174,1.9478,0.9739
405,0.6514,-10.0016,-1.1113,-3.8957,2.087,0.7652
410,0.5365,-9.8866,-1.2263,-4.1043,2.0174,0.6957
415,0.5748,-10.0016,-1.2263,-4.3826,1.8783,0.6261
420,0.5748,-9.9633,-1.073,-4.4522,1.6696,0.487
425,0.5365,-10.0016,-1.1879,-4.2435,1.3217,0.3478
430,0.5748,-10.0782,-1.1113,-3.9652,0.9739,0.3478
435,0.5365,-10.1166,-1.1496,-3.4783,0.4174,0.4174
440,0.5748,-9.9633,-1.0346,-3.1304,0.1391,0.487
445,0.4598,-10.0016,-1.2646,-2.7826,-0.2783,0.5565
450,0.5748,-10.0782,-1.2263,-2.8522,-0.4174,0.6957
455,0.6131,-10.0016,-1.1496,-3.0609,-0.6261,0.8348
460,0.6514,-10.0399,-1.2263,-3.0609,-0.6261,0.8348
465,0.6131,-10.0016,-1.073,-2.8522,-0.5565,0.9043
470,0.6898,-10.0782,-1.1879,-2.2261,-0.487,0.8348
475,0.7281,-10.0016,-1.1496,-1.6696,-0.487,0.6957
480,0.6898,-10.0782,-1.2646,-1.0435,-0.4174,0.6261
485,0.6131,-9.9633,-1.073,-0.487,-0.5565,0.5565
490,0.5748,-10.0399,-1.2263,0.0696,-0.6957,0.4174
495,0.6514,-9.9633,-1.1496,0.4174,-0.7652,0.2783
500,0.6131,-10.0016,-1.1879,0.7652,-0.7652,0.2087
505,0.5748,-9.9633,-1.5711,0.9739,-0.9739,0.0696
510,0.6514,-10.0399,-1.073,1.1826,-0.9739,-0.1391
515,0.7664,-10.1166,-1.2263,1.3913,-1.113,-0.0696
520,0.7281,-10.0782,-1.2646,1.7391,-1.113,-0.0696
525,0.7664,-10.0782,-1.3029,2.2261,-0.8348,-0.2087
530,0.6514,-10.1932,-1.3412,2.713,-0.6261,-0.1391
535,0.6514,-10.0782,-1.3795,2.8522,-0.2783,-0.2087
540,0.8047,-10.0782,-1.3795,2.6435,0.0696,-0.4174
545,0.6898,-9.9633,-0.9963,2.3652,0.2783,-0.487
550,0.7281,-9.9633,-1.1113,2.2261,0.3478,-0.487
555,0.7664,-9.9633,-1.0346,1.5304,0.3478,-0.6957
560,0.9963,-10.0399,-0.958,1.3217,0.2087,-0.7652
565,0.6131,-9.8483,-1.1113,0.9739,0.1391,-0.8348
570,0.6898,-9.925,-0.9197,0.8348,0.1391,-0.9043
575,0.8047,-10.0399,-0.958,0.9043,0.2783,-0.9043
580,0.6898,-9.9633,-1.0346,0.9043,0.3478,-0.8348
585,0.7281,-10.0399,-1.073,0.9739,0.4174,-0.8348
590,0.8047,-9.9633,-1.0346,0.9043,0.7652,-0.8348
595,0.8814,-10.0016,-0.9197,0.9043,1.113,-0.8348
600,0.9197,-10.0016,-0.9197,0.9043,1.2522,-0.9739
605,0.9197,-10.0399,-0.9963,0.9739,1.4609,-1.0435
610,0.9197,-9.8866,-0.9963,1.0435,1.5304,-0.9739
615,0.8814,-9.9633,-1.0346,0.8348,1.6696,-0.9739
620,0.7664,-9.81,-0.843,0.5565,1.6696,-0.9043
625,0.8047,-9.8866,-0.958,0.3478,1.6696,-0.9043
630,0.8047,-9.8866,-1.073,0.0696,1.8783,-0.7652
635,0.7281,-9.8866,-1.1496,-0.3478,1.8087,-0.7652
640,0.7664,-9.9633,-0.9197,-0.6957,1.8087,-0.6957
645,0.6898,-9.9633,-1.1496,-1.113,1.6,-0.6261
650,0.7281,-9.7717,-0.9963,-1.5304,1.3913,-0.6957
655,0.8047,-10.0016,-1.1496,-1.9478,1.1826,-0.6957
660,0.6514,-10.0016,-1.1496,-2.2957,0.8348,-0.487
665,0.8047,-10.0782,-1.0346,-2.6435,0.7652,-0.5565
670,0.7281,-9.925,-1.0346,-2.9217,0.6957,-0.5565
675,0.6514,-9.9633,-1.073,-3.1304,0.6957,-0.5565
680,0.8814,-10.0016,-1.073,-3.3391,0.7652,-0.6261
685,0.6898,-9.925,-1.0346,-3.5478,1.1826,-0.6261
690,0.7664,-10.0016,-1.1113,-3.6174,1.3913,-0.7652
695,0.7281,-10.0399,-1.0346,-3.7565,1.6696,-0.7652
700,0.6898,-10.0782,-1.1113,-3.7565,1.8087,-0.7652
705,0.7664,-10.0399,-1.073,-3.8261,2.1565,-0.8348
710,0.6898,-10.0016,-1.1113,-3.7565,2.4348,-0.7652
715,0.8047,-9.9633,-1.073,-3.5478,2.5739,-0.8348
720,0.8047,-10.0399,-1.0346,-3.4783,2.713,-0.7652
725,0.7664,-10.0016,-1.073,-3.5478,2.7826,-0.6957
730,0.7664,-10.0016,-1.0346,-3.687,2.9217,-0.7652
735,0.958,-10.0016,-1.0346,-3.5478,3.0609,-0.8348
740,0.6898,-9.9633,-1.0346,-3.5478,2.9913,-0.8348
745,0.8814,-9.9633,-1.0346,-3.4783,3.1304,-0.8348
750,0.6898,-10.0399,-1.1113,-3.4783,3.2696,-0.9043
755,0.6514,-10.0399,-0.9963,-3.4087,3.4087,-0.8348
760,0.6898,-9.9633,-0.958,-3.4087,3.4783,-0.8348
765,0.6898,-10.0399,-1.0346,-3.2696,3.4783,-0.9043
770,0.8047,-10.1932,-0.9963,-3.2696,3.4087,-0.8348
775,0.6131,-10.0399,-0.958,-3.2,3.3391,-0.9043
780,0.7281,-10.0782,-1.1496,-3.2,3.2696,-0.8348
785,0.7664,-10.1166,-1.1113,-3.1304,3.2696,-0.9043
790,0.6514,-9.9633,-1.1496,-3.0609,3.2696,-0.9043
795,0.6131,-10.0016,-1.1113,-3.0609,3.2,-1.0435
800,0.6898,-10.0016,-1.1496,-2.9217,3.2696,-1.0435
805,0.6514,-9.925,-1.1496,-2.9217,3.2,-1.113
810,0.6898,-9.925,-1.1879,-2.7826,3.2,-1.113
815,0.7281,-9.925,-1.1113,-2.5043,3.0609,-1.1826
820,0.6898,-10.0782,-1.0346,-2.1565,3.0609,-1.1826
825,0.6898,-9.925,-1.073,-1.8087,2.8522,-1.1826
830,0.5748,-9.925,-1.073,-1.5304,2.713,-1.2522
835,0.4598,-9.9633,-1.0346,-1.3913,2.713,-1.113
840,0.6898,-10.0016,-1.0346,-1.5304,2.6435,-1.113
845,0.6131,-9.925,-1.0346,-1.7391,2.7826,-1.0435
850,0.6514,-10.0016,-1.0346,-2.087,2.7826,-0.9043
855,0.6514,-9.925,-0.9197,-2.2957,2.713,-0.9043
860,0.7281,-10.0016,-0.9197,-2.5043,2.7826,-0.9043
865,0.6514,-10.0016,-1.0346,-2.6435,2.9913,-0.9043
870,0.6898,-9.9633,-0.8814,-2.7826,3.0609,-0.9043
875,0.7664,-9.9633,-0.8814,-2.7826,2.9913,-0.8348
880,0.7664,-10.0016,-0.9197,-2.713,3.0609,-0.9043
885,0.6131,-9.9633,-0.9197,-2.713,3.0609,-0.9739
890,0.7664,-9.9633,-0.7664,-2.6435,3.0609,-0.8348
895,0.7281,-9.9633,-0.843,-2.4348,2.8522,-0.7652
900,0.8047,-10.0016,-0.9197,-2.2261,2.6435,-0.8348
905,0.6514,-10.0016,-0.8047,-2.0174,2.4348,-0.9043
910,0.7664,-10.0782,-1.0346,-1.8783,2.087,-0.9043
915,0.6131,-10.0016,-0.8047,-1.8087,1.7391,-0.9739
920,0.7664,-10.0399,-0.9963,-1.5304,1.4609,-0.9043
925,0.6898,-10.0016,-0.9963,-1.5304,1.2522,-0.7652
930,0.6131,-9.9633,-0.8814,-1.3217,1.113,-0.6957
935,0.6514,-10.0399,-0.9197,-1.3217,0.8348,-0.6261
940,0.7664,-10.0016,-0.8814,-1.113,0.8348,-0.5565
945,0.8047,-10.0399,-1.073,-1.0435,0.7652,-0.5565
950,0.8047,-9.925,-1.0346,-0.9043,0.6957,-0.5565
955,0.8047,-9.9633,-0.8814,-0.9043,0.6957,-0.5565
960,0.7281,-9.925,-1.073,-0.9043,0.7652,-0.6261
965,0.8047,-9.9633,-0.8047,-1.0435,0.7652,-0.6261
970,0.6898,-9.8483,-0.8814,-1.1826,0.7652,-0.6261
975,0.8047,-9.925,-0.843,-1.1826,0.7652,-0.6261
980,0.7281,-9.8866,-0.8814,-1.3913,0.6957,-0.6261
985,0.6514,-10.0016,-0.7664,-1.3913,0.6957,-0.6261
990,0.7281,-10.1549,-0.9197,-1.2522,0.487,-0.6261
995,0.7281,-9.925,-0.8047,-1.1826,0.1391,-0.5565
1000,0.6898,-9.9633,-0.9963,-1.1826,-0.0696,-0.4174
1005,0.5748,-9.925,-0.7664,-1.1826,-0.2783,-0.3478
1010,0.6514,-9.9633,-0.958,-1.113,-0.5565,-0.2783
1015,0.6898,-10.0399,-0.8814,-1.1826,-0.6957,-0.3478
1020,0.6898,-9.9633,-0.9197,-1.0435,-0.6957,-0.2783
1025,0.7281,-9.925,-0.8047,-1.113,-0.8348,-0.2087
1030,0.843,-10.0399,-0.9197,-1.113,-0.8348,-0.1391
1035,0.8047,-9.8866,-1.0346,-1.0435,-0.9043,0.0696
1040,0.7281,-9.925,-0.843,-1.3217,-0.9739,0.2087
1045,0.7281,-9.695,-1.2263,-1.4609,-0.8348,0.2783
1050,0.7664,-9.925,-0.843,-1.6,-0.6261,0.2783
1055,0.7664,-9.8866,-0.958,-1.8087,-0.5565,0.2783
1060,0.843,-9.925,-0.843,-2.087,-0.4174,0.2087
1065,0.7281,-10.0016,-0.7664,-2.3652,-0.2783,0.2087
1070,0.7664,-10.0399,-0.8814,-2.713,-0.1391,0.0696
1075,0.7281,-9.9633,-0.8047,-2.9217,-0.0696,0.0696
1080,0.8047,-9.9633,-0.9197,-2.9913,-0.1391,0.1391
1085,0.6898,-10.0782,-0.843,-2.9913,-0.1391,0.0696
1090,0.8047,-10.0399,-0.843,-2.6435,-0.1391,0.0696
1095,0.843,-9.9633,-0.958,-2.2261,-0.1391,-0.0696
1100,0.958,-10.3465,-0.2299,-2.0174,-0.2087,0.0696
1105,0.843,-9.9633,-1.1113,-1.9478,-0.2087,-0.1391
1110,0.6898,-10.0016,-0.8814,-1.9478,-0.1391,-0.1391
1115,0.7281,-9.9633,-0.843,-2.087,0.0,-0.2783
1120,0.843,-10.0399,-0.8814,-2.2957,0.1391,-0.2783
1125,0.6514,-10.0016,-0.958,-2.2261,0.2087,-0.487
1130,0.958,-10.0782,-0.8047,-2.087,0.2783,-0.4174
1135,0.843,-10.0399,-0.9963,-2.0174,0.4174,-0.487
1140,0.8047,-9.9633,-0.843,-2.1565,0.2783,-0.487
1145,0.7664,-10.0016,-0.843,-2.2957,0.3478,-0.487
1150,0.8047,-9.9633,-0.8047,-2.4348,0.487,-0.3478
1155,0.9197,-9.9633,-0.958,-2.5739,0.4174,-0.3478
1160,0.8814,-9.9633,-0.8814,-2.7826,0.487,-0.4174
1165,0.7664,-9.8483,-0.958,-3.0609,0.4174,-0.2783
1170,0.9197,-10.0782,-0.9963,-3.1304,0.5565,-0.4174
1175,0.7281,-9.8866,-1.0346,-3.1304,0.6261,-0.3478
1180,0.6514,-10.0016,-1.073,-2.9913,0.5565,-0.487
1185,0.6514,-9.9633,-1.073,-3.1304,0.6261,-0.5565
1190,0.6131,-10.0782,-1.1113,-3.4087,0.7652,-0.6261
1195,0.6514,-10.0399,-1.1496,-3.7565,0.9043,-0.487
1200,0.6514,-10.1549,-1.0346,-3.9652,1.0435,-0.4174
1205,0.6514,-10.1549,-1.1113,-4.0348,0.9043,-0.487
1210,0.6514,-10.1549,-0.9963,-3.9652,0.9043,-0.5565
1215,0.6131,-10.0782,-0.7664,-3.8261,0.7652,-0.5565
1220,0.7281,-10.1549,-0.8047,-3.5478,0.8348,-0.6957
1225,0.6898,-9.925,-0.8047,-3.1304,0.7652,-0.6957
1230,0.7281,-10.0016,-0.9197,-2.713,0.7652,-0.8348
1235,0.7281,-9.925,-0.9197,-2.2957,0.7652,-0.9043
1240,0.7281,-9.8866,-0.6898,-2.087,0.9043,-0.9739
1245,0.7281,-9.8866,-0.8047,-1.9478,0.9043,-0.9043
1250,0.7664,-9.925,-0.958,-1.8087,0.9739,-0.9043
1255,0.8047,-9.9633,-0.9197,-1.8783,1.0435,-0.8348
1260,0.8047,-9.925,-0.9963,-1.8783,0.9739,-0.7652
1265,0.7281,-9.8866,-0.8814,-1.8783,0.9043,-0.6957
1270,0.6898,-9.8866,-0.6514,-1.9478,0.6261,-0.6261
1275,0.7664,-9.9633,-1.1113,-1.9478,0.4174,-0.6261
1280,0.7281,-9.925,-0.9963,-2.1565,0.2783,-0.487
1285,0.6898,-9.8866,-0.9197,-2.2957,0.2087,-0.4174
1290,0.6898,-9.9633,-1.0346,-2.4348,0.0,-0.4174
1295,0.6898,-10.0016,-1.0346,-2.5043,0.0696,-0.3478
1300,0.8814,-10.0016,-0.958,-2.4348,0.2087,-0.4174
1305,0.8047,-10.0016,-0.9963,-2.2957,0.2783,-0.487
1310,0.8047,-10.0782,-0.843,-2.2261,0.4174,-0.6261
1315,0.7664,-10.0399,-0.9963,-2.2957,0.7652,-0.6261
1320,0.7281,-10.0016,-1.1113,-2.4348,1.113,-0.7652
1325,0.8814,-10.0016,-0.9963,-2.7826,1.6,-0.7652
1330,0.7281,-10.0399,-0.958,-3.0609,1.8783,-0.6957
1335,0.7281,-10.0016,-0.9197,-3.4087,2.087,-0.6957
1340,0.6514,-10.0016,-1.073,-3.4087,2.2261,-0.7652
1345,0.7664,-10.1166,-1.0346,-3.4783,2.2261,-0.8348
1350,0.7281,-10.1166,-1.0346,-3.4087,2.1565,-0.6957
1355,0.6898,-10.0399,-0.9963,-3.4087,2.0174,-0.6261
1360,0.5748,-9.8483,-0.9963,-3.4087,1.8087,-0.6957
1365,0.7664,-10.0016,-1.073,-3.6174,1.6696,-0.6261
1370,0.7664,-10.0016,-1.0346,-3.8957,1.6696,-0.5565
1375,0.7281,-9.925,-1.1113,-4.0348,1.6,-0.4174
1380,0.6131,-9.9633,-1.2263,-4.3826,1.7391,-0.2783
1385,0.5748,-9.925,-0.9963,-4.5217,1.7391,-0.3478
1390,0.7281,-9.925,-1.073,-4.8,1.8783,-0.3478
1395,0.7281,-9.925,-0.958,-4.9391,2.1565,-0.487
1400,0.6131,-9.9633,-0.9963,-5.0087,2.3652,-0.6957
1405,0.7281,-9.8866,-1.1113,-5.1478,2.4348,-0.7652
1410,0.7281,-10.0399,-0.843,-5.3565,2.5739,-0.9043
1415,0.7281,-9.925,-0.9197,-5.1478,2.5739,-0.9739
1420,0.7664,-10.0016,-0.7664,-5.0783,2.6435,-0.9739
1425,0.8047,-10.0016,-0.958,-4.8696,2.6435,-0.9043
1430,0.8047,-10.0016,-0.958,-4.7304,2.713,-0.8348
1435,0.7281,-10.0399,-1.0346,-4.6609,2.713,-0.8348
1440,0.8047,-10.0399,-0.9197,-4.3826,2.7826,-0.8348
1445,0.6131,-9.9633,-1.073,-4.1043,2.7826,-0.7652
1450,0.8814,-10.1549,-1.0346,-3.7565,2.6435,-0.7652
1455,0.7281,-10.0016,-0.9197,-3.687,2.6435,-0.7652
1460,0.6898,-10.0782,-0.8814,-3.4087,2.1565,-0.8348
1465,0.6898,-10.1166,-0.8814,-3.2,1.8783,-0.9043
1470,0.7281,-10.0016,-0.8814,-2.8522,1.5304,-0.9043
1475,0.6131,-9.925,-1.0346,-2.6435,1.3217,-0.9043
1480,0.6514,-10.0016,-0.8047,-2.4348,1.3217,-1.0435
1485,0.843,-9.9633,-0.843,-2.4348,1.3913,-1.0435
1490,0.7281,-9.925,-0.958,-2.2261,1.3913,-1.113
1495,0.8047,-9.9633,-0.7664,-2.2261,1.4609,-1.1826
1500,0.8047,-9.8866,-1.073,-2.4348,1.4609,-1.2522
1505,0.843,-9.925,-0.9197,-2.4348,1.6696,-1.1826
1510,0.8814,-10.0016,-0.8814,-2.6435,1.6696,-1.1826
1515,0.9963,-10.0399,-0.843,-2.5739,1.8087,-1.3217
1520,0.8814,-9.925,-0.958,-2.713,1.8087,-1.3913
1525,0.8814,-9.8866,-1.1113,-2.6435,1.8087,-1.4609
1530,0.7664,-9.8866,-0.9197,-2.5043,1.8783,-1.6
1535,0.843,-9.9633,-0.958,-2.2957,1.9478,-1.4609
1540,0.8814,-9.9633,-0.8047,-2.1565,1.8087,-1.3217
1545,0.843,-9.9633,-0.843,-1.9478,1.6696,-1.1826
1550,0.7281,-9.9633,-0.843,-1.8783,1.3913,-0.9739
1555,0.6131,-9.9633,-0.8814,-1.8783,1.0435,-0.8348
1560,0.8047,-10.0399,-0.8814,-1.9478,0.7652,-0.5565
1565,0.6514,-9.9633,-1.073,-2.087,0.2783,-0.4174
1570,0.6898,-9.9633,-0.6514,-2.0174,-0.1391,-0.1391
1575,0.4982,-9.9633,-1.1113,-2.087,-0.6261,0.0
1580,0.6131,-9.9633,-0.9197,-2.0174,-1.113,0.2087
1585,0.6514,-10.0782,-1.0346,-1.8087,-1.4609,0.3478
1590,0.8047,-10.0016,-0.9963,-1.7391,-1.8087,0.4174
1595,0.8047,-10.1166,-0.843,-1.4609,-2.1565,0.3478
1600,0.8047,-10.0782,-0.9963,-1.113,-2.2957,0.2087
1605,0.7281,-10.0016,-0.9197,-0.8348,-2.4348,0.0696
1610,0.8047,-10.1166,-0.9197,-0.4174,-2.4348,-0.1391
1615,0.843,-9.9633,-0.8047,-0.0696,-2.6435,-0.2087
1620,0.843,-9.9633,-0.8047,0.0696,-2.5739,-0.3478
1625,0.7664,-9.9633,-0.7664,0.2087,-2.5043,-0.487
1630,0.8814,-10.0016,-0.843,0.2087,-2.3652,-0.3478
1635,0.8814,-9.9633,-0.958,0.2783,-2.3652,-0.2783
1640,0.6131,-9.8866,-0.8814,0.3478,-2.2261,-0.2087
1645,0.7664,-9.925,-0.8814,0.2783,-2.2261,-0.2087
1650,0.6898,-9.925,-0.8047,0.2783,-2.087,-0.1391
1655,0.7664,-9.925,-0.8047,0.2087,-1.9478,-0.0696
1660,0.7664,-9.8866,-0.958,0.0696,-1.8087,-0.0696
1665,0.8047,-10.0016,-0.8047,-0.0696,-1.6696,-0.1391
1670,0.7281,-9.9633,-1.0346,-0.0696,-1.3217,-0.2087
1675,0.8047,-10.0016,-0.8814,-0.0696,-1.0435,-0.1391
1680,0.8047,-10.0782,-0.8047,0.0,-0.9739,-0.2087
1685,0.8047,-10.0016,-0.7281,0.1391,-0.8348,-0.487
1690,0.8814,-10.0399,-0.6898,0.487,-0.6957,-0.5565
1695,0.7664,-9.8483,-0.5365,0.6957,-0.6957,-0.6261
1700,0.7664,-10.0016,-0.8814,0.7652,-0.7652,-0.6261
1705,0.843,-9.8866,-0.843,0.7652,-0.9043,-0.9043
1710,0.843,-10.0399,-0.9197,0.6957,-1.0435,-0.9739
1715,0.7664,-9.9633,-0.9197,0.487,-1.113,-0.9739
1720,0.7281,-9.9633,-1.0346,0.3478,-1.0435,-1.0435
1725,0.5748,-9.8483,-0.8814,0.2783,-0.8348,-1.0435
1730,0.8047,-9.9633,-0.958,0.2783,-0.7652,-1.0435
1735,0.7664,-10.0016,-0.958,0.4174,-0.7652,-1.113
1740,0.843,-10.0399,-0.7281,0.5565,-0.6957,-0.8348
1745,0.7664,-9.9633,-0.9963,0.6261,-0.6957,-0.7652
1750,0.7281,-9.9633,-0.8814,0.7652,-0.5565,-0.6261
1755,0.8047,-10.0016,-0.8814,0.7652,-0.487,-0.6261
1760,0.843,-10.0016,-0.7664,0.6957,-0.2087,-0.487
1765,0.8047,-10.0782,-0.843,0.5565,0.0,-0.3478
1770,0.843,-9.9633,-0.9197,0.2783,0.1391,-0.2783
1775,0.8814,-9.925,-0.8814,0.0,0.2087,-0.1391
1780,0.9197,-9.9633,-0.8814,-0.487,0.3478,-0.2783
1785,0.8814,-10.0016,-0.958,-1.0435,0.3478,-0.2783
1790,0.7281,-9.9633,-0.843,-1.6696,0.2783,-0.3478
1795,0.7664,-10.0399,-0.8814,-2.2261,0.2087,-0.2783
1800,0.843,-10.0016,-0.843,-2.5043,0.0,-0.487
1805,0.8047,-9.8866,-0.8047,-2.8522,0.0,-0.6261
1810,0.7281,-9.925,-0.9963,-2.9217,0.0696,-0.8348
1815,0.9197,-9.8866,-0.9197,-2.9913,0.0696,-0.8348
1820,0.7664,-10.0399,-0.7664,-2.9913,0.1391,-0.9043
1825,0.8814,-9.9633,-0.9197,-3.0609,0.3478,-1.113
1830,0.843,-9.9633,-0.6514,-3.2696,0.6261,-1.113
1835,0.8814,-9.925,-0.8814,-3.2696,0.8348,-1.1826
1840,0.8814,-9.925,-0.6131,-3.5478,1.113,-1.3913
1845,0.8814,-10.1166,-0.6131,-3.8261,1.2522,-1.3913
1850,0.7664,-10.0399,-0.6898,-3.8957,1.3913,-1.4609
1855,0.8814,-10.0016,-0.5365,-3.8261,1.5304,-1.6696
1860,0.7664,-10.2698,-0.7281,-4.0348,1.4609,-1.7391
1865,0.8047,-9.925,-0.843,-4.1043,1.3217,-1.8087
1870,0.8047,-9.9633,-0.6898,-4.4522,1.3913,-1.8087
1875,0.9197,-10.0016,-0.958,-4.8,1.3913,-1.8087
1880,0.8047,-10.1166,-0.9963,-4.8696,1.5304,-1.8783
1885,0.7664,-10.0399,-1.0346,-4.8,1.6696,-2.087
1890,0.8047,-9.9633,-1.073,-4.6609,1.7391,-2.087
1895,0.6898,-9.8866,-0.9963,-4.7304,1.7391,-1.9478
1900,0.7281,-9.8866,-0.843,-4.9391,1.9478,-1.7391
1905,0.7281,-9.925,-1.0346,-5.287,1.8783,-1.4609
1910,0.843,-9.925,-0.9197,-5.8435,2.087,-1.3913
1915,0.6898,-9.8866,-1.0346,-6.5391,2.2957,-1.3913
1920,0.843,-9.925,-0.8047,-6.887,2.4348,-1.5304
1925,0.6898,-9.925,-0.6514,-7.3739,2.4348,-1.6
1930,0.8047,-9.8483,-0.5748,-7.5826,2.3652,-1.7391
1935,0.6898,-10.0399,-0.5365,-7.6522,2.3652,-1.6696
1940,0.7664,-9.9633,-0.6898,-7.5826,2.5043,-1.6696
1945,0.7664,-10.0399,-0.6898,-7.7217,2.8522,-1.7391
1950,0.7281,-10.0399,-0.6898,-8.0,2.9217,-1.8087
1955,0.843,-9.8866,-0.6131,-8.487,3.2696,-1.7391
1960,0.6514,-9.8866,-0.8047,-9.0435,3.5478,-1.8087
1965,0.7281,-9.8483,-0.8047,-9.4609,3.8957,-1.8783
1970,0.7664,-9.925,-0.843,-10.087,4.0348,-1.8087
1975,0.7281,-9.8483,-0.8047,-10.6435,4.1043,-1.8087
1980,0.7664,-9.8483,-0.8047,-11.2696,4.1739,-1.5304
1985,0.7664,-9.8483,-0.8814,-11.6174,4.313,-1.3913
1990,0.7664,-9.81,-0.958,-12.2435,4.5217,-1.1826
1995,0.8047,-9.8483,-0.843,-12.5913,4.6609,-1.113
2000,0.8047,-9.8483,-0.6898,-12.9391,4.8696,-1.0435
2005,0.843,-9.8483,-0.8047,-13.287,5.0087,-1.1826
2010,0.8814,-9.8483,-0.8047,-13.5652,4.9391,-1.0435
2015,0.958,-9.81,-0.9197,-13.9826,4.8,-1.0435
2020,0.8814,-9.7717,-0.8814,-14.4,4.7304,-1.0435
2025,0.8814,-9.925,-0.8814,-14.9565,4.7304,-1.113
2030,0.958,-9.81,-0.843,-15.513,4.8,-1.113
2035,0.958,-9.8483,-1.073,-16.2783,4.7304,-1.113
2040,0.9197,-9.81,-0.8047,-17.0435,4.5913,-1.0435
2045,0.958,-9.81,-0.8814,-17.6696,4.3826,-0.9739
2050,0.958,-9.7717,-0.8047,-18.3652,4.1739,-0.9043
2055,0.8047,-9.8483,-0.843,-18.8522,3.8261,-0.9043
2060,0.8814,-9.81,-0.9963,-19.4783,3.5478,-0.6957
2065,0.843,-9.925,-0.958,-20.0348,3.0609,-0.7652
2070,0.7664,-9.8483,-0.8047,-20.7304,2.5739,-0.6957
2075,0.7664,-9.8866,-0.8047,-21.287,2.2261,-0.6261
2080,0.6514,-9.8866,-0.8814,-21.7043,1.8087,-0.487
2085,0.8047,-9.8483,-0.8814,-22.1913,1.3217,-0.3478
2090,0.8047,-9.8866,-0.9197,-22.4696,0.9043,-0.2087
2095,0.7281,-9.8866,-0.958,-22.887,0.6957,-0.2087
2100,0.7664,-9.8866,-0.9197,-23.3739,0.5565,-0.1391
2105,0.6898,-9.7717,-0.9197,-24.0,0.487,-0.1391
2110,0.7664,-9.7717,-0.8814,-24.5565,0.487,-0.2783
2115,0.843,-9.81,-0.9963,-25.113,0.5565,-0.2087
2120,0.7281,-9.81,-1.1113,-25.8783,0.5565,-0.0696
2125,0.7664,-9.8483,-0.958,-26.3652,0.487,0.2087
2130,0.7664,-9.81,-0.958,-26.9217,0.6261,0.4174
2135,0.7281,-9.8483,-0.9963,-27.2696,0.6957,0.5565
2140,0.8047,-9.925,-1.1113,-27.4783,0.6261,0.5565
2145,0.8047,-9.8483,-0.958,-27.7565,0.5565,0.6957
2150,0.7281,-9.9633,-1.0346,-27.8261,0.487,0.7652
2155,0.7664,-9.925,-1.2646,-28.2435,0.2783,0.6957
2160,0.8047,-9.9633,-1.2646,-28.313,0.1391,0.7652
2165,0.8047,-10.0782,-1.1879,-28.2435,-0.2087,0.6957
2170,0.5748,-9.9633,-1.1113,-28.3826,-0.4174,0.8348
2175,0.6514,-10.0782,-1.1496,-28.1739,-0.6957,0.9739
2180,1.073,-9.7717,-1.1496,-27.9652,-1.0435,1.1826
2185,0.7664,-10.0782,-1.4179,-27.8261,-1.3217,1.2522
2190,0.8047,-9.8866,-1.4562,-27.8957,-1.6,1.1826
2195,0.8814,-9.8483,-1.4945,-28.0348,-1.8087,1.0435
2200,0.9197,-9.9633,-1.5328,-28.1043,-1.9478,0.7652
2205,0.7664,-9.9633,-1.6095,-28.1043,-2.087,0.5565
2210,0.9197,-9.8483,-1.6095,-27.9652,-2.2957,0.3478
2215,0.8814,-9.8483,-1.6478,-27.8261,-2.3652,0.2087
2220,1.1113,-9.8483,-1.5328,-27.8957,-2.2957,0.2087
2225,0.958,-9.8866,-1.7627,-27.8957,-2.2261,0.2783
2230,0.9197,-9.925,-1.9927,-28.313,-2.2261,0.2087
2235,1.1496,-10.1166,-1.8777,-28.8696,-2.3652,0.4174
2240,0.843,-9.8866,-1.9543,-29.6348,-2.6435,0.7652
2245,0.7664,-10.0016,-1.916,-30.3304,-3.2,1.0435
2250,0.6514,-10.0016,-1.8394,-30.9565,-3.8261,1.6
2255,0.6514,-10.0782,-2.1459,-31.513,-4.5217,2.0174
2260,0.6514,-9.8866,-2.031,-32.0696,-5.2174,2.5043
2265,0.6898,-9.925,-2.2992,-32.6957,-5.7739,2.9217
2270,0.6898,-9.925,-2.2609,-33.5304,-5.9826,3.1304
2275,0.7664,-9.9633,-2.2226,-34.1565,-5.7043,3.3391
2280,0.9197,-9.9633,-2.2226,-34.8522,-5.2174,3.4087
2285,0.958,-9.9633,-2.1843,-35.2,-4.5913,3.3391
2290,0.843,-10.1166,-2.2609,-35.4783,-3.9652,3.4783
2295,0.9963,-10.0399,-2.2226,-35.5478,-3.3391,3.4087
2300,0.9963,-10.1549,-2.2609,-35.687,-2.9913,3.4087
2305,0.9963,-10.2315,-2.2226,-35.8957,-3.0609,3.4087
2310,0.843,-10.2315,-2.2992,-36.1043,-3.2,3.3391
2315,0.8814,-10.2698,-2.1843,-36.4522,-3.4087,3.1304
2320,0.843,-10.1932,-2.2992,-36.8696,-3.5478,3.0609
2325,0.958,-10.1549,-2.2992,-37.0783,-3.8261,2.9913
2330,0.7664,-10.1549,-2.4525,-37.0783,-3.7565,2.7826
2335,0.8047,-10.1166,-2.1843,-36.6609,-3.6174,2.6435
2340,0.7664,-10.0399,-2.4142,-36.5217,-3.3391,2.4348
2345,0.7664,-10.0016,-2.3375,-36.313,-3.1304,2.3652
2350,0.7281,-9.9633,-2.4142,-36.2435,-2.7826,2.2957
2355,0.8814,-9.925,-2.4525,-36.7304,-2.3652,2.087
2360,0.8047,-9.81,-2.4142,-37.287,-1.8783,2.0174
2365,0.8814,-9.8483,-2.4908,-37.7739,-1.2522,1.9478
2370,0.8814,-9.81,-2.5291,-38.3304,-0.6261,1.9478
2375,0.7281,-9.81,-2.5675,-38.7478,-0.2087,2.0174
2380,0.6131,-9.7717,-2.6441,-39.0261,0.2087,2.0174
2385,0.6898,-9.81,-2.6824,-39.513,0.3478,2.0174
2390,0.6131,-9.8483,-2.7591,-40.0696,0.2783,2.087
2395,0.6131,-9.8483,-2.6441,-40.6261,-0.0696,2.2261
2400,0.5748,-9.925,-2.7207,-41.1826,-0.5565,2.4348
2405,0.5748,-10.1166,-2.6824,-41.5304,-1.113,2.713
2410,0.5365,-10.0399,-2.6824,-41.5304,-1.5304,2.7826
2415,0.4982,-10.1166,-2.6058,-41.2522,-2.087,2.8522
2420,0.6514,-10.1932,-2.6824,-40.6957,-2.5043,2.9217
2425,0.5365,-10.2315,-2.7974,-40.487,-2.9217,2.7826
2430,0.4982,-10.1549,-2.6058,-40.3478,-3.2,2.713
2435,0.5365,-9.9633,-2.5675,-40.2783,-3.3391,2.5739
2440,0.4982,-9.9633,-2.6824,-40.0696,-3.4087,2.2261
2445,0.4598,-9.8866,-2.6824,-40.0,-3.4087,2.1565
2450,0.5748,-9.8866,-2.7207,-39.8609,-3.2696,1.9478
2455,0.5365,-9.7717,-2.6058,-40.2087,-2.9913,1.8087
2460,0.6131,-9.81,-2.874,-40.487,-2.7826,1.7391
2465,0.6898,-9.695,-2.8357,-40.9739,-2.3652,1.8783
2470,0.4982,-9.5418,-2.9507,-41.8087,-2.1565,1.8783
2475,0.5748,-9.6567,-2.989,-42.8522,-1.7391,2.087
2480,0.5365,-9.7717,-3.1423,-44.313,-1.3217,2.1565
2485,0.5748,-9.81,-3.2572,-45.9826,-1.113,2.4348
2490,0.4598,-9.925,-3.4488,-47.3739,-1.113,2.5739
2495,0.4598,-10.0399,-3.4105,-48.6261,-1.1826,2.713
2500,0.4598,-10.2315,-3.3339,-49.3913,-1.2522,2.9217
2505,0.4215,-10.3465,-3.2572,-49.5304,-1.7391,2.7826
2510,0.4598,-10.4231,-3.3339,-49.0435,-2.0174,2.713
2515,0.4215,-10.5381,-3.4105,-48.3478,-2.1565,2.713
2520,0.3832,-10.4998,-3.2955,-47.3739,-2.2261,2.713
2525,0.3832,-10.4231,-3.4105,-46.4,-2.5043,2.9217
2530,0.3449,-10.2698,-3.2189,-45.7043,-2.713,3.1304
2535,0.4598,-10.2698,-3.4105,-45.2174,-2.8522,3.1304
2540,0.3832,-10.0399,-3.4105,-45.0783,-2.9913,3.1304
2545,0.3832,-10.0782,-3.5638,-45.1478,-2.9217,3.2
2550,0.6131,-10.0016,-3.5638,-45.4261,-2.713,3.2696
2555,0.5748,-9.9633,-3.5638,-45.7043,-2.2957,3.4087
2560,0.6514,-10.0399,-3.6404,-46.4696,-1.8087,3.687
2565,0.6131,-10.0399,-3.7554,-47.0957,-1.4609,3.9652
2570,0.8814,-10.2315,-3.6787,-47.7913,-0.9739,4.313
2575,0.8047,-10.1932,-3.5638,-48.487,-0.487,4.7304
2580,0.6898,-10.1549,-3.6787,-48.7652,-0.487,5.2174
2585,0.6898,-10.3082,-3.7554,-48.9739,-0.5565,5.5652
2590,0.7664,-10.2698,-3.7171,-48.9043,-0.487,6.1913
2595,0.6898,-10.2315,-3.832,-48.5565,-0.8348,6.2609
2600,0.6898,-10.2698,-3.832,-48.3478,-1.2522,6.3304
2605,0.5365,-10.1932,-3.7171,-48.2087,-1.5304,6.1913
2610,0.4598,-10.2315,-3.832,-48.4174,-2.0174,5.8435
2615,0.5748,-10.3465,-3.7554,-48.7652,-2.4348,5.287
2620,0.4215,-10.4614,-3.6021,-48.5565,-2.8522,4.9391
2625,0.4598,-10.4231,-3.7171,-48.2087,-2.9217,4.3826
2630,0.3832,-10.4998,-3.947,-47.5826,-2.7826,3.5478
2635,0.2682,-10.3465,-4.062,-46.9565,-2.3652,2.8522
2640,0.2299,-10.3848,-4.062,-46.1913,-1.3913,2.3652
2645,0.3066,-10.4231,-4.062,-45.5652,-0.4174,2.0174
2650,0.3066,-10.3848,-4.3685,-44.9391,0.5565,1.8783
2655,0.3832,-10.3848,-4.2152,-44.4522,1.6696,1.8783
2660,0.4598,-10.5381,-4.4068,-43.7565,2.7826,2.2261
2665,0.5748,-10.4231,-4.4835,-42.6435,3.9652,2.3652
2670,0.6131,-10.2698,-4.79,-41.3913,5.0087,2.5043
2675,0.6131,-10.2698,-4.7134,-40.487,5.7739,2.5043
2680,0.7664,-10.1549,-4.8284,-40.1391,6.1217,2.713
2685,0.843,-10.1932,-4.8284,-40.0,6.1217,2.6435
2690,0.8814,-10.2698,-4.8667,-40.0,6.1217,2.5739
2695,0.6898,-10.2315,-4.8667,-39.9304,5.7043,2.6435
2700,0.6898,-10.3082,-4.905,-39.4435,5.3565,2.8522
2705,0.8047,-10.4614,-4.905,-38.8174,4.9391,3.0609
2710,0.843,-10.4614,-4.9433,-38.1217,4.5217,3.1304
2715,0.7281,-10.4231,-4.905,-37.2174,4.313,3.2
2720,0.5365,-10.3465,-4.6751,-36.5217,3.9652,3.1304
2725,0.7664,-10.5764,-4.9816,-35.687,3.7565,3.0609
2730,0.6514,-10.4614,-4.9433,-34.8522,3.687,2.8522
2735,0.6898,-10.2698,-4.9816,-33.9478,3.5478,2.3652
2740,0.6131,-10.1932,-5.1349,-32.7652,3.2696,2.0174
2745,0.4982,-10.0399,-5.1349,-31.7217,3.1304,1.6
2750,0.4982,-9.8866,-5.1732,-30.6087,3.0609,1.3217
2755,0.3832,-9.8483,-5.2116,-29.287,3.0609,1.113
2760,0.3449,-9.7334,-5.2882,-27.9652,2.9217,1.0435
2765,0.2682,-9.7334,-5.2116,-26.8522,2.713,1.0435
2770,0.3449,-9.7717,-5.2499,-25.8783,2.3652,0.9739
2775,0.8814,-9.3885,-5.5564,-24.9043,2.2261,0.9043
2780,0.3832,-9.8483,-5.3648,-24.0696,1.9478,0.6957
2785,0.3832,-9.7717,-5.3265,-22.9565,1.8087,0.2087
2790,0.3832,-9.81,-5.4415,-21.7739,1.8087,-0.1391
2795,0.4982,-9.695,-5.2116,-20.5217,1.8087,-0.8348
2800,0.4215,-9.6567,-5.4415,-19.3391,2.0174,-1.3217
2805,0.3832,-9.6567,-5.3265,-18.2261,2.2957,-1.7391
2810,0.4982,-9.5034,-5.3265,-17.4609,2.5043,-2.0174
2815,0.4215,-9.5801,-5.3648,-16.6957,2.7826,-2.2261
2820,0.3449,-9.3118,-5.3265,-15.9304,2.8522,-2.2261
2825,0.3832,-9.3502,-5.4032,-15.4435,2.9217,-2.1565
2830,0.3449,-9.2352,-5.3648,-14.7478,2.6435,-2.0174
2835,0.3832,-9.3502,-5.2882,-14.1913,2.2957,-1.9478
2840,0.2682,-9.1969,-5.2882,-13.7043,1.8087,-1.8783
2845,0.3449,-9.2352,-5.2499,-13.287,1.4609,-1.9478
2850,0.3832,-9.1202,-5.2499,-13.1478,1.2522,-2.0174
2855,0.3832,-9.0819,-5.3265,-13.1478,1.1826,-2.1565
2860,0.4982,-9.1586,-5.4032,-13.0087,1.6,-2.2957
2865,0.4598,-8.967,-5.6714,-13.0783,2.087,-2.5043
2870,0.4215,-8.8903,-5.6331,-13.4957,2.713,-2.713
2875,0.4215,-9.0053,-5.748,-14.0522,3.3391,-2.8522
2880,0.4215,-9.0819,-5.6331,-14.887,3.7565,-2.9217
2885,0.4215,-9.0819,-5.6714,-15.6522,3.8957,-2.9913
2890,0.3832,-9.1202,-5.748,-16.2783,3.8957,-3.2
2895,0.4598,-9.1969,-5.7097,-16.8348,3.687,-3.2696
2900,0.5365,-9.1202,-5.7864,-17.1826,3.6174,-3.4783
2905,0.5365,-9.3118,-5.7097,-17.113,3.687,-3.6174
2910,0.4982,-9.3118,-5.6331,-16.9739,3.9652,-3.8957
2915,0.6898,-9.3502,-5.5948,-16.7652,4.1043,-4.1739
2920,0.5365,-9.3118,-5.5948,-16.4174,4.1739,-4.2435
2925,0.5365,-9.3502,-5.5948,-16.1391,4.1043,-4.1739
2930,0.4598,-9.4268,-5.5564,-15.6522,3.8261,-3.9652
2935,0.2682,-9.2352,-5.5948,-15.1652,3.3391,-3.4087
2940,0.3449,-9.2735,-5.5564,-14.4696,2.713,-2.8522
2945,0.2682,-9.1969,-5.4798,-13.7739,2.087,-2.2261
2950,0.3832,-9.3502,-5.4032,-13.2174,1.1826,-1.5304
2955,0.2299,-9.3502,-5.5564,-12.8,0.6957,-0.9043
2960,0.3832,-9.2735,-5.6331,-12.5217,0.1391,-0.3478
2965,0.2299,-9.1969,-5.5564,-12.2435,-0.0696,0.1391
2970,0.4215,-9.2735,-5.5564,-12.0348,-0.1391,0.487
2975,0.3832,-9.2352,-5.4798,-11.8261,0.2783,0.7652
2980,0.2299,-9.1969,-5.4798,-11.5478,0.8348,0.9043
2985,0.3832,-9.3118,-5.4798,-11.2,1.4609,0.9043
2990,0.3449,-9.3885,-5.3265,-10.6435,2.0174,0.9043
2995,0.4598,-9.4651,-5.4415,-10.0174,2.3652,0.7652
