timestamp,accX,accY,accZ,gyroX,gyroY,gyroZ
0,0.4982,-9.8866,-0.5365,-2.6435,4.8696,0.4174
5,0.5365,-9.9633,-0.6131,-2.5739,4.5217,0.4174
10,0.5748,-9.9633,-0.6898,-2.4348,4.313,0.6261
15,0.6898,-9.9633,-0.7281,-2.087,4.313,0.4174
20,0.6514,-9.925,-0.8814,-1.6696,4.3826,0.6261
25,0.6514,-9.925,-0.7664,-1.3913,4.6609,0.3478
30,0.5748,-9.81,-0.8814,-1.0435,5.0087,0.3478
35,0.5748,-9.8866,-0.958,-0.7652,5.287,-0.0696
40,0.6131,-9.8866,-0.8814,-0.5565,5.6348,-0.2087
45,0.5365,-9.81,-1.073,-0.2087,5.9826,-0.8348
50,0.5748,-9.81,-0.958,0.0696,6.5391,-0.9739
55,0.6514,-9.7334,-0.9963,0.2087,6.9565,-1.3217
60,0.5748,-9.925,-0.9963,0.2087,7.1652,-1.3217
65,0.5748,-9.7717,-0.9197,0.2087,7.5826,-1.5304
70,0.5365,-9.695,-0.9197,0.2087,7.9304,-1.3217
75,0.5748,-9.8483,-0.9197,0.0696,8.4174,-1.2522
80,0.6131,-9.8483,-0.8814,0.0,8.5565,-1.0435
85,0.5365,-9.7334,-0.8047,-0.5565,8.4174,-1.1826
90,0.6514,-9.7717,-0.8047,-0.6957,8.2087,-0.9739
95,0.4982,-9.7717,-0.7281,-0.7652,7.8609,-0.9043
100,0.6514,-9.6184,-0.7281,-0.6957,7.6522,-0.7652
105,0.5748,-9.7334,-0.6514,-0.6957,7.3739,-0.7652
110,0.4982,-9.695,-0.7281,-0.4174,7.0261,-0.6261
115,0.4982,-9.7334,-0.4982,-0.0696,6.8174,-0.6957
120,0.4598,-9.6184,-0.6131,0.1391,6.6087,-0.487
125,0.4215,-9.695,-0.4215,0.3478,6.4,-0.6261
130,0.4598,-9.7334,-0.4982,0.487,6.1913,-0.4174
135,0.4215,-9.695,-0.5748,0.6261,5.9826,-0.4174
140,0.5748,-9.6567,-0.5748,0.487,5.7739,-0.2087
145,0.4982,-9.6184,-0.4982,0.4174,5.6348,-0.0696
150,0.5365,-9.7334,-0.4982,0.2087,5.2174,0.2783
155,0.6131,-9.7334,-0.5748,0.0,4.7304,0.3478
160,0.6131,-9.7334,-0.7281,-0.0696,4.5217,0.6261
165,0.5365,-9.8483,-0.4215,-0.1391,4.5217,0.4174
170,0.5365,-9.8483,-0.6898,0.0696,4.4522,0.5565
175,0.6131,-9.925,-0.6514,0.3478,4.5217,0.3478
180,0.6514,-9.9633,-0.6514,0.8348,4.4522,0.2087
185,0.6131,-9.9633,-0.6898,1.4609,4.6609,0.0
190,0.6898,-9.9633,-0.5748,1.9478,4.8696,-0.0696
195,0.5365,-9.925,-0.6898,2.4348,5.0783,-0.3478
200,0.5365,-9.8866,-0.6514,2.9217,5.4261,-0.3478
205,0.5365,-9.8866,-0.5748,3.2696,5.6348,-0.487
210,0.4982,-9.8483,-0.4982,3.4087,5.8435,-0.4174
215,0.4982,-9.8866,-0.6514,3.6174,6.1217,-0.5565
220,0.4982,-9.7717,-0.6514,3.7565,6.3304,-0.6957
225,0.4982,-9.8483,-0.7281,3.9652,6.4696,-0.8348
230,0.5365,-9.695,-0.5365,4.0348,6.4,-0.7652
235,0.4982,-9.81,-0.4598,4.0348,6.3304,-0.7652
240,0.4982,-9.7334,-0.4982,3.9652,6.2609,-0.6261
245,0.5748,-9.7334,-0.6131,3.687,6.3304,-0.5565
250,0.5748,-9.8483,-0.4598,3.2696,6.3304,-0.2783
255,0.5365,-9.81,-0.6131,2.8522,6.1217,-0.2087
260,0.6514,-9.695,-0.5365,2.3652,6.0522,0.0
265,0.5748,-9.7334,-0.6514,1.8783,5.8435,0.1391
270,0.5748,-9.695,-0.6514,1.2522,5.7043,0.1391
275,0.5365,-9.7334,-0.6514,0.9043,5.3565,0.1391
280,0.5365,-9.81,-0.6898,0.487,4.9391,0.0696
285,0.4982,-9.81,-0.7281,0.0696,4.7304,-0.0696
290,0.5365,-9.81,-0.6514,-0.1391,4.4522,-0.2087
295,0.4982,-9.7334,-0.7281,-0.0696,4.1043,-0.2783
300,0.5365,-9.7717,-0.5365,0.1391,3.7565,-0.2087
305,0.6514,-9.8483,-0.5365,0.5565,3.7565,-0.2783
310,0.4598,-9.7717,-0.5748,0.9043,3.5478,-0.2783
315,0.5748,-9.7717,-0.6514,1.3217,3.3391,-0.2783
320,0.5748,-9.695,-0.6131,1.6,3.4087,-0.2087
325,0.5748,-9.695,-0.6898,1.8783,3.5478,-0.2087
330,0.5748,-9.7334,-0.4982,2.2261,3.687,-0.1391
335,0.6131,-9.695,-0.5365,2.3652,3.8261,0.0
340,0.5365,-9.695,-0.5748,2.4348,3.8957,-0.0696
345,0.4982,-9.6567,-0.4598,2.3652,4.2435,0.0
350,0.4215,-9.6567,-0.4598,2.0174,4.313,0.0696
355,0.5365,-9.6567,-0.4982,1.7391,4.3826,0.1391
360,0.5365,-9.5801,-0.5365,1.3217,4.313,0.0696
365,0.6131,-9.7334,-0.5748,0.8348,4.3826,0.2783
370,0.5365,-9.6184,-0.6131,0.5565,4.4522,0.1391
375,0.5365,-9.7334,-0.5748,0.2783,4.5217,0.2783
380,0.5365,-9.7717,-0.1916,0.0696,4.6609,0.3478
385,0.4215,-9.7334,-0.4982,-0.1391,4.8,0.3478
390,0.4982,-9.695,-0.4598,-0.2783,4.9391,0.2087
395,0.5748,-9.7717,-0.5748,-0.4174,5.0087,0.2783
400,0.4982,-9.6567,-0.4215,-0.487,4.9391,0.2087
405,0.4598,-9.8866,-0.4215,-0.487,4.8696,0.2783
410,0.4982,-9.8866,-0.4598,-0.2783,4.8,0.2087
415,0.5748,-9.925,-0.4982,0.0,4.6609,0.2783
420,0.4598,-9.9633,-0.6131,0.2087,4.4522,0.1391
425,0.4982,-9.925,-0.6898,0.6261,4.3826,0.1391
430,0.5748,-9.925,-0.7281,0.8348,4.313,-0.2087
435,0.5365,-10.0016,-0.7664,1.0435,4.313,-0.2783
440,0.6131,-9.8866,-0.6898,1.2522,4.3826,-0.6261
445,0.6131,-9.9633,-0.8047,1.3913,4.5217,-0.6957
450,0.6514,-9.925,-0.7281,1.5304,4.5913,-0.8348
455,0.5365,-9.925,-0.4982,1.7391,4.5217,-0.6261
460,0.5365,-9.925,-0.6898,2.1565,4.5217,-0.6957
465,0.5365,-9.925,-0.6514,2.4348,4.4522,-0.4174
470,0.4982,-9.925,-0.4215,2.8522,4.3826,-0.4174
475,0.4598,-9.925,-0.4215,3.2696,4.2435,-0.2087
480,0.4215,-9.7717,-0.6131,3.6174,4.1739,-0.2783
485,0.5365,-9.925,-0.4215,3.7565,4.313,0.0696
490,0.4982,-9.8866,-0.4215,3.8261,4.313,-0.1391
495,0.5748,-9.6567,-0.3832,3.687,4.4522,0.0696
500,0.5365,-9.695,-0.4598,3.4087,4.5217,0.0
505,0.4982,-9.695,-0.3449,3.0609,4.6609,0.0
510,0.4982,-9.7334,-0.4598,2.7826,4.7304,-0.1391
515,0.4598,-9.7717,-0.4982,2.713,4.8,-0.0696
520,0.6131,-9.7334,-0.4598,2.5043,4.8,-0.2087
525,0.5748,-9.6567,-0.4215,2.2957,4.9391,-0.2087
530,0.6131,-9.5801,-0.4215,2.1565,4.8696,-0.487
535,0.5748,-9.6567,-0.5365,1.8783,4.8,-0.3478
540,0.4982,-9.6184,-0.5365,1.7391,4.8696,-0.487
545,0.6514,-9.695,-0.4982,1.6,4.7304,-0.2087
550,0.5748,-9.7334,-0.4215,1.4609,4.8,-0.3478
555,0.5748,-9.81,-0.3832,1.3913,4.7304,-0.1391
560,0.4982,-9.7717,-0.5365,1.3217,4.7304,-0.2087
565,0.6514,-9.81,-0.3066,1.1826,4.5217,0.0696
570,0.5365,-9.7717,-0.3832,1.113,4.3826,-0.0696
575,0.4982,-9.6567,-0.5365,1.1826,4.1739,0.2783
580,0.5365,-9.8483,-0.4215,1.1826,3.8261,0.0696
585,0.4982,-9.81,-0.5365,1.1826,3.6174,0.3478
590,0.5365,-9.7334,-0.4982,1.2522,3.4783,0.2087
595,0.5365,-9.8866,-0.5365,1.3913,3.3391,0.4174
600,0.5748,-9.81,-0.4982,1.6,3.4087,0.3478
605,0.6131,-9.8866,-0.5365,1.7391,3.4087,0.487
610,0.4982,-9.7334,-0.4215,1.7391,3.687,0.2087
615,0.5365,-9.8483,-0.3449,1.7391,3.7565,0.5565
620,0.4598,-9.7334,-0.4598,1.8087,3.8261,0.2783
625,0.5748,-9.8483,-0.4215,1.7391,3.8261,0.4174
630,0.4982,-9.81,-0.3832,1.7391,3.8261,0.2087
635,0.6131,-9.7717,-0.3832,1.6,3.8957,0.2087
640,0.5748,-9.8483,-0.3449,1.5304,3.7565,0.0
645,0.4982,-9.695,-0.3449,1.2522,3.687,0.0
650,0.5748,-9.7334,-0.2299,1.0435,3.6174,-0.2783
655,0.5748,-9.695,-0.4215,0.9043,3.4783,-0.2087
660,0.4982,-9.8866,-0.3832,0.5565,3.4783,-0.3478
665,0.4215,-9.695,-0.2682,0.2783,3.4087,-0.2087
670,0.4982,-9.7334,-0.3066,0.1391,3.1304,-0.2783
675,0.4598,-9.7717,-0.2299,0.0,2.713,-0.0696
680,0.5365,-9.81,-0.3066,0.0,2.4348,-0.0696
685,0.5365,-9.8483,-0.4598,0.2087,2.1565,0.3478
690,0.4982,-9.925,-0.4215,0.4174,2.0174,0.3478
695,0.5365,-9.8483,-0.5365,0.7652,2.0174,0.6957
700,0.5748,-9.7717,-0.5365,1.1826,2.0174,0.7652
705,0.7281,-9.8483,-0.4598,1.4609,2.1565,1.1826
710,0.5748,-9.8483,-0.4982,1.5304,2.2957,1.1826
715,0.6131,-9.81,-0.4982,1.5304,2.5043,1.4609
720,0.6131,-9.8483,-0.4598,1.7391,2.5043,1.3913
725,0.5748,-9.81,-0.3832,1.9478,2.713,1.5304
730,0.5365,-9.7717,-0.3066,2.2957,2.9217,1.3217
735,0.4598,-9.7717,-0.3832,2.713,2.9913,1.2522
740,0.6131,-9.695,-0.4598,3.0609,3.0609,0.9043
745,0.5365,-9.7717,-0.2299,3.2696,3.4087,0.9739
750,0.5365,-9.8483,-0.3449,3.3391,3.5478,0.6957
755,0.4598,-9.695,-0.3449,3.1304,3.7565,0.7652
760,0.3832,-9.6184,-0.1916,2.9217,4.0348,0.6261
765,0.5748,-9.7717,-0.3066,2.6435,4.2435,0.6957
770,0.3066,-9.6567,-0.3066,2.3652,4.313,0.487
775,0.3449,-9.5801,-0.3449,2.1565,4.4522,0.487
780,0.3449,-9.6567,-0.3832,1.8087,4.6609,0.3478
785,0.4215,-9.695,-0.2682,1.5304,4.7304,0.4174
790,0.3832,-9.7334,-0.3832,1.2522,4.8,0.3478
795,0.3832,-9.8483,-0.3449,1.113,4.8696,0.4174
800,0.4598,-9.8483,-0.3832,0.9739,4.9391,0.2087
805,0.3832,-9.7334,-0.3066,0.8348,4.8696,0.2783
810,0.3449,-9.695,-0.4598,0.6261,4.7304,0.0696
815,0.4598,-9.7334,-0.3832,0.487,4.5217,0.1391
820,0.4982,-9.6567,-0.2682,0.2783,4.5217,0.0
825,0.5365,-9.7334,-0.2682,0.2087,4.3826,0.1391
830,0.4598,-9.81,-0.4982,0.2087,4.313,0.0696
835,0.4982,-9.7717,-0.3832,0.2087,4.2435,0.2087
840,0.3832,-9.695,-0.3832,0.2087,4.2435,0.2087
845,0.4982,-9.7334,-0.3449,0.1391,4.1739,0.1391
850,0.6131,-9.8483,-0.3832,0.1391,4.1739,0.0
855,0.5748,-9.8483,-0.3066,0.1391,4.1043,0.0
860,0.5748,-9.8483,-0.4215,0.0,4.1739,-0.1391
865,0.5748,-9.8866,-0.3832,-0.1391,4.1739,-0.2087
870,0.4982,-9.8483,-0.2682,-0.2087,4.1739,-0.3478
875,0.4598,-9.7717,-0.3066,0.0,4.1739,-0.2783
880,0.5365,-9.81,-0.3832,0.1391,4.1739,-0.2783
885,0.4982,-9.925,-0.3449,0.2087,4.1739,-0.2783
890,0.4598,-9.7717,-0.2682,0.4174,4.1043,-0.2783
895,0.7664,-9.695,-0.4215,0.487,4.1043,-0.2087
900,0.8047,-9.81,0.0383,0.6957,4.2435,-0.2783
905,0.9963,-9.81,0.0383,0.8348,4.313,-0.2783
910,0.7281,-9.81,0.5748,0.9739,4.2435,-0.5565
915,0.5748,-9.5801,-0.7281,0.9043,4.313,-0.487
920,0.7664,-9.7334,-0.3832,0.8348,4.3826,-0.487
925,0.6898,-9.7717,-0.5365,0.8348,4.313,-0.5565
930,0.4982,-9.695,-0.2682,0.7652,4.3826,-0.5565
935,0.4598,-9.6567,-0.2682,0.5565,4.4522,-0.5565
940,0.4598,-9.7334,-0.3449,0.3478,4.5217,-0.3478
945,0.4982,-9.7717,-0.1533,0.2087,4.3826,-0.2783
950,0.5748,-9.8866,-0.115,0.0696,4.4522,-0.0696
955,0.4598,-9.695,-0.3066,-0.0696,4.4522,-0.1391
960,0.5365,-9.695,-0.1533,-0.2087,4.313,-0.1391
965,0.5748,-9.8483,-0.3832,-0.2783,4.1739,0.0
970,0.6131,-9.7717,-0.3066,-0.2087,3.9652,0.0696
975,0.5365,-9.8866,-0.3832,0.0696,3.8261,0.0
980,0.6131,-9.81,-0.2299,0.2087,3.687,0.0696
985,0.6131,-9.81,-0.4215,0.2783,3.6174,0.0
990,0.6514,-9.81,-0.4215,0.2087,3.6174,-0.0696
995,0.5748,-9.7334,-0.3449,-0.1391,3.6174,-0.0696
1000,0.5365,-9.7717,-0.3066,-0.4174,3.6174,-0.1391
1005,0.4982,-9.7717,-0.3066,-0.5565,3.687,-0.2087
1010,0.4982,-9.7717,-0.4598,-0.8348,3.687,-0.2087
1015,0.5365,-9.7717,-0.2682,-0.7652,3.6174,-0.2783
1020,0.4598,-9.7717,-0.3449,-0.7652,3.687,-0.1391
1025,0.4215,-9.7717,-0.3066,-0.6261,3.8261,-0.2783
1030,0.2682,-9.7717,-0.3066,-0.5565,3.9652,-0.2783
1035,0.4215,-9.81,-0.3066,-0.2783,4.1043,-0.3478
1040,0.4982,-9.7334,-0.2682,-0.2087,4.2435,-0.1391
1045,0.4215,-9.7334,-0.1533,-0.2783,4.313,-0.2783
1050,0.4598,-9.7717,-0.2299,-0.3478,4.5217,-0.1391
1055,0.4982,-9.7334,-0.1533,-0.2783,4.5913,-0.2087
1060,0.4598,-9.7717,-0.2682,-0.3478,4.5913,-0.2087
1065,0.6514,-9.7334,-0.4598,-0.2087,4.6609,-0.3478
1070,0.5748,-9.8483,-0.3066,-0.2087,4.6609,-0.2087
1075,0.5748,-9.81,-0.4215,-0.2783,4.7304,-0.4174
1080,0.5365,-9.695,-0.2682,-0.2783,4.8,-0.2087
1085,0.5365,-9.6567,-0.2299,-0.3478,4.7304,-0.2783
1090,0.4982,-9.695,-0.3449,-0.487,4.6609,-0.0696
1095,0.5748,-9.7334,-0.3449,-0.5565,4.5913,-0.2087
1100,0.5365,-9.8483,-0.3066,-0.5565,4.5217,-0.2087
1105,0.6131,-9.7334,-0.4215,-0.6261,4.4522,-0.4174
1110,0.5748,-9.7717,-0.2682,-0.5565,4.1739,-0.2783
1115,0.5748,-9.8483,-0.4215,-0.487,4.0348,-0.487
1120,0.5365,-9.7717,-0.4215,-0.3478,3.8957,-0.2783
1125,0.6131,-9.6567,-0.4215,-0.3478,3.8261,-0.4174
1130,0.5365,-9.7717,-0.3449,-0.2783,3.8261,-0.2087
1135,0.4598,-9.7334,-0.3449,-0.3478,3.9652,-0.2783
1140,0.5748,-9.81,-0.0766,-0.4174,3.8957,-0.0696
1145,0.4598,-9.695,-0.3066,-0.4174,4.0348,-0.0696
1150,0.4982,-9.7717,-0.2682,-0.4174,3.9652,0.0696
1155,0.5365,-9.8483,-0.4598,-0.3478,4.2435,-0.0696
1160,0.4982,-9.8483,-0.3066,-0.4174,4.313,0.1391
1165,0.4598,-9.81,-0.3449,-0.3478,4.4522,0.0
1170,0.4598,-9.7334,-0.2299,-0.3478,4.5913,0.0696
1175,0.4982,-9.7717,-0.3449,-0.3478,4.8696,0.0
1180,0.4982,-9.7334,-0.2682,-0.3478,4.8696,0.1391
1185,0.4598,-9.81,-0.2682,-0.487,4.9391,-0.0696
1190,0.5365,-9.8866,-0.2682,-0.4174,5.0783,0.0696
1195,0.5365,-9.8866,-0.4215,-0.5565,5.2174,-0.1391
1200,0.4982,-9.7334,-0.3066,-0.6261,5.2174,-0.0696
1205,0.5365,-9.695,-0.2682,-0.6957,5.1478,-0.2783
1210,0.5365,-9.695,-0.3066,-0.7652,5.1478,-0.1391
1215,0.4215,-9.7334,-0.2299,-0.7652,5.0087,-0.3478
1220,0.3066,-9.695,-0.2682,-0.8348,4.8696,-0.2087
1225,0.4215,-9.7717,-0.2299,-0.6957,4.8,-0.3478
1230,0.5748,-9.7717,-0.2299,-0.5565,4.6609,-0.1391
1235,0.4215,-9.7334,-0.115,-0.3478,4.5217,-0.3478
1240,0.4215,-9.7334,-0.3066,-0.2783,4.313,-0.0696
1245,0.4215,-9.7717,-0.2299,-0.1391,4.2435,-0.2783
1250,0.4982,-9.7334,-0.3066,-0.2087,4.313,-0.0696
1255,0.5365,-9.81,-0.3066,-0.3478,4.1739,-0.2087
1260,0.4598,-9.695,-0.3832,-0.4174,4.1739,0.0696
1265,0.4982,-9.7717,-0.3832,-0.6261,4.313,0.0
1270,0.4982,-9.7717,-0.3449,-0.8348,4.2435,0.0
1275,0.6514,-9.8866,-0.4598,-0.9739,4.2435,-0.1391
1280,0.5365,-9.81,-0.3066,-1.1826,4.1739,0.0696
1285,0.4598,-9.8483,-0.3066,-1.3217,4.313,-0.0696
1290,0.5365,-9.7717,-0.2682,-1.4609,4.1739,0.0696
1295,0.4598,-9.81,-0.3449,-1.6,4.1043,-0.1391
1300,0.4215,-9.81,-0.3449,-1.5304,4.1043,0.0696
1305,0.5365,-9.81,-0.1916,-1.5304,3.9652,-0.0696
1310,0.3832,-9.6567,-0.1916,-1.4609,4.0348,0.0
1315,0.4598,-9.7334,-0.4982,-1.3913,4.0348,-0.2087
1320,0.4598,-9.7717,-0.3066,-1.3913,3.9652,-0.1391
1325,0.4598,-9.7717,-0.3066,-1.5304,4.0348,-0.1391
1330,0.5365,-9.8866,-0.3066,-1.6,4.1043,0.0
1335,0.4982,-9.8483,-0.2299,-1.5304,4.2435,-0.0696
1340,0.6131,-9.7717,-0.1533,-1.3217,4.2435,0.2087
1345,0.5365,-9.7717,-0.2682,-1.2522,4.4522,0.0
1350,0.5748,-9.8866,-0.2682,-1.2522,4.5913,0.2087
1355,0.5365,-9.925,-0.3832,-0.9739,4.7304,0.0696
1360,0.4598,-9.81,-0.2299,-0.7652,4.8696,0.2087
1365,0.5365,-9.925,-0.3832,-0.7652,5.0087,0.0696
1370,0.5365,-9.81,-0.3066,-0.6261,5.0087,0.2087
1375,0.7281,-9.7717,-0.3832,-0.5565,5.0783,0.0
1380,0.6131,-9.8866,-0.3832,-0.4174,5.0783,0.0
1385,0.4982,-9.81,-0.1916,-0.4174,5.0087,0.0
1390,0.5365,-9.7334,-0.3449,-0.487,4.8,0.1391
1395,0.4982,-9.7717,-0.2299,-0.5565,4.5913,-0.2087
1400,0.4598,-9.81,-0.2682,-0.5565,4.4522,-0.0696
1405,0.4982,-9.81,-0.3066,-0.6261,4.313,-0.2783
1410,0.4982,-9.7334,-0.2299,-0.6261,4.1739,-0.0696
1415,0.4982,-9.7717,-0.3449,-0.6957,4.1043,-0.2783
1420,0.4982,-9.81,-0.2299,-0.7652,4.0348,-0.2087
1425,0.4215,-9.695,-0.3066,-0.9043,4.1043,-0.2087
1430,0.5365,-9.7717,-0.3066,-1.0435,4.1043,-0.2087
1435,0.4598,-9.7717,-0.3066,-1.113,4.1043,-0.1391
1440,0.4215,-9.7334,-0.3066,-1.113,4.1739,0.0
1445,0.5365,-9.8483,-0.3449,-1.0435,4.1043,-0.0696
1450,0.4598,-9.8483,-0.2299,-0.9739,4.1739,0.1391
1455,0.4598,-9.7717,-0.1533,-0.8348,4.1739,0.0696
1460,0.4215,-9.7334,-0.2299,-0.6957,4.2435,0.2087
1465,0.5365,-9.695,-0.2682,-0.6261,4.1739,0.2087
1470,0.5748,-9.7717,-0.1916,-0.487,4.1739,0.2087
1475,0.5365,-9.7717,-0.3066,-0.6261,4.2435,0.0696
1480,0.4598,-9.7717,-0.2299,-0.6957,4.313,0.2087
1485,0.4982,-9.695,-0.2682,-1.113,4.313,0.0696
1490,0.5365,-9.81,-0.2299,-1.2522,4.4522,0.1391
1495,0.4982,-9.8483,-0.1533,-1.6,4.313,0.0696
1500,0.4598,-9.7334,-0.2682,-1.8087,4.313,0.0696
1505,0.4598,-9.695,-0.3449,-1.9478,4.3826,0.0
1510,0.4598,-9.81,-0.2299,-2.087,4.313,0.0
1515,0.4598,-9.8483,-0.4215,-2.2261,4.313,-0.0696
1520,0.4598,-9.925,-0.1916,-2.2261,4.2435,-0.0696
1525,0.6131,-9.8483,-0.4598,-2.0174,4.1739,0.0
1530,0.5365,-9.7717,-0.3449,-1.8087,4.1043,-0.1391
1535,0.5748,-9.8483,-0.4215,-1.6,4.1043,-0.1391
1540,0.5365,-9.925,-0.3449,-1.3913,4.1043,0.0
1545,0.5748,-9.8483,-0.2682,-1.3913,4.1043,-0.0696
1550,0.4982,-9.7717,-0.4982,-1.3217,4.1043,0.0696
1555,0.5748,-9.81,-0.4215,-1.3217,4.1043,0.0696
1560,0.4982,-9.7717,-0.3066,-1.113,4.0348,0.0696
1565,0.4982,-9.81,-0.3832,-0.9043,3.8957,-0.0696
1570,0.4982,-9.7717,-0.3832,-0.7652,3.9652,-0.0696
1575,0.4598,-9.7717,-0.3832,-0.487,3.8957,-0.0696
1580,0.4215,-9.7334,-0.4215,-0.3478,3.9652,-0.0696
1585,0.4215,-9.7717,-0.2682,-0.0696,4.1043,0.0
1590,0.3832,-9.695,-0.3832,0.0696,4.2435,0.0
1595,0.3832,-9.81,-0.2682,0.487,4.313,0.0
1600,0.3449,-9.81,-0.1916,0.6957,4.5913,0.0696
1605,0.3449,-9.7717,-0.2682,0.8348,4.8,0.0696
1610,0.3832,-9.81,-0.1533,0.8348,4.8,-0.0696
1615,0.4215,-9.8483,-0.3066,0.6957,4.8,0.0
1620,0.4215,-9.695,-0.3066,0.4174,4.9391,-0.1391
1625,0.4982,-9.695,-0.2682,0.2087,4.9391,-0.0696
1630,0.4598,-9.695,-0.3066,0.0696,5.0087,-0.0696
1635,0.4215,-9.8483,-0.3066,-0.1391,4.9391,0.0696
1640,0.4982,-9.695,-0.3066,-0.3478,4.9391,-0.1391
1645,0.4598,-9.7334,-0.2682,-0.487,4.7304,-0.0696
1650,0.4982,-9.7717,-0.2299,-0.6261,4.6609,-0.2087
1655,0.4982,-9.695,-0.3832,-0.8348,4.4522,-0.2087
1660,0.5365,-9.6567,-0.3832,-0.9043,4.4522,-0.2783
1665,0.3832,-9.6567,-0.3066,-1.113,4.313,-0.2087
1670,0.4982,-9.8483,-0.2299,-1.1826,4.313,-0.3478
1675,0.4598,-9.7334,-0.1916,-1.113,4.2435,-0.2783
1680,0.4982,-9.695,-0.2299,-1.0435,4.1043,-0.4174
1685,0.5748,-9.7717,-0.3449,-0.9739,4.1043,-0.2087
1690,0.6131,-9.7717,-0.2682,-0.9043,4.1043,-0.3478
1695,0.4215,-9.7334,-0.4598,-0.6957,4.1739,-0.1391
1700,0.4982,-9.7717,-0.1916,-0.4174,4.2435,-0.2783
1705,0.4982,-9.81,-0.2682,-0.2783,4.1739,-0.2087
1710,0.4598,-9.8483,-0.2682,-0.0696,4.2435,-0.2087
1715,0.6131,-9.8866,-0.1916,0.0,4.313,-0.0696
1720,0.4598,-9.7717,-0.2682,0.2087,4.3826,-0.0696
1725,0.5365,-9.8483,-0.2299,0.2783,4.3826,0.0696
1730,0.5365,-9.8483,-0.3066,0.3478,4.3826,0.0
1735,0.5365,-9.7334,-0.115,0.2783,4.4522,0.1391
1740,0.4982,-9.81,-0.2299,0.2783,4.3826,0.0696
1745,0.5365,-9.7334,-0.2299,0.2783,4.313,0.2087
1750,0.4215,-9.695,-0.3066,0.2783,4.2435,0.0
1755,0.4982,-9.695,-0.2299,0.2783,4.3826,0.2783
1760,0.6131,-9.695,-0.1533,0.3478,4.3826,0.0696
1765,0.5748,-9.7334,-0.3066,0.2087,4.3826,0.2087
1770,0.3832,-9.8483,-0.2299,0.0696,4.3826,0.0696
1775,0.5365,-9.7717,-0.2682,-0.0696,4.5217,0.1391
1780,0.4982,-9.7717,-0.0766,0.0,4.5217,-0.0696
1785,0.4215,-9.695,-0.3066,0.0,4.5913,0.2087
1790,0.4982,-9.7717,-0.2682,0.0,4.5217,0.0696
1795,0.4598,-9.7334,-0.2682,-0.2087,4.6609,0.2087
1800,0.5748,-9.7334,-0.1916,-0.2783,4.6609,0.2087
1805,0.4598,-9.6184,-0.1916,-0.4174,4.5913,0.2087
1810,0.4598,-9.6567,-0.2299,-0.5565,4.4522,-0.0696
1815,0.5365,-9.6567,-0.3832,-0.5565,4.5217,-0.0696
1820,0.4982,-9.7334,-0.2682,-0.7652,4.313,-0.1391
1825,0.5748,-9.6567,-0.3449,-0.9739,4.1043,0.0
1830,0.4598,-9.6184,-0.1533,-1.2522,3.9652,-0.2087
1835,0.5365,-9.695,-0.1916,-1.4609,3.8957,-0.0696
1840,0.4598,-9.6184,-0.1916,-1.7391,3.687,-0.2087
1845,0.4982,-9.7334,-0.2299,-1.8087,3.4087,-0.0696
1850,0.5748,-9.8483,-0.4215,-1.8783,3.3391,-0.1391
1855,0.5748,-9.81,-0.2682,-1.7391,3.1304,0.0
1860,0.4598,-9.8866,-0.2682,-1.6696,3.0609,0.0
1865,0.5365,-9.81,-0.3449,-1.6,3.0609,0.2087
1870,0.6131,-9.8866,-0.2299,-1.4609,3.1304,0.2087
1875,0.5748,-9.925,-0.4982,-1.3217,3.0609,0.3478
1880,0.4982,-9.81,-0.2682,-1.3217,3.4087,0.2783
1885,0.5365,-9.925,-0.2682,-1.2522,3.6174,0.487
1890,0.4598,-9.81,-0.2299,-1.1826,3.7565,0.3478
1895,0.4598,-9.8483,-0.3832,-1.0435,4.1043,0.4174
1900,0.4982,-9.925,-0.3832,-0.8348,4.313,0.2783
1905,0.3449,-9.8483,-0.3832,-0.4174,4.7304,0.3478
1910,0.4982,-9.8866,-0.3066,-0.3478,4.9391,0.0696
1915,0.4215,-9.8483,-0.1916,-0.1391,5.1478,0.1391
1920,0.4598,-9.925,-0.3066,0.0696,5.3565,-0.1391
1925,0.4215,-9.7717,-0.3449,0.1391,5.3565,-0.0696
1930,0.4598,-9.7717,-0.2299,0.4174,5.2174,-0.3478
1935,0.4215,-9.695,-0.2682,0.6261,5.0783,-0.3478
1940,0.4215,-9.7717,-0.1533,0.6957,5.0087,-0.5565
1945,0.4598,-9.81,-0.1533,0.7652,4.8696,-0.3478
1950,0.4215,-9.8483,-0.2682,0.9043,4.5217,-0.5565
1955,0.4215,-9.8483,-0.2299,1.0435,4.5217,-0.4174
1960,0.3832,-9.6567,-0.3449,0.9739,4.1739,-0.5565
1965,0.3832,-9.81,-0.2682,1.0435,3.8957,-0.3478
1970,0.3832,-9.8866,-0.0766,1.1826,3.687,-0.487
1975,0.4215,-9.8483,-0.1916,1.3217,3.5478,-0.2087
1980,0.5365,-9.7717,-0.3449,1.3217,3.3391,-0.2783
1985,0.4215,-9.8483,-0.1533,1.4609,3.2,-0.0696
1990,0.5748,-9.8483,-0.4215,1.4609,3.2,-0.0696
1995,0.5748,-9.8483,-0.3066,1.5304,3.3391,0.2087
2000,0.4598,-9.8866,-0.2299,1.4609,3.4783,0.2783
2005,0.4982,-9.8866,-0.3066,1.5304,3.4783,0.487
2010,0.5365,-9.81,-0.2682,1.6696,3.6174,0.4174
2015,0.5365,-9.81,-0.2299,1.8087,3.9652,0.5565
2020,0.4215,-9.7717,-0.3832,2.0174,4.0348,0.4174
2025,0.3449,-9.7717,-0.3449,2.2957,3.9652,0.4174
2030,0.4215,-9.81,-0.1533,2.5043,4.1739,0.1391
2035,0.3449,-9.7334,-0.2299,2.6435,4.4522,0.0696
2040,0.3449,-9.695,-0.3832,2.7826,4.3826,-0.1391
2045,0.4598,-9.6567,-0.3449,2.9217,4.5217,-0.1391
2050,0.3832,-9.695,-0.1533,2.9217,4.6609,-0.2783
2055,0.4215,-9.695,-0.2299,2.7826,4.7304,-0.2087
2060,0.3832,-9.6184,-0.115,2.5739,4.7304,-0.487
2065,0.4215,-9.695,-0.1533,2.3652,4.6609,-0.3478
2070,0.4982,-9.6184,-0.1533,2.1565,4.5913,-0.487
2075,0.3832,-9.695,-0.1533,1.8087,4.5217,-0.3478
2080,0.4598,-9.6567,-0.1533,1.6,4.3826,-0.5565
2085,0.4598,-9.7334,-0.0766,1.3913,4.0348,-0.2783
2090,0.4982,-9.6184,-0.3066,1.1826,3.8261,-0.2783
2095,0.5365,-9.695,0.0383,0.7652,3.5478,-0.1391
2100,0.5365,-9.695,0.0383,0.4174,3.4783,-0.2087
2105,0.5748,-9.7717,-0.1916,0.1391,3.2696,0.0
2110,0.6131,-9.7334,-0.1916,-0.1391,3.1304,-0.0696
2115,0.5365,-9.7717,-0.2299,-0.2087,2.9913,0.1391
2120,0.5748,-9.7334,-0.4215,-0.1391,2.8522,0.0696
2125,0.4982,-9.7334,-0.3066,0.0,2.7826,0.0696
2130,0.4982,-9.81,-0.2299,0.2087,2.7826,0.0
2135,0.5365,-9.8866,-0.1533,0.5565,2.713,0.2087
2140,0.6131,-9.925,-0.2299,0.7652,2.8522,0.1391
2145,0.4982,-9.8483,-0.3449,0.9739,2.9217,0.2783
2150,0.5748,-9.925,-0.2682,1.6696,2.9913,0.2087
2155,0.5748,-9.8483,-0.1916,1.9478,3.2,0.1391
2160,0.4598,-9.8866,-0.0766,2.2957,3.4087,0.0696
2165,0.4982,-9.81,-0.115,2.6435,3.6174,0.0696
2170,0.4215,-9.81,-0.0383,2.9217,3.9652,-0.0696
2175,0.4215,-9.7334,-0.2682,3.1304,4.2435,-0.0696
2180,0.4598,-9.7717,-0.115,3.2,4.5913,-0.1391
2185,0.5748,-9.7717,-0.0383,3.2696,4.6609,-0.1391
2190,0.4215,-9.5801,-0.0383,2.9913,4.8,-0.1391
2195,0.4598,-9.6184,0.0,2.6435,4.8,-0.0696
2200,0.5748,-9.6567,-0.1916,2.1565,4.8,-0.1391
2205,0.4982,-9.5034,-0.0383,1.5304,4.6609,0.0
2210,0.4598,-9.6184,-0.0383,0.9043,4.6609,0.0
2215,0.4982,-9.6184,-0.2299,0.2783,4.7304,0.0696
2220,0.4982,-9.6567,-0.0766,-0.2087,4.6609,0.2087
2225,0.4598,-9.5418,-0.115,-0.6261,4.6609,0.2087
2230,0.4982,-9.6567,-0.1533,-1.0435,4.5913,0.1391
2235,0.4215,-9.5801,-0.1533,-1.4609,4.2435,0.2783
2240,0.5365,-9.6567,-0.1916,-1.9478,4.0348,0.2783
2245,0.5748,-9.6567,-0.115,-2.2261,3.8261,0.2783
2250,0.4982,-9.7717,-0.1533,-2.4348,3.6174,0.3478
2255,0.4982,-9.8483,-0.1533,-2.5043,3.4783,0.487
2260,0.4982,-9.8483,-0.2299,-2.4348,3.4087,0.487
2265,0.4598,-9.81,0.0,-2.3652,3.3391,0.487
2270,0.4982,-9.8866,-0.2299,-2.1565,3.2,0.6261
2275,0.5748,-9.81,-0.115,-1.9478,3.1304,0.5565
2280,0.4598,-9.925,-0.3066,-1.8783,3.1304,0.7652
2285,0.4982,-9.8866,-0.2299,-1.7391,3.2,0.6957
2290,0.4598,-9.81,-0.1916,-1.3217,3.2,0.6957
2295,0.5365,-9.9633,0.0,-1.113,3.2,0.6957
2300,0.3832,-9.8866,-0.115,-0.7652,3.3391,0.6957
2305,0.3449,-9.925,-0.1916,-0.487,3.2,0.6957
2310,0.3449,-9.8866,-0.2299,-0.2783,3.2696,0.7652
2315,0.4982,-9.8866,-0.1533,0.0,3.2696,0.6261
2320,0.3832,-9.7717,-0.2299,0.3478,3.3391,0.6261
2325,0.4215,-9.7717,-0.0766,0.3478,3.3391,0.5565
2330,0.3832,-9.81,-0.0383,0.6957,3.4087,0.6261
2335,0.4215,-9.6567,-0.2299,0.9739,3.5478,0.5565
2340,0.3832,-9.695,-0.1533,1.0435,3.6174,0.6957
2345,0.4215,-9.7334,-0.0383,1.0435,3.8261,0.487
2350,0.4598,-9.695,-0.0766,1.0435,3.8261,0.5565
2355,0.4215,-9.7334,0.115,1.0435,4.0348,0.4174
2360,0.3832,-9.7334,-0.0383,0.9043,4.1043,0.4174
2365,0.3832,-9.6567,-0.1916,0.6957,4.1739,0.4174
2370,0.3066,-9.7717,-0.0766,0.487,4.2435,0.487
2375,0.4982,-9.7717,0.0383,0.2783,4.2435,0.3478
2380,0.4982,-9.7717,-0.1533,0.0,4.2435,0.3478
2385,0.4982,-9.695,-0.1533,-0.2087,4.2435,0.0696
2390,0.4215,-9.7334,-0.1916,-0.1391,4.2435,0.2783
2395,0.4215,-9.695,0.0,-0.487,4.2435,0.1391
2400,0.4598,-9.695,-0.0766,-0.6261,4.1043,0.1391
2405,0.5365,-9.695,-0.1533,-0.6261,3.9652,0.0
2410,0.3832,-9.81,0.0,-0.6261,3.9652,0.2087
2415,0.4215,-9.7717,-0.0766,-0.7652,3.8261,0.0696
2420,0.3449,-9.695,-0.1533,-0.6261,3.8957,0.3478
2425,0.4598,-9.7717,-0.1533,-0.487,3.8957,0.1391
2430,0.4215,-9.8866,0.0,-0.487,3.9652,0.2783
2435,0.4215,-9.7717,-0.0766,-0.4174,4.0348,0.0696
2440,0.4598,-9.81,-0.1533,-0.4174,4.1739,0.2783
2445,0.4982,-9.7334,-0.1916,-0.2783,4.2435,0.1391
2450,0.4215,-9.7717,-0.115,-0.3478,4.2435,0.3478
2455,0.3832,-9.7717,-0.1533,-0.3478,4.2435,0.2087
2460,0.4215,-9.7334,-0.0383,-0.487,4.2435,0.2087
2465,0.4598,-9.7717,-0.2299,-0.6261,4.2435,0.0
2470,0.4598,-9.7717,-0.115,-0.6957,4.2435,0.1391
2475,0.5365,-9.7717,-0.0383,-0.8348,4.2435,-0.0696
2480,0.4215,-9.7717,-0.2299,-0.9739,4.2435,-0.0696
2485,0.4598,-9.7717,-0.0766,-0.9739,4.3826,-0.2783
2490,0.3832,-9.81,-0.0383,-0.8348,4.3826,-0.0696
2495,0.4598,-9.8483,-0.1533,-0.6957,4.4522,-0.3478
2500,0.3832,-9.81,-0.115,-0.4174,4.4522,-0.2087
2505,0.4215,-9.695,-0.115,-0.3478,4.5913,-0.3478
2510,0.4598,-9.7334,-0.2682,-0.2783,4.5913,0.0
2515,0.3449,-9.7334,-0.115,-0.2783,4.5913,-0.2087
2520,0.4215,-9.7717,-0.0383,-0.2783,4.4522,-0.0696
2525,0.3832,-9.7334,-0.2299,-0.2783,4.313,-0.0696
2530,0.4215,-9.8866,-0.0383,-0.2783,4.313,0.0
2535,0.4215,-9.81,-0.0766,-0.3478,4.2435,-0.0696
2540,0.3832,-9.7717,0.0,-0.487,4.1043,0.0696
2545,0.5365,-9.8483,-0.115,-0.5565,4.0348,-0.0696
2550,0.4598,-9.6184,-0.0766,-0.8348,3.9652,0.0
2555,0.3832,-9.7717,-0.115,-0.9739,3.9652,-0.1391
2560,0.4598,-9.7717,-0.115,-1.1826,3.7565,0.1391
2565,0.4982,-9.7717,-0.1916,-1.3217,3.8261,-0.0696
2570,0.6131,-9.81,-0.115,-1.5304,3.8261,0.0696
2575,0.4598,-9.695,-0.115,-1.6696,3.8957,-0.2087
2580,0.5748,-9.695,-0.0766,-1.7391,3.8957,-0.0696
2585,0.3449,-9.81,-0.0766,-1.8087,3.8957,-0.2783
2590,0.3449,-9.7334,-0.2299,-1.8087,4.0348,-0.2087
2595,0.4598,-9.8483,-0.115,-1.6696,4.1739,-0.3478
2600,0.4215,-9.7717,-0.2299,-1.5304,4.1043,-0.2087
2605,0.3449,-9.81,-0.0766,-1.2522,4.1739,-0.4174
2610,0.4215,-9.8483,-0.0766,-1.0435,4.1043,-0.2087
2615,0.3449,-9.81,-0.0383,-0.8348,4.313,-0.3478
2620,0.3449,-9.7717,-0.0766,-0.6261,4.4522,-0.2783
2625,0.3449,-9.81,-0.0766,-0.4174,4.5913,-0.487
2630,0.3066,-9.81,0.0383,-0.3478,4.6609,-0.3478
2635,0.3832,-9.7717,-0.0766,-0.3478,4.7304,-0.487
2640,0.4215,-9.7717,-0.0766,-0.2087,4.6609,-0.4174
2645,0.3832,-9.8483,-0.1533,-0.2087,4.5217,-0.487
2650,0.4215,-9.7334,-0.1533,-0.1391,4.3826,-0.2783
2655,0.4982,-9.81,-0.2299,-0.1391,4.5217,-0.5565
2660,0.5365,-9.8866,-0.2682,-0.3478,4.4522,-0.4174
2665,0.5748,-9.81,-0.1533,-0.6261,4.5217,-0.5565
2670,0.5365,-9.81,-0.1916,-0.6957,4.313,-0.487
2675,0.5748,-9.7717,-0.2682,-0.8348,4.2435,-0.7652
2680,0.4215,-9.7717,-0.2299,-0.9739,4.2435,-0.6957
2685,0.4598,-9.8483,-0.0383,-0.9043,4.1043,-0.7652
2690,0.4598,-9.695,-0.1533,-0.9739,3.9652,-0.6957
2695,0.3449,-9.6567,-0.0383,-0.9739,4.0348,-0.7652
2700,0.4215,-9.7334,-0.1916,-0.9043,3.9652,-0.6957
2705,0.3449,-9.7717,-0.0766,-0.7652,3.9652,-0.7652
2710,0.4215,-9.81,-0.115,-0.6957,4.0348,-0.7652
2715,0.4215,-9.8866,-0.0383,-0.6261,4.1043,-0.8348
2720,0.4982,-9.7717,-0.0383,-0.487,4.1739,-0.6957
2725,0.3832,-9.7717,-0.0766,-0.4174,4.2435,-0.8348
2730,0.4982,-9.695,-0.1916,-0.1391,4.313,-0.8348
2735,0.4598,-9.7334,-0.0766,0.0,4.4522,-0.9739
2740,0.3449,-9.8866,-0.2299,0.1391,4.3826,-0.9739
2745,0.3066,-9.7717,-0.2682,0.0696,4.5217,-1.113
2750,0.4215,-9.8483,0.0383,0.0,4.5913,-0.9739
2755,0.4215,-9.7717,-0.0766,-0.0696,4.5217,-1.0435
2760,0.4982,-9.8483,-0.115,-0.0696,4.5913,-0.7652
2765,0.3832,-9.7334,-0.115,0.0696,4.5217,-0.7652
2770,0.4215,-9.7717,0.0,0.2087,4.4522,-0.7652
2775,0.4598,-9.8483,-0.1916,0.2783,4.5217,-0.7652
2780,0.4215,-9.8866,-0.0766,0.487,4.5217,-0.7652
2785,0.5365,-9.81,-0.2299,0.6957,4.5217,-0.9043
2790,0.4215,-9.8483,-0.2299,0.9739,4.5913,-0.8348
2795,0.4982,-9.7717,-0.3066,1.3217,4.4522,-0.7652
2800,0.4598,-9.8483,-0.1533,1.6,4.5217,-0.5565
2805,0.5748,-9.81,-0.0383,1.7391,4.5217,-0.6261
2810,0.4982,-9.925,-0.0766,2.0174,4.5217,-0.4174
2815,0.5748,-9.8866,-0.1533,2.2957,4.6609,-0.3478
2820,0.4598,-9.81,-0.0766,2.5739,4.6609,-0.2783
2825,0.4982,-9.8866,0.0,2.9217,4.6609,-0.2087
2830,0.3832,-9.81,-0.0383,3.1304,4.5913,-0.0696
2835,0.4215,-9.81,-0.0766,3.2,4.3826,-0.0696
2840,0.4215,-9.695,-0.0383,3.2696,4.2435,-0.1391
2845,0.4215,-9.695,-0.1533,3.2,4.1739,-0.2087
2850,0.5748,-9.7334,-0.115,2.9913,4.1043,-0.4174
2855,0.5748,-9.8866,-0.115,2.8522,4.1043,-0.6261
2860,0.4598,-9.8866,0.0383,2.9913,4.1739,-0.8348
2865,0.4598,-10.0016,0.0383,3.2696,4.313,-1.0435
2870,0.4215,-10.2315,0.115,3.687,4.6609,-1.3913
2875,0.4215,-10.1932,0.115,4.0348,4.5217,-1.6696
2880,0.3449,-10.1166,0.115,4.2435,4.3826,-2.0174
2885,0.2299,-10.1166,0.3066,3.9652,4.4522,-1.9478
2890,0.1533,-9.925,0.3832,3.2,4.5913,-1.6696
2895,0.0766,-9.5418,0.5365,0.9739,4.6609,-1.1826
2900,0.1916,-9.4268,0.5748,-2.5739,4.5217,-0.487
2905,0.2299,-9.1586,0.4982,-6.6783,4.1739,0.1391
2910,0.115,-9.1586,0.3066,-11.7565,3.2,0.4174
2915,0.2682,-9.1586,0.3066,-18.087,1.4609,0.0
2920,0.3066,-9.1202,0.1533,-25.6,-0.8348,-1.113
2925,0.3066,-8.852,0.2682,-34.2957,-3.687,-2.713
2930,0.1916,-8.5071,0.2299,-44.6609,-7.2348,-4.3826
2935,0.4598,-8.2005,-0.3066,-56.0,-11.0609,-4.9391
2940,0.6514,-8.0473,-0.5365,-68.3826,-14.6087,-5.0783
2945,0.6131,-7.5491,-0.8814,-84.5217,-17.4609,-4.4522
2950,0.6898,-7.0893,-0.8047,-99.4087,-19.2,-3.6174
2955,0.6898,-6.4761,-1.1113,-116.1043,-20.4522,-2.2957
2960,0.6898,-6.3612,-1.5711,-132.8696,-21.7739,-0.8348
2965,0.7664,-6.3612,-2.0693,-148.313,-23.2348,1.1826
2970,0.843,-7.2425,-2.4142,-159.9304,-24.5565,3.8261
2975,1.0346,-8.6987,-2.7974,-164.1043,-25.2522,6.9565
2980,1.1113,-10.6914,-2.874,-157.7739,-24.9043,9.6
2985,1.1496,-12.4924,-2.4525,-139.8261,-23.3043,11.9652
2990,1.1496,-13.4888,-2.3375,-112.9739,-19.4087,13.9826
2995,0.8047,-13.872,-2.1076,-76.313,-14.9565,15.0261
