timestamp,accX,accY,accZ,gyroX,gyroY,gyroZ
0,-0.8047,-9.3118,-2.9123,4.1043,10.087,1.7391
5,-0.7281,-9.3502,-2.7207,3.4087,10.2957,1.8087
10,-0.7664,-9.2735,-2.874,2.6435,10.4348,1.8783
15,-0.8047,-9.3885,-2.9507,2.1565,10.5739,1.8783
20,-0.6131,-9.3502,-2.7591,1.8783,10.9217,1.8087
25,-0.6898,-9.4268,-2.7974,1.8087,11.2,1.6696
30,-0.8047,-9.3502,-2.7591,1.8087,11.4783,1.6
35,-0.843,-9.2352,-2.7591,1.6696,11.7565,1.5304
40,-0.8047,-9.2735,-2.9123,1.7391,11.8957,1.3913
45,-0.7664,-9.4268,-2.7974,1.9478,12.3826,1.113
50,-0.7664,-9.3502,-2.9507,2.2261,12.5217,1.0435
55,-0.7664,-9.4268,-2.7207,2.5739,12.8,0.9043
60,-0.8814,-9.2735,-2.7974,3.0609,13.2174,0.9043
65,-0.7281,-9.3118,-2.7974,3.4783,13.4261,1.113
70,-0.7281,-9.4268,-2.7591,3.8261,13.7739,1.2522
75,-0.6898,-9.2735,-2.7207,4.1043,13.9826,1.4609
80,-0.7664,-9.5034,-2.7207,4.0348,14.1913,1.6
85,-0.6514,-9.3118,-2.7974,3.8957,14.3304,1.9478
90,-0.843,-9.2352,-2.874,3.687,14.3304,2.087
95,-0.7664,-9.2352,-2.7974,3.3391,14.4,2.087
100,-0.7664,-9.4268,-2.7974,3.1304,14.3304,2.2261
105,-0.843,-9.3885,-2.7207,2.9913,14.4696,2.2957
110,-0.7664,-9.3885,-2.7207,2.6435,14.4696,2.1565
115,-0.7281,-9.5034,-2.7591,2.5043,14.4,2.1565
120,-0.843,-9.3118,-2.7207,2.1565,14.3304,2.087
125,-0.8047,-9.5034,-2.874,1.8087,14.2609,1.9478
130,-0.7281,-9.5034,-2.7974,1.6,14.1913,2.0174
135,-0.6898,-9.4268,-2.8357,1.4609,14.3304,2.2261
140,-0.7281,-9.5418,-2.7974,1.3217,14.4,2.2957
145,-0.4598,-9.2352,-3.1039,1.3913,14.4,2.4348
150,-0.8814,-9.5034,-2.874,1.3913,14.4696,2.6435
155,-0.8814,-9.5034,-2.8357,1.6,14.6087,2.6435
160,-0.8047,-9.5418,-2.989,1.7391,14.6087,2.6435
165,-0.843,-9.4268,-2.9507,1.8783,14.6783,2.7826
170,-0.8047,-9.5034,-2.9123,2.0174,14.7478,2.8522
175,-0.7664,-9.4651,-2.7207,2.087,15.0261,2.9217
180,-0.8814,-9.4651,-3.0273,2.2261,15.1652,2.8522
185,-0.9197,-9.5418,-2.9123,2.2957,15.3043,3.0609
190,-0.843,-9.5801,-2.8357,2.2957,15.513,3.0609
195,-0.843,-9.5801,-2.874,2.2957,15.7217,3.0609
200,-0.843,-9.5801,-2.9123,2.3652,15.8609,3.0609
205,-0.8047,-9.695,-2.989,2.4348,16.0,2.9913
210,-0.8047,-9.7334,-3.0656,2.4348,16.2087,3.0609
215,-0.9197,-9.3885,-3.0273,2.5739,16.3478,3.1304
220,-0.7664,-9.6184,-2.9507,2.6435,16.487,3.2
225,-0.7664,-9.7334,-3.0273,2.713,16.5565,3.1304
230,-0.7664,-9.6184,-3.0656,2.9217,16.5565,2.9913
235,-0.843,-9.695,-2.9507,2.9913,16.6261,3.1304
240,-0.8047,-9.6567,-2.7974,2.9913,16.487,3.1304
245,-0.7281,-9.6184,-2.9123,2.9913,16.4174,3.1304
250,-0.7664,-9.5801,-3.1039,3.0609,16.487,3.1304
255,-0.7664,-9.5801,-2.6441,3.0609,16.2783,3.2
260,-0.8047,-9.5418,-3.0273,3.0609,16.2783,3.1304
265,-0.843,-9.6567,-2.9507,2.9217,16.2087,3.1304
270,-0.7664,-9.6567,-2.989,2.9217,16.1391,3.1304
275,-0.843,-9.7717,-2.989,2.9217,16.0696,3.0609
280,-0.843,-9.6184,-2.9123,2.8522,16.0696,3.2
285,-0.7664,-9.6184,-2.8357,2.713,16.0,3.0609
290,-0.6898,-9.695,-2.9123,2.6435,16.0,3.1304
295,-0.7664,-9.7717,-2.7974,2.5739,15.9304,3.1304
300,-0.8047,-9.5801,-2.9123,2.2957,15.9304,3.0609
305,-0.843,-9.6567,-2.8357,2.087,15.9304,2.9913
310,-0.7664,-9.6184,-2.9123,2.087,15.7913,2.9217
315,-0.8047,-9.6184,-2.9123,1.8783,15.7913,2.7826
320,-0.843,-9.6184,-2.7974,1.8087,15.7913,2.713
325,-0.7281,-9.5418,-2.9123,1.8783,15.8609,2.6435
330,-0.7664,-9.6184,-2.7207,1.8087,15.7913,2.6435
335,-0.7281,-9.6567,-2.874,1.8783,15.7913,2.5043
340,-0.7664,-9.5418,-2.7591,1.8783,15.7913,2.5739
345,-0.6898,-9.6567,-2.6824,1.9478,15.7913,2.5043
350,-0.7664,-9.6184,-2.7974,1.9478,15.7217,2.5043
355,-0.6514,-9.695,-2.8357,2.2261,15.7217,2.4348
360,-0.5748,-9.4268,-2.5291,2.3652,15.5826,2.2957
365,-0.7664,-9.5418,-2.7974,2.5739,15.513,2.1565
370,-0.6898,-9.5801,-2.8357,2.8522,15.4435,2.087
375,-0.6514,-9.5801,-2.874,3.0609,15.3739,1.9478
380,-0.6131,-9.6184,-2.8357,3.2,15.3739,1.9478
385,-0.5365,-9.5801,-2.7974,3.3391,15.2348,1.8087
390,-0.7281,-9.5418,-2.7974,3.5478,15.1652,1.6
395,-0.6131,-9.5034,-2.8357,3.687,15.0957,1.5304
400,-0.7281,-9.695,-2.6058,3.687,14.9565,1.3913
405,-0.6514,-9.5801,-2.7591,3.7565,14.887,1.3217
410,-0.6131,-9.5801,-2.6058,3.6174,14.7478,1.3217
415,-0.7281,-9.4268,-2.7207,3.687,14.6087,1.1826
420,-0.6514,-9.5801,-2.7207,3.4783,14.3304,1.0435
425,-0.5748,-9.4268,-2.7207,3.4783,14.2609,1.0435
430,-0.5748,-9.5418,-2.6441,3.4087,14.2609,1.113
435,-0.6131,-9.5418,-2.7974,3.4087,14.0522,1.0435
440,-0.6898,-9.5034,-2.5291,3.4087,13.8435,1.113
445,-0.6898,-9.5418,-2.8357,3.4087,13.7043,1.113
450,-0.6131,-9.4651,-2.7591,3.4783,13.6348,1.113
455,-0.6131,-9.5801,-2.6824,3.5478,13.3565,0.9739
460,-0.5748,-9.6184,-2.6824,3.4783,13.287,1.0435
465,-0.6131,-9.5034,-2.7207,3.4783,13.1478,1.113
470,-0.4215,-9.0819,-2.5291,3.5478,12.8696,1.0435
475,-0.5748,-9.4651,-2.7207,3.687,12.8696,1.0435
480,-0.6131,-9.5034,-2.7591,3.687,12.8,0.9739
485,-0.6514,-9.5034,-2.8357,3.6174,12.5913,0.9739
490,-0.6514,-9.5801,-2.7591,3.6174,12.313,0.9739
495,-0.6514,-9.5418,-2.6441,3.5478,12.2435,0.9739
500,-0.6131,-9.4651,-2.6441,3.4087,12.0348,0.8348
505,-0.6131,-9.5034,-2.6824,3.1304,11.8261,0.8348
510,-0.6514,-9.4651,-2.5291,2.713,11.687,0.8348
515,-0.4215,-9.5801,-2.7207,2.5043,11.5478,0.7652
520,-0.5748,-9.4651,-2.6441,2.3652,11.4783,0.6957
525,-0.5365,-9.6184,-2.5675,2.2957,11.2696,0.6261
530,-0.6131,-9.5034,-2.5291,2.2261,11.0609,0.5565
535,-0.5365,-9.5034,-2.7207,2.3652,10.9913,0.5565
540,-0.4215,-9.5034,-2.7207,2.6435,10.9913,0.487
545,-0.6131,-9.6567,-2.6824,2.9913,10.9217,0.3478
550,-0.4982,-9.695,-2.7974,3.2696,10.9217,0.3478
555,-0.5365,-9.6184,-2.7974,3.7565,10.9217,0.3478
560,-0.5748,-9.6184,-2.8357,4.1739,11.0609,0.4174
565,-0.4598,-9.6184,-2.7591,4.5913,11.2,0.487
570,-0.4982,-9.5801,-2.5291,4.7304,11.2696,0.487
575,-0.4982,-9.6184,-2.8357,4.7304,11.4087,0.5565
580,-0.3066,-9.5801,-2.7974,4.8,11.4087,0.4174
585,-0.4598,-9.5418,-2.6441,4.8,11.6174,0.2783
590,-0.4598,-9.5418,-2.7974,4.8696,11.5478,0.3478
595,-0.4982,-9.5801,-2.7974,4.8696,11.687,0.1391
600,-0.4982,-9.695,-2.8357,4.9391,11.6174,0.1391
605,-0.4598,-9.695,-2.5291,4.9391,11.687,0.0
610,-0.4982,-9.7717,-2.5675,5.0087,11.7565,-0.0696
615,-0.4215,-9.6184,-2.6441,5.0783,11.8261,-0.2087
620,-0.4598,-9.695,-2.7591,5.0783,11.7565,-0.4174
625,-0.4215,-9.7717,-2.7591,5.3565,11.8261,-0.5565
630,-0.4215,-9.7334,-2.6058,5.6348,11.7565,-0.6261
635,-0.2682,-9.8483,-2.6441,5.8435,11.8261,-0.6957
640,-0.4982,-9.695,-2.7207,5.8435,11.7565,-0.9043
645,-0.4215,-9.6567,-2.6824,5.7739,11.7565,-0.9043
650,-0.4215,-9.7334,-2.7591,5.5652,11.7565,-0.9739
655,-0.4215,-9.7717,-2.6058,5.287,11.6174,-1.0435
660,-0.4215,-9.695,-2.5675,4.8696,11.4087,-1.113
665,-0.3066,-9.7334,-2.6441,4.4522,11.2696,-0.9739
670,-0.4598,-9.7717,-2.6824,4.2435,11.0609,-1.0435
675,-0.4598,-9.7717,-2.6441,3.9652,10.9217,-1.0435
680,-0.3832,-9.7334,-2.6058,3.7565,10.7826,-1.0435
685,-0.4982,-9.6184,-2.5675,3.6174,10.5739,-0.9739
690,-0.4598,-9.8483,-2.6058,3.5478,10.2957,-0.9043
695,-0.4598,-9.7717,-2.4908,3.6174,10.1565,-1.0435
700,-0.4215,-9.7334,-2.6058,3.6174,9.9478,-1.0435
705,-0.3832,-9.695,-2.5675,3.6174,9.6696,-1.113
710,-0.4215,-9.7334,-2.6058,3.8261,9.5304,-1.113
715,-0.4598,-9.7334,-2.7591,3.8957,9.3913,-1.113
720,-0.4215,-9.6567,-2.6441,4.1043,9.1826,-0.9739
725,-0.5365,-9.6184,-2.6058,4.2435,9.113,-1.0435
730,-0.3449,-9.81,-2.5675,4.3826,9.0435,-0.9043
735,-0.3832,-9.7717,-2.4908,4.3826,8.9043,-0.9043
740,-0.4598,-9.7334,-2.6058,4.4522,8.7652,-0.7652
745,-0.3449,-9.6567,-2.5291,4.313,8.487,-0.7652
750,-0.4598,-9.6184,-2.6058,4.2435,8.3478,-0.6957
755,-0.3832,-9.6184,-2.4908,4.1043,8.2087,-0.7652
760,-0.4215,-9.5418,-2.5291,3.9652,7.9304,-0.7652
765,-0.4215,-9.6567,-2.4525,3.7565,7.8609,-0.7652
770,-0.3832,-9.6567,-2.5291,3.4783,7.6522,-0.8348
775,-0.4215,-9.6184,-2.5291,3.3391,7.4435,-0.6957
780,-0.3832,-9.5801,-2.4525,3.0609,7.2348,-0.7652
785,-0.3449,-9.5418,-2.4525,2.9217,7.0957,-0.7652
790,-0.3449,-9.695,-2.5291,2.713,6.8174,-0.5565
795,-0.4982,-9.5418,-2.4908,2.5043,6.6087,-0.6261
800,-0.5365,-9.5418,-2.4525,2.2261,6.4696,-0.5565
805,-0.4598,-9.6184,-2.5291,2.0174,6.1913,-0.5565
810,-0.4215,-9.6567,-2.4525,1.9478,5.9826,-0.4174
815,-0.3832,-9.695,-2.4142,1.7391,5.8435,-0.487
820,-0.4598,-9.695,-2.4525,1.5304,5.7043,-0.487
825,-0.3832,-9.695,-2.4908,1.113,5.6348,-0.5565
830,-0.5748,-9.6184,-2.4525,0.9043,5.4957,-0.487
835,-0.4215,-9.5801,-2.4525,0.6261,5.3565,-0.487
840,-0.3832,-9.5418,-2.4908,0.2783,5.2174,-0.4174
845,-0.3449,-9.6184,-2.5675,0.0696,5.0087,-0.3478
850,-0.4215,-9.6184,-2.5291,-0.3478,4.9391,-0.2783
855,-0.4982,-9.5801,-2.4525,-0.487,4.7304,-0.3478
860,-0.3066,-9.6184,-2.4142,-0.7652,4.5913,-0.2783
865,-0.4215,-9.5418,-2.4525,-0.9739,4.3826,-0.2783
870,-0.4598,-9.6184,-2.4142,-1.2522,4.2435,-0.2087
875,-0.4982,-9.6184,-2.3759,-1.3217,3.9652,-0.1391
880,-0.4982,-9.6184,-2.4525,-1.2522,3.7565,-0.2783
885,-0.4215,-9.5801,-2.5291,-1.1826,3.4783,-0.3478
890,-0.4215,-9.5801,-2.4142,-1.0435,3.2,-0.2783
895,-0.4215,-9.695,-2.4525,-0.9043,3.1304,-0.4174
900,-0.4982,-9.695,-2.4908,-0.6957,3.0609,-0.487
905,-0.4598,-9.81,-2.3759,-0.6261,2.8522,-0.6261
910,-0.4598,-9.5801,-2.4908,-0.6261,2.5739,-0.6261
915,-0.4982,-9.5801,-2.3759,-0.7652,2.4348,-0.7652
920,-0.5365,-9.6184,-2.4525,-0.9043,2.3652,-0.8348
925,-0.3832,-9.695,-2.4142,-1.0435,2.2261,-0.8348
930,-0.4215,-9.695,-2.4908,-1.3217,2.0174,-0.7652
935,-0.4598,-9.695,-2.4142,-1.6,1.8087,-0.9043
940,-0.4982,-9.5801,-2.4525,-1.8783,1.7391,-0.9043
945,-0.5748,-9.5801,-2.4525,-2.1565,1.6696,-0.9043
950,-0.6131,-9.695,-2.4525,-2.4348,1.6,-1.113
955,-0.5365,-9.695,-2.2992,-2.6435,1.3913,-1.1826
960,-0.5748,-9.7334,-2.4908,-2.8522,1.3217,-1.113
965,-0.5748,-9.7717,-2.4525,-3.0609,1.1826,-1.1826
970,-0.5365,-9.695,-2.4525,-3.3391,0.9043,-1.2522
975,-0.4982,-9.5801,-2.4908,-3.6174,0.6957,-1.2522
980,-0.4982,-9.6567,-2.5291,-3.8957,0.6261,-1.1826
985,-0.4598,-9.7334,-2.5291,-4.1043,0.6261,-1.2522
990,-0.6131,-9.6567,-2.4908,-4.3826,0.487,-1.2522
995,-0.4598,-9.7334,-2.4908,-4.7304,0.4174,-1.2522
1000,-0.4982,-9.81,-2.4908,-5.0087,0.2087,-1.3913
1005,-0.5365,-9.7334,-2.4908,-5.1478,0.3478,-1.3913
1010,-0.5748,-9.7717,-2.4142,-5.287,0.2783,-1.3913
1015,-0.4598,-9.5034,-2.4908,-5.2174,0.2783,-1.4609
1020,-0.6131,-9.7334,-2.5675,-5.2174,0.1391,-1.5304
1025,-0.5748,-9.695,-2.6058,-5.0783,0.2087,-1.5304
1030,-0.5748,-9.6567,-2.5675,-5.0087,0.0696,-1.4609
1035,-0.3832,-9.7717,-2.6058,-4.8696,-0.2087,-1.4609
1040,-0.5748,-9.7717,-2.6058,-4.7304,-0.1391,-1.6696
1045,-0.5365,-9.7717,-2.4908,-4.5913,-0.2783,-1.6
1050,-0.5748,-9.7334,-2.5675,-4.6609,-0.3478,-1.6
1055,-0.5748,-9.695,-2.4908,-4.5913,-0.3478,-1.6
1060,-0.6131,-9.7334,-2.4908,-4.5913,-0.4174,-1.6
1065,-0.6898,-9.6567,-2.5675,-4.5217,-0.3478,-1.7391
1070,-0.5748,-9.7334,-2.4142,-4.5217,-0.487,-1.6696
1075,-0.6514,-9.695,-2.5291,-4.5913,-0.5565,-1.6696
1080,-0.5748,-9.6567,-2.5291,-4.7304,-0.5565,-1.8087
1085,-0.7664,-9.6184,-2.4142,-4.8,-0.6957,-1.6
1090,-0.5748,-9.6567,-2.5291,-5.0087,-0.7652,-1.6696
1095,-0.8047,-9.6567,-2.6441,-5.0783,-0.9043,-1.7391
1100,-0.6131,-9.81,-2.5675,-5.1478,-0.9739,-1.8087
1105,-0.7281,-9.7334,-2.4908,-5.2174,-1.113,-1.9478
1110,-0.5748,-9.695,-2.6441,-5.2174,-1.1826,-2.0174
1115,-0.5365,-9.7334,-2.5675,-5.1478,-1.1826,-1.9478
1120,-0.5365,-9.7334,-2.4525,-5.2174,-1.3913,-2.0174
1125,-0.6514,-9.81,-2.6441,-5.3565,-1.5304,-2.087
1130,-0.5748,-9.81,-2.6441,-5.4261,-1.7391,-2.1565
1135,-0.5365,-9.8483,-2.5675,-5.6348,-1.8783,-2.2261
1140,-0.5748,-9.6184,-2.5291,-5.8435,-2.087,-2.4348
1145,-0.6514,-9.7334,-2.5291,-6.1913,-2.4348,-2.713
1150,-0.6131,-9.81,-2.7591,-6.4696,-2.713,-2.9913
1155,-0.5748,-9.7334,-2.6058,-6.887,-2.9913,-3.2
1160,-0.6131,-9.7717,-2.6058,-7.3043,-3.1304,-3.3391
1165,-0.5365,-9.7334,-2.5675,-7.7217,-3.2696,-3.4783
1170,-0.6514,-9.7334,-2.5291,-8.2087,-3.4087,-3.7565
1175,-0.6131,-9.7717,-2.6824,-8.7652,-3.4783,-3.8957
1180,-0.4982,-9.7717,-2.7207,-9.2522,-3.5478,-4.0348
1185,-0.6898,-9.7334,-2.6824,-9.7391,-3.8261,-4.1739
1190,-0.5748,-9.8483,-2.7974,-10.2261,-3.9652,-4.3826
1195,-0.6514,-9.8866,-2.6058,-10.5043,-4.1043,-4.5913
1200,-0.5748,-9.8866,-2.6441,-10.713,-4.0348,-4.7304
1205,-0.5748,-9.925,-2.7591,-10.8522,-4.1739,-4.8
1210,-0.4982,-9.925,-2.6058,-11.2,-4.313,-4.9391
1215,-0.5748,-9.8866,-2.9123,-11.4783,-4.5217,-4.9391
1220,-0.4598,-9.8866,-2.8357,-11.8957,-4.8,-5.0783
1225,-0.4982,-10.0016,-2.874,-12.313,-5.1478,-5.2174
1230,-0.4982,-10.1166,-2.9507,-13.0783,-5.4957,-5.3565
1235,-0.8814,-10.0782,-3.0273,-13.9826,-5.7739,-5.287
1240,-0.6131,-10.0782,-2.9507,-15.0261,-6.1913,-5.287
1245,-0.6131,-10.1549,-3.0273,-16.2087,-6.4696,-5.1478
1250,-0.7281,-10.2315,-3.1039,-17.6,-6.887,-5.2174
1255,-0.6514,-10.3848,-3.1039,-19.2696,-7.3739,-5.2174
1260,-0.6514,-10.4998,-3.3339,-20.9391,-8.1391,-5.287
1265,-0.7664,-10.4998,-3.2955,-22.5391,-8.8348,-5.4957
1270,-0.7281,-10.4998,-3.3339,-24.0,-9.5304,-5.7739
1275,-0.7281,-10.5381,-3.5255,-25.3913,-10.1565,-5.7739
1280,-0.6514,-10.768,-3.6787,-26.6435,-10.713,-5.7043
1285,-0.7664,-10.7297,-3.832,-27.7565,-11.2696,-5.4261
1290,-0.7664,-10.768,-3.947,-28.9391,-11.687,-5.287
1295,-0.6131,-11.1129,-3.9853,-29.913,-12.1739,-5.1478
1300,-0.6514,-11.2279,-3.947,-30.7478,-12.6609,-5.0783
1305,-0.6514,-11.3045,-4.1003,-31.513,-12.9391,-5.0087
1310,-0.6131,-11.3045,-4.1386,-32.2783,-13.0783,-4.9391
1315,-0.5365,-11.3428,-4.1769,-33.2522,-12.9391,-4.8
1320,-0.6514,-11.3045,-4.2919,-34.3652,-12.3826,-4.8
1325,-0.5748,-11.3811,-4.3685,-35.9652,-11.8261,-4.5913
1330,-0.6131,-11.3045,-4.6368,-37.913,-11.2,-4.5913
1335,-0.6131,-11.2662,-4.4835,-40.3478,-10.2261,-4.5217
1340,-0.5748,-11.2662,-4.1769,-43.0609,-9.3217,-4.6609
1345,-0.5748,-11.1129,-4.7517,-45.913,-8.2783,-4.8
1350,-0.4982,-11.1129,-4.79,-48.9043,-7.2348,-4.8696
1355,-0.5748,-10.9979,-4.905,-51.9652,-6.6783,-5.0783
1360,-0.6514,-10.9213,-4.905,-54.9565,-6.1217,-5.2174
1365,-0.7664,-10.768,-4.79,-57.6696,-5.7739,-5.4261
1370,-0.7664,-10.6914,-5.0583,-59.9652,-5.6348,-5.7043
1375,-0.9197,-10.653,-4.7517,-61.7739,-5.4957,-5.913
1380,-0.8814,-10.6914,-4.6751,-62.9565,-5.3565,-6.1913
1385,-0.7664,-10.6147,-4.4835,-63.3739,-5.287,-6.4
1390,-0.7664,-10.6147,-4.6368,-63.2348,-5.2174,-6.4696
1395,-0.9963,-10.3848,-4.4068,-62.6783,-5.2174,-6.6783
1400,-0.9197,-10.4231,-4.3685,-61.7043,-5.3565,-7.0957
1405,-0.9963,-10.4231,-4.1003,-60.5913,-5.5652,-7.5826
1410,-0.958,-10.3848,-3.9853,-59.3391,-5.913,-8.2783
1415,-0.9963,-10.2698,-3.9853,-58.3652,-6.1913,-8.5565
1420,-0.9963,-10.3848,-3.8704,-57.3913,-6.4,-8.9739
1425,-0.8047,-10.3082,-3.832,-56.5565,-6.5391,-9.4609
1430,-1.073,-10.0782,-3.7937,-55.7217,-6.4,-9.8783
1435,-0.9197,-10.1166,-3.6787,-55.0261,-6.3304,-10.3652
1440,-0.9197,-10.0016,-3.7554,-54.4,-6.4,-10.7826
1445,-0.7281,-9.8866,-3.5638,-53.6348,-6.4696,-11.2
1450,-0.6898,-10.1166,-3.6021,-52.6609,-6.4,-11.5478
1455,-0.6131,-9.8483,-3.6021,-51.4087,-6.2609,-11.687
1460,-0.4598,-9.81,-3.7171,-50.2957,-6.1217,-11.687
1465,-0.4598,-9.7334,-3.7937,-48.9043,-5.9826,-11.7565
1470,-0.2682,-9.695,-3.947,-47.4435,-5.8435,-11.8261
1475,-0.115,-9.5801,-3.9853,-45.7739,-5.8435,-11.9652
1480,-0.115,-9.5418,-4.0236,-44.1043,-5.8435,-12.2435
1485,-0.0766,-9.3502,-4.062,-42.1565,-5.7043,-12.6609
1490,-0.0383,-9.3885,-4.1386,-40.3478,-5.4957,-12.8696
1495,0.0,-9.1586,-4.2919,-38.5391,-5.4957,-13.1478
1500,0.115,-9.0053,-4.3685,-36.7304,-5.4957,-13.3565
1505,0.115,-8.967,-4.4452,-34.9217,-5.4261,-13.5652
1510,0.115,-8.852,-4.2919,-33.3217,-5.287,-13.3565
1515,0.1533,-8.8137,-4.2919,-31.5826,-5.0783,-13.287
1520,0.0766,-8.852,-4.2919,-29.5652,-5.0087,-13.2174
1525,0.1533,-8.8137,-4.2919,-27.3391,-4.8,-13.0783
1530,0.0383,-8.852,-4.3302,-24.8348,-4.6609,-13.0087
1535,-0.0383,-8.7754,-4.2152,-22.2609,-4.3826,-12.9391
1540,-0.0383,-8.8137,-4.2919,-19.8261,-4.1043,-12.7304
1545,-0.115,-8.6604,-4.5218,-17.8087,-3.9652,-12.5217
1550,0.0383,-8.737,-4.3302,-15.7217,-3.687,-12.1739
1555,0.0,-8.5454,-4.2919,-13.4261,-3.6174,-11.7565
1560,-0.1916,-8.5838,-4.5218,-10.7826,-3.4087,-11.4087
1565,-0.115,-8.6221,-4.4452,-7.9304,-3.4783,-10.8522
1570,-0.115,-8.5454,-4.5984,-4.9391,-3.8261,-10.2261
1575,-0.1533,-8.3921,-4.4835,-2.5739,-4.2435,-9.7391
1580,-0.115,-8.4688,-4.6368,-0.5565,-4.3826,-9.1826
1585,-0.1916,-8.3155,-4.5984,0.9739,-4.8,-8.6957
1590,-0.1916,-8.5071,-4.5984,2.4348,-5.2174,-8.487
1595,-0.115,-8.4305,-4.5984,3.687,-5.5652,-8.2087
1600,-0.1916,-8.5071,-4.5218,4.7304,-5.7043,-7.7217
1605,-0.2299,-8.5071,-4.5601,5.5652,-5.8435,-7.0957
1610,-0.115,-8.5838,-4.6368,5.7739,-5.8435,-6.6087
1615,0.0383,-8.5454,-4.6368,5.4261,-5.4261,-6.1217
1620,0.0,-8.6221,-4.6368,4.8,-5.0783,-5.5652
1625,0.0383,-8.5454,-4.7517,4.1739,-4.4522,-4.9391
1630,0.1533,-8.5838,-4.6751,3.4087,-3.8957,-4.2435
1635,0.0766,-8.3538,-4.79,2.5043,-3.4087,-3.6174
1640,0.0766,-8.4688,-4.8284,1.6,-2.7826,-2.5739
1645,0.0766,-8.4688,-4.8284,0.6261,-2.1565,-1.4609
1650,0.1533,-8.5071,-4.8667,-0.1391,-1.5304,-0.487
1655,0.1533,-8.3538,-4.905,-0.6261,-1.0435,0.2783
1660,0.0383,-8.4688,-4.9433,-0.7652,-0.6261,0.8348
1665,0.115,-8.5454,-4.7134,-0.6261,-0.5565,1.3913
1670,0.0383,-8.6987,-4.9433,-0.487,-0.3478,1.4609
1675,0.0766,-8.6604,-5.02,-0.2087,-0.0696,1.4609
1680,0.0,-8.8137,-4.9816,0.487,0.1391,1.3913
1685,0.115,-8.8137,-4.8667,1.113,0.3478,1.3217
1690,0.0,-8.8903,-4.905,2.0174,0.3478,1.5304
1695,0.0383,-8.852,-4.905,2.713,0.2783,1.6
1700,0.0383,-8.7754,-4.8667,3.8261,0.2087,1.5304
1705,0.0383,-8.8903,-4.79,5.287,0.2087,1.3217
1710,0.0766,-9.0436,-4.7517,6.8174,0.1391,1.0435
1715,-0.1533,-8.852,-4.6751,8.2087,0.1391,0.9043
1720,-0.0383,-9.0053,-4.5984,9.8087,0.487,0.6957
1725,0.0,-9.0436,-4.6751,11.4783,0.8348,0.3478
1730,-0.1916,-9.0053,-4.5984,13.2174,1.2522,0.2087
1735,-0.115,-8.967,-4.7134,14.6783,1.8783,0.2783
1740,-0.0383,-9.0053,-4.4835,15.7217,2.3652,0.487
1745,-0.0766,-9.1202,-4.5601,16.6261,2.9217,0.6261
1750,0.0,-9.0819,-4.5984,17.3217,3.5478,0.6957
1755,0.0766,-9.0053,-4.6368,17.8783,4.1043,0.8348
1760,0.0383,-9.0819,-4.5218,18.4348,4.8,0.9739
1765,-0.1533,-9.1202,-4.6368,18.7826,5.4261,0.9739
1770,0.0383,-9.3502,-4.062,19.1304,6.1913,1.2522
1775,-0.1533,-9.1202,-4.5218,19.687,7.0957,1.6
1780,-0.0383,-9.2352,-4.5218,20.1043,8.0,2.087
1785,0.0766,-9.1969,-4.7517,20.3826,8.6957,2.5043
1790,-0.0766,-9.0436,-4.79,20.2435,9.3217,2.9217
1795,0.0766,-9.1202,-4.7134,19.7565,10.087,3.4087
1800,0.0,-9.1586,-4.7134,19.0609,10.9217,3.8261
1805,-0.0766,-9.0819,-4.6751,18.5739,11.8957,4.1043
1810,-0.0383,-9.1202,-4.6751,18.4348,12.8696,4.4522
1815,-0.0383,-9.2735,-4.6368,18.713,13.8435,4.5913
1820,-0.1916,-9.3502,-4.5984,19.3391,14.887,4.7304
1825,-0.1533,-9.3502,-4.4452,20.1739,16.0,4.7304
1830,-0.115,-9.4268,-4.6368,21.4261,17.2522,4.5913
1835,-0.3066,-9.4268,-4.5218,22.8174,18.5043,4.4522
1840,-0.1533,-9.4651,-4.4452,24.487,19.7565,4.313
1845,-0.3066,-9.4268,-4.5601,26.3652,21.0783,4.1739
1850,-0.1916,-9.5034,-4.4452,28.4522,22.4,4.1043
1855,-0.4598,-9.4651,-4.7517,31.0957,23.7913,3.8957
1860,-0.3449,-9.5034,-4.5218,33.3913,25.1826,3.3391
1865,-0.3066,-9.4268,-4.4452,35.6174,26.2957,2.9217
1870,-0.4215,-9.5034,-4.4452,37.4957,27.4087,2.087
1875,-0.4982,-9.4651,-4.5601,39.0957,28.313,1.4609
1880,-0.5365,-9.6567,-4.6368,40.6261,29.0783,0.9043
1885,-0.4598,-9.3502,-4.3685,42.087,29.8435,0.1391
1890,-0.5365,-9.5418,-4.1386,43.8957,30.3304,-0.2783
1895,-0.4215,-9.6567,-4.062,45.9826,30.9565,-0.6957
1900,-0.5748,-9.695,-3.9853,48.6957,31.3739,-0.9739
1905,-0.4598,-9.695,-3.947,52.0348,31.8609,-0.9739
1910,-0.5365,-9.925,-3.8704,55.7913,32.1391,-1.113
1915,-0.4215,-10.0016,-3.7937,59.8261,32.487,-1.113
1920,-0.3449,-10.0399,-3.6787,64.1391,32.6957,-0.9043
1925,-0.3449,-10.1166,-3.7554,68.3826,33.113,-0.7652
1930,-0.2682,-10.3465,-3.5638,72.7652,33.3913,-0.487
1935,-0.1533,-10.3465,-3.4105,77.2174,33.3913,0.0
1940,0.0,-10.3848,-3.4488,81.6,33.4609,0.8348
1945,-0.2299,-10.3848,-3.0656,85.7739,34.087,1.0435
1950,-0.1533,-10.3082,-2.9507,89.4609,33.5304,0.9043
1955,0.1533,-10.1549,-2.989,92.8696,32.7652,1.113
1960,0.0,-10.4998,-2.8357,96.0,32.6261,2.0174
1965,0.0383,-10.3082,-2.874,98.1565,32.2087,2.087
1970,0.115,-10.3082,-2.7207,99.687,31.513,2.5043
1975,0.1533,-10.2315,-2.874,100.4522,30.8174,2.7826
1980,0.2682,-9.81,-2.989,100.9391,30.887,4.2435
1985,0.3832,-8.8137,-2.5675,101.4261,32.0,6.7478
1990,0.4215,-11.6877,-2.874,103.8609,34.4348,14.0522
1995,-0.3832,-10.4998,-2.1459,103.0957,36.4522,11.3391
2000,-0.0383,-10.0782,-2.2992,99.8261,32.3478,6.7478
2005,0.1533,-10.0016,-2.2226,96.5565,28.4522,5.6348
2010,0.3066,-10.0016,-2.2226,93.0783,26.0174,5.0783
2015,0.2682,-10.0016,-2.1843,90.0174,25.0435,4.7304
2020,0.2299,-9.9633,-1.9543,86.7478,25.2522,4.7304
2025,0.3066,-9.925,-2.031,83.2696,25.9478,4.9391
2030,0.1916,-9.8866,-1.8394,79.9304,26.9217,4.9391
2035,0.2299,-9.8483,-1.7627,76.2435,27.9652,4.8
2040,0.2299,-9.7334,-1.6095,72.5565,28.8696,4.5217
2045,0.115,-9.6567,-1.3029,68.6609,29.7739,3.9652
2050,0.2299,-9.695,-1.2263,64.8348,30.5391,3.4783
2055,0.1533,-9.5801,-1.2263,61.3565,31.3739,2.9217
2060,0.115,-9.695,-1.1496,57.8087,31.8609,1.8783
2065,0.0383,-9.7334,-1.2646,54.2609,32.1391,1.113
2070,0.115,-9.5801,-1.1879,50.5043,32.0696,0.2783
2075,0.1533,-9.7334,-1.2646,46.8174,31.7217,-0.9739
2080,0.1533,-9.6184,-1.1879,43.1304,31.3043,-2.5739
2085,0.0,-9.6567,-1.2646,39.7217,31.0957,-3.9652
2090,0.0383,-9.4268,-1.1496,36.3826,30.887,-5.0783
2095,-0.0383,-9.1586,-1.2263,33.3217,30.8174,-6.5391
2100,0.0383,-9.4651,-1.073,30.6087,30.6783,-8.0
2105,0.2299,-9.5034,-0.958,27.8261,30.4,-9.113
2110,-0.1533,-9.3502,-0.9963,25.113,30.4,-10.4348
2115,-0.2682,-9.1586,-0.843,22.887,30.1913,-11.687
2120,-0.115,-9.1202,-0.9197,20.5913,29.287,-12.5217
2125,-0.115,-9.2352,-0.843,18.7826,28.1739,-13.287
2130,0.0,-9.1586,-0.7664,16.9739,27.0609,-13.9826
2135,-0.0766,-9.2735,-0.9197,15.4435,25.8783,-14.9565
2140,0.0383,-9.2735,-0.7281,14.2609,25.113,-15.9304
2145,0.0766,-9.3502,-0.958,13.287,24.2783,-16.6957
2150,0.115,-9.2735,-0.7281,12.3826,23.6522,-16.9739
2155,0.1533,-9.3885,-0.843,11.4783,23.0957,-17.7391
2160,0.115,-9.5801,-0.8047,10.8522,22.6783,-18.2957
2165,0.1916,-9.4268,-0.843,10.6435,22.2609,-18.8522
2170,0.2299,-9.5418,-0.7281,9.8783,22.1217,-19.4087
2175,0.1533,-9.4651,-0.6131,9.113,21.913,-20.1739
2180,0.1916,-9.4268,-0.6898,8.4174,21.7739,-20.1739
2185,0.2299,-9.4651,-0.8047,7.9304,21.2174,-20.2435
2190,0.2299,-9.3502,-0.6131,6.9565,20.8,-20.4522
2195,0.1916,-9.3885,-0.8047,6.1913,20.313,-20.8696
2200,0.3832,-9.3885,-0.6898,5.7739,19.8957,-21.0087
2205,0.2299,-9.1969,-0.9197,5.0783,19.687,-21.3565
2210,0.2299,-9.5034,-0.7281,4.9391,19.0609,-21.7043
2215,0.3066,-9.3502,-0.8047,4.8696,18.9913,-21.7739
2220,0.1533,-9.3885,-0.6131,5.0783,18.5739,-21.8435
2225,0.3832,-9.5034,-0.8814,5.7043,18.1565,-21.6348
2230,0.2682,-9.4268,-0.5748,6.4,17.8783,-21.5652
2235,0.3066,-9.4651,-0.8047,6.9565,17.8783,-21.4261
2240,0.3066,-9.5034,-0.7281,7.7217,17.8087,-21.287
2245,0.3832,-9.5418,-0.8047,8.6957,17.8087,-21.0783
2250,0.3832,-9.3502,-0.8047,9.6,18.0174,-20.6609
2255,0.3449,-9.4268,-0.843,10.7826,18.1565,-20.1739
2260,0.3449,-9.3885,-0.6514,12.0348,18.5043,-19.8261
2265,0.4215,-9.3502,-0.6898,13.6348,18.8522,-19.4783
2270,0.5748,-9.5034,-0.6131,15.2348,19.2696,-19.2
2275,0.4982,-9.4268,-0.6898,16.9043,19.4783,-18.8522
2280,0.6131,-9.3885,-0.7281,18.4348,19.9652,-18.5043
2285,0.5748,-9.4651,-0.6514,20.313,20.4522,-18.087
2290,0.5748,-9.3885,-0.5365,22.3304,20.7304,-17.7391
2295,0.6898,-9.5418,-0.6514,23.9304,21.0087,-17.5304
2300,0.6514,-9.5034,-0.4982,25.7391,21.3565,-17.0435
2305,0.6898,-9.6184,-0.6898,27.1304,21.5652,-16.8348
2310,0.7664,-9.4651,-0.6898,28.2435,21.5652,-16.487
2315,0.6898,-9.5034,-0.9963,29.2174,21.4957,-16.0696
2320,0.7664,-9.3885,-0.6898,29.7739,21.5652,-16.0
2325,0.7281,-9.4268,-0.7281,30.2609,21.3565,-15.7913
2330,0.8047,-9.3885,-0.5365,31.3739,21.287,-15.513
2335,0.6898,-9.4651,-0.5748,32.2087,21.2174,-15.0957
2340,0.8047,-9.4268,-0.5365,32.8348,21.4957,-14.6087
2345,0.7664,-9.4268,-0.5365,33.3217,21.7043,-14.1913
2350,0.6898,-9.3502,-0.5748,33.9478,21.9826,-13.7739
2355,0.8047,-9.3502,-0.4982,34.3652,22.3304,-13.2174
2360,0.7664,-9.3118,-0.4982,34.3652,22.6087,-12.8
2365,0.7664,-9.3885,-0.5748,34.5043,22.6783,-12.3826
2370,0.5748,-9.2352,-0.5748,35.4087,22.8174,-11.8957
2375,0.5365,-9.4268,-0.4982,36.5913,22.6783,-11.3391
2380,0.6131,-9.5034,-0.4982,37.1478,22.7478,-10.9217
2385,0.5365,-9.3118,-0.5748,36.9391,22.5391,-10.5043
2390,0.3832,-9.2352,-0.5365,36.4522,22.4696,-10.2261
2395,0.5365,-9.4268,-0.3832,35.687,22.3304,-9.6696
2400,0.4598,-9.2735,-0.4598,35.4783,22.0522,-9.0435
2405,0.4982,-9.4268,-0.4215,35.2696,22.1913,-8.5565
2410,0.5365,-9.5034,-0.3832,35.3391,22.1217,-8.1391
2415,0.3832,-9.4268,-0.1916,35.5478,22.4696,-7.5826
2420,0.5748,-9.4268,-0.3832,36.2435,22.6783,-7.0261
2425,0.4215,-9.4651,-0.0766,36.8,22.887,-6.4696
2430,0.4982,-9.3502,-0.3066,36.8696,23.2348,-6.3304
2435,0.4598,-9.3502,-0.2299,36.3826,23.6522,-5.913
2440,0.6131,-9.4651,-0.1916,35.8261,23.8609,-5.4957
2445,0.4982,-9.3118,-0.1533,35.4783,23.7913,-5.0087
2450,0.6898,-9.3118,-0.0383,35.3391,23.7913,-4.8
2455,0.6898,-9.4651,0.0766,35.2696,23.7217,-4.5913
2460,0.6514,-9.4268,0.0,35.6174,23.9304,-4.313
2465,0.6898,-9.4651,0.0,36.1739,24.2087,-4.0348
2470,0.8814,-9.3502,0.1533,36.9391,24.5565,-3.7565
2475,0.843,-9.2352,0.1916,37.3565,24.6261,-3.4087
2480,0.9197,-9.4268,0.0383,37.7043,24.6957,-3.0609
2485,1.0346,-9.3118,0.1533,37.8435,24.7652,-2.9217
2490,1.1113,-9.5034,0.1533,37.9826,24.9043,-2.713
2495,1.2646,-9.5418,0.0766,37.6348,25.0435,-2.6435
2500,1.1879,-9.4268,0.115,37.287,25.3217,-2.5043
2505,1.2263,-9.3118,0.0,36.5217,25.9478,-2.4348
2510,1.2646,-9.4268,0.0,35.4783,26.6435,-2.4348
2515,1.1879,-9.3885,0.0766,34.2957,27.4087,-2.4348
2520,1.2646,-9.5034,0.0383,33.2522,28.1739,-2.5043
2525,1.2263,-9.5418,0.2299,32.3478,28.9391,-2.713
2530,1.4179,-9.6184,0.0,31.3739,29.7739,-2.7826
2535,1.3795,-9.6567,0.0,30.1913,30.4,-2.6435
2540,1.4562,-9.3885,0.0766,28.9391,30.9565,-2.713
2545,1.4562,-9.6184,0.0383,27.5478,31.3739,-3.0609
2550,1.4179,-9.6184,0.1916,26.3652,32.2087,-3.2696
2555,1.3412,-9.5034,0.1916,25.113,32.9739,-3.5478
2560,1.4179,-9.7334,0.0766,24.2783,33.6696,-3.7565
2565,1.5328,-9.695,0.1533,23.5826,34.3652,-3.8957
2570,1.4945,-9.81,0.0766,22.7478,34.9913,-4.1739
2575,1.4562,-9.7717,0.2299,22.3304,35.5478,-4.5217
2580,1.3412,-9.8483,0.1533,22.4,36.2435,-4.6609
2585,1.4179,-9.81,0.115,22.9565,36.8,-4.8
2590,1.5328,-9.8483,0.2682,23.6522,37.287,-4.6609
2595,1.3795,-9.8483,0.2299,24.5565,37.913,-4.8696
2600,1.3795,-9.7717,0.2682,25.4609,38.4,-5.0087
2605,1.4945,-9.7717,0.1533,25.9478,38.887,-5.0783
2610,1.4179,-9.8866,0.2299,26.0174,39.3739,-5.0087
2615,1.4179,-9.81,0.2682,26.1565,39.7913,-4.8
2620,1.3412,-9.7334,0.3449,26.2957,40.3478,-4.6609
2625,1.3795,-9.7717,0.2299,26.2261,40.5565,-4.4522
2630,1.3412,-9.6184,0.2682,26.2261,40.9043,-4.1739
2635,1.1879,-9.5418,0.3449,26.1565,41.2522,-4.0348
2640,1.1879,-9.5418,0.6131,25.8783,41.7391,-3.9652
2645,1.1113,-9.6567,0.3066,25.5304,42.2261,-4.0348
2650,1.1496,-9.5418,0.4598,25.0435,42.713,-3.8957
2655,1.1879,-9.5801,0.3449,24.3478,42.9913,-4.0348
2660,1.073,-9.4651,0.4598,23.513,43.3391,-4.1043
2665,0.958,-9.3885,0.4982,22.6087,43.4087,-4.0348
2670,0.8814,-9.4268,0.7664,21.4261,43.4087,-4.0348
2675,0.843,-9.5418,0.6898,20.1043,43.1304,-4.1043
2680,0.958,-9.5034,0.6898,18.8522,42.713,-4.2435
2685,0.9963,-9.5034,0.5748,17.8783,42.1565,-4.4522
2690,0.9197,-9.4651,0.4982,17.1826,41.6696,-4.5913
2695,0.843,-9.5418,0.5365,16.4174,41.2522,-4.8
2700,1.0346,-9.6567,0.6131,15.4435,40.9739,-4.313
2705,0.8047,-9.6184,0.6898,14.887,40.5565,-4.3826
2710,0.8047,-9.7334,0.7281,15.1652,40.2087,-4.2435
2715,0.843,-9.695,0.7281,16.0696,39.6522,-3.6174
2720,0.9197,-9.6567,0.6514,16.9043,39.1652,-3.1304
2725,0.8047,-9.6567,0.6898,17.5304,38.887,-3.1304
2730,0.8047,-9.7717,0.7664,17.8087,38.5391,-3.2
2735,0.8814,-9.7334,0.7281,17.8087,38.1217,-3.2696
2740,0.843,-9.6184,0.6514,17.6,37.6348,-3.4783
2745,0.7281,-9.6567,0.6898,17.113,37.0087,-3.5478
2750,0.7664,-9.8483,0.6898,16.2783,36.3826,-3.5478
2755,0.7664,-9.695,0.6514,15.3739,35.687,-3.4087
2760,0.7664,-9.695,0.7281,14.7478,34.9913,-3.4087
2765,0.9197,-9.7717,0.8814,14.1913,34.3652,-3.4783
2770,0.9197,-9.81,0.7664,13.8435,33.8087,-3.6174
2775,0.6898,-9.7334,0.8047,13.2174,33.0435,-3.7565
2780,0.843,-9.81,0.958,12.8696,32.1391,-3.9652
2785,0.6514,-9.81,0.9963,12.6609,31.2348,-3.9652
2790,0.7281,-9.8866,0.9963,12.5217,30.3304,-3.8261
2795,0.6898,-9.81,0.9197,12.4522,29.6348,-3.2
2800,0.8047,-9.7717,1.1113,12.3826,29.0783,-2.8522
2805,0.7281,-9.81,1.1496,12.5217,28.6609,-2.6435
2810,0.843,-9.925,1.0346,12.5913,28.313,-2.713
2815,0.8047,-9.7717,0.9963,12.5217,27.8261,-2.713
2820,0.9197,-9.81,1.073,12.7304,27.5478,-2.7826
2825,0.958,-9.81,1.3412,12.7304,27.2696,-2.7826
2830,0.9197,-9.695,1.1113,12.5217,26.8522,-2.713
2835,0.8814,-9.7717,1.1113,11.8957,26.5739,-2.713
2840,1.0346,-9.81,1.1113,10.8522,26.4348,-2.5043
2845,0.958,-9.7334,1.0346,9.8783,26.2261,-2.2957
2850,0.9963,-9.695,0.9963,8.9739,26.0174,-2.2957
2855,0.958,-9.7334,1.2263,8.4174,25.8087,-2.2261
2860,0.6898,-9.6184,1.1496,8.1391,25.5304,-2.1565
2865,0.9963,-9.7717,1.1113,7.7217,25.1826,-2.087
2870,1.0346,-9.7717,1.1879,7.2348,24.9043,-1.9478
2875,1.073,-9.7334,1.1113,6.8174,24.5565,-2.0174
2880,1.1879,-9.6567,1.1879,6.4,24.2783,-2.0174
2885,1.0346,-9.7717,1.073,5.913,23.9304,-2.0174
2890,1.1113,-9.695,1.1879,5.4261,23.6522,-2.087
2895,1.073,-9.695,1.2646,5.0783,23.3739,-1.9478
2900,1.1496,-9.5801,1.2646,4.7304,23.0957,-2.1565
2905,0.8814,-9.6184,0.9963,4.1043,23.0261,-2.0174
2910,0.958,-9.6567,1.3029,3.5478,22.887,-1.8087
2915,0.958,-9.6567,1.2646,3.2696,22.6783,-1.7391
2920,0.8047,-9.5418,1.2646,3.1304,22.1913,-1.6696
2925,0.8047,-9.5034,1.2263,2.9217,21.7739,-1.6696
2930,0.843,-9.6567,1.2646,2.4348,21.4261,-1.6696
2935,0.843,-9.6567,1.3795,1.8783,21.0087,-1.4609
2940,0.8814,-9.7334,1.3412,1.2522,20.5217,-1.3913
2945,0.7664,-9.6184,1.3795,0.8348,20.0348,-1.2522
2950,0.8814,-9.81,1.3795,0.3478,19.4087,-0.9739
2955,0.6514,-9.7334,1.5328,0.0696,18.9913,-0.9043
2960,0.7281,-9.8483,1.6095,0.0696,18.4348,-0.6261
2965,0.6514,-9.81,1.4562,0.1391,17.8087,-0.487
2970,0.6898,-9.8483,1.6861,0.487,17.1826,-0.3478
2975,0.8047,-9.8483,1.6095,0.9043,16.7652,-0.1391
2980,0.8047,-9.8866,1.6861,1.3913,16.2783,-0.0696
2985,0.6898,-9.8866,1.6095,1.8087,15.9304,-0.0696
2990,0.7664,-9.9633,1.6861,2.1565,15.513,-0.1391
2995,0.7281,-9.925,1.8011,2.5739,15.2348,-0.2087
