timestamp,accX,accY,accZ,gyroX,gyroY,gyroZ
0,2.2226,-16.3245,-2.4908,47.6522,-41.3913,25.6
5,2.1459,-15.7113,-0.4982,60.8,-36.7304,15.5826
10,1.2646,-15.2132,1.0346,69.3565,-31.5826,4.2435
15,0.8047,-14.6384,1.6095,72.6957,-26.8522,-7.2348
20,0.115,-13.7953,1.5328,70.5391,-22.1913,-18.087
25,-0.7664,-13.1822,1.3029,62.1217,-17.8783,-27.6174
30,-1.7627,-12.8373,0.6131,47.3043,-15.3043,-36.1043
35,-2.0693,-13.2971,0.1916,29.1478,-14.1913,-43.6174
40,-2.2992,-13.9103,0.0,10.5043,-13.4261,-49.6
45,-2.4525,-14.7916,0.0,-6.0522,-12.5217,-54.1913
50,-2.6441,-15.673,0.3066,-18.2957,-11.5478,-57.3913
55,-2.874,-16.2095,0.0766,-26.8522,-11.1304,-59.8957
60,-3.1039,-17.0142,-0.0766,-35.2696,-11.5478,-61.4261
65,-3.4871,-17.3208,-0.3449,-40.8348,-12.4522,-62.4696
70,-3.6404,-17.2825,-0.7664,-43.0609,-12.8,-63.5826
75,-3.7554,-17.0909,-1.3412,-42.2261,-11.6174,-64.8348
80,-3.9853,-16.7843,-1.6095,-39.3739,-8.9043,-66.5043
85,-3.947,-16.8993,-1.8011,-34.6435,-4.1739,-68.4522
90,-3.947,-17.0142,-1.7627,-28.3826,2.3652,-69.913
95,-3.1423,-17.1292,-1.0346,-20.5913,9.4609,-71.6522
100,-2.6441,-17.3208,-0.4215,-10.3652,16.5565,-73.6696
105,-1.8394,-17.2825,-0.1916,1.113,21.287,-76.1739
110,-0.6514,-17.2058,0.6514,13.2174,23.0957,-78.0522
115,0.8047,-16.5161,0.5365,27.2696,21.7043,-79.6522
120,0.958,-16.2478,0.0383,39.0261,18.4348,-78.1217
125,1.8777,-15.7113,0.4215,47.1652,15.7913,-73.0435
130,2.6441,-14.5617,0.7664,56.7652,16.4174,-65.9478
135,3.1039,-13.4504,0.958,65.8087,19.7565,-57.0435
140,3.1423,-12.0326,0.6514,70.1217,23.8609,-45.287
145,3.5255,-10.7297,0.2299,72.0696,28.1043,-32.3478
150,3.947,-9.3502,-0.1916,71.3043,33.5304,-19.4087
155,4.5218,-7.5874,-0.958,69.7739,38.4696,-7.4435
160,4.8667,-6.6677,-0.6514,67.2696,42.8522,0.487
165,5.6331,-5.7097,-1.1113,70.8174,45.0087,7.6522
170,5.7097,-4.1003,-2.1076,81.0435,48.8348,17.4609
175,5.1732,-2.2992,-2.874,90.0174,51.8957,23.7913
180,4.7134,-0.8047,-3.2572,94.5391,51.7565,26.9217
185,4.2152,0.7281,-4.062,95.9304,49.5304,26.3652
190,4.5218,2.1843,-4.5601,91.8957,48.4174,27.8957
195,3.6021,2.874,-4.8667,79.2348,46.6783,24.6957
200,2.6824,3.1806,-4.79,60.8,42.1565,17.113
205,2.2609,3.4488,-5.2116,42.9217,39.0957,14.6783
210,1.2646,3.1806,-5.5564,24.9043,36.7304,14.6783
215,0.0383,2.9123,-5.5948,5.8435,34.087,13.8435
220,-1.1496,2.2226,-5.5181,-13.0087,31.7217,14.1217
225,-2.1076,2.031,-5.0966,-30.8174,29.8435,14.4696
230,-2.4142,1.4945,-4.6751,-46.2609,27.9652,14.887
235,-2.4525,0.958,-4.1003,-58.1565,25.3217,15.5826
240,-2.3375,0.3449,-3.6787,-66.7826,22.1217,16.487
245,-2.1843,0.0,-3.2572,-72.6957,18.4348,17.0435
250,-2.1076,-0.2682,-2.9507,-76.2435,14.887,17.113
255,-1.6478,-0.6514,-2.9507,-77.4957,11.5478,16.6261
260,-1.1496,-0.2299,-6.3229,-77.4957,9.3217,15.513
265,-0.7281,0.115,-7.9706,-80.6261,12.5913,14.7478
270,0.115,0.115,-8.1239,-90.2261,19.687,15.7217
275,1.4945,0.1533,-8.6987,-100.1043,25.7391,16.9043
280,3.1806,0.3832,-10.653,-112.9739,28.2435,12.4522
285,4.3302,0.3066,-11.9943,-133.0087,27.4087,2.087
290,4.4068,-0.8814,-11.7643,-152.7652,23.5826,-8.6957
295,3.5255,-3.1039,-10.1932,-166.887,19.8957,-16.4174
300,1.6478,-5.978,-8.3921,-173.9826,19.4783,-22.8174
305,0.7664,-8.6987,-6.3995,-175.4435,20.9391,-31.7913
310,0.9197,-11.1129,-4.3302,-169.6,24.2087,-41.2522
315,1.3412,-13.4888,-2.874,-154.9217,29.7043,-47.7217
320,1.4945,-15.5964,-1.6478,-133.9826,34.9217,-53.4261
325,1.1113,-16.746,-1.1496,-108.5217,39.3739,-58.2261
330,0.3449,-17.5507,-1.4179,-81.0435,42.0174,-62.1913
335,-0.3449,-17.2058,-2.6824,-52.8,44.2435,-65.113
340,-1.0346,-16.2095,-4.4452,-26.5739,47.4435,-65.6696
345,-1.1879,-15.0216,-6.6677,-8.1391,51.2,-63.0957
350,-0.7281,-13.9103,-8.1239,-2.087,53.0783,-56.6261
355,-0.3066,-12.7607,-8.2772,-8.2783,50.2957,-50.2261
360,0.4982,-12.0709,-7.7024,-20.8696,44.8696,-44.0348
365,1.5328,-11.8027,-6.2845,-33.6696,41.1826,-37.4957
370,2.031,-11.3428,-4.3302,-40.1391,40.8348,-30.5391
375,2.4525,-11.0746,-3.1423,-36.7304,42.9913,-21.7739
380,3.1039,-11.1512,-2.4142,-28.1739,45.5652,-13.3565
385,3.7171,-11.0363,-2.2609,-18.9913,47.3739,-6.8174
390,3.7937,-11.2662,-2.1843,-12.2435,48.3478,-1.6696
395,3.5638,-11.4578,-2.6441,-8.487,48.487,3.8261
400,3.1423,-11.841,-2.2992,-9.5304,46.8174,8.2087
405,2.7591,-12.8373,-1.7627,-12.5217,43.2,10.9913
410,2.2992,-14.1402,-1.6095,-14.9565,37.2174,11.4087
415,2.0693,-16.0179,-1.6478,-15.7217,31.4435,12.4522
420,1.6478,-17.7423,-2.1843,-14.2609,27.2696,13.9826
425,0.9197,-19.2751,-2.7974,-12.7304,25.2522,16.0
430,0.3449,-20.693,-2.9507,-14.4696,25.2522,19.5478
435,-0.2682,-22.1108,-3.1039,-19.687,26.0174,24.0696
440,-1.5711,-23.2604,-2.989,-26.3652,25.6696,30.2609
445,-2.4142,-24.4867,-2.7974,-30.7478,23.7217,38.6783
450,-3.4105,-25.2914,-2.4908,-31.0957,20.0348,45.9826
455,-4.3302,-25.6363,-2.1459,-27.6174,15.1652,55.3739
460,-4.7134,-25.2148,-2.2226,-21.4261,9.2522,64.9739
465,-4.7134,-24.6016,-1.9543,-13.0087,3.2696,73.6696
470,-4.5984,-23.6436,-1.916,-1.6,-2.4348,81.4609
475,-4.2919,-22.609,-1.8011,11.4783,-7.8609,89.0435
480,-4.0236,-20.9995,-1.5328,24.3478,-12.8696,95.6522
485,-3.4871,-19.3901,-1.0346,36.5913,-16.3478,100.9391
490,-2.4908,-17.704,-0.9197,48.487,-18.2957,105.2522
495,-1.6095,-16.4394,-0.1533,58.2261,-18.0174,107.7565
500,0.2299,-15.1748,-0.1533,66.1565,-16.7652,108.7304
505,1.9543,-13.8336,0.3832,70.6087,-14.6087,106.5739
510,3.1806,-11.6494,0.0383,73.9478,-15.513,99.5478
515,4.4452,-9.6184,0.0383,73.5304,-21.8435,85.6348
520,4.5218,-7.8557,-0.9197,72.7652,-29.2174,71.7217
525,4.7517,-6.7061,-1.2263,67.0609,-34.6435,57.4609
530,4.2919,-5.6714,-1.2646,56.6957,-39.3043,39.0261
535,3.4105,-4.7134,-1.916,48.0696,-44.0348,19.687
540,2.3759,-4.2919,-1.916,42.7826,-47.0261,2.8522
545,1.9543,-4.2919,-1.073,40.1391,-49.113,-14.1217
550,0.958,-3.947,-1.1496,39.0957,-48.6261,-29.8435
555,-0.115,-3.4105,-1.8394,38.1913,-43.0609,-42.1565
560,-0.6514,-3.1039,-2.5291,38.2609,-32.1391,-49.6
565,-2.031,-3.1423,-2.8357,38.4696,-22.4,-52.1739
570,-3.1806,-1.9927,-3.9087,39.1652,-16.6957,-53.2174
575,-3.947,-1.7627,-4.7517,38.2609,-11.4087,-48.4174
580,-4.905,-1.2646,-6.0163,40.2087,-4.2435,-41.7391
585,-4.5984,0.2682,-6.7827,42.7826,4.9391,-34.5043
590,-3.4871,1.3412,-6.5911,42.9913,15.0957,-23.7217
595,-2.3375,2.031,-5.9013,36.7304,21.287,-14.2609
600,-1.3029,2.9507,-4.79,22.9565,22.1913,-6.5391
605,-0.8814,2.989,-3.2955,6.1913,16.9043,-2.9217
610,-0.843,2.6824,-2.6058,-10.5739,7.2348,-0.0696
615,-0.8814,2.2226,-2.1459,-25.8087,-3.6174,1.4609
620,-0.9963,1.8394,-2.1076,-38.887,-12.9391,2.713
625,-1.3029,1.4945,-2.3375,-49.7391,-19.8261,4.313
630,-1.6478,1.2263,-3.832,-59.8261,-24.7652,5.3565
635,-2.4142,1.4562,-6.8593,-70.887,-28.8696,6.1217
640,-3.0273,1.6478,-9.2352,-85.2174,-32.9043,7.0261
645,-3.6787,1.6095,-11.2279,-103.7217,-37.1478,7.5826
650,-3.4871,1.073,-12.3775,-124.4522,-40.2087,6.9565
655,-2.6058,-0.1533,-12.7223,-144.3478,-38.9565,4.8
660,-1.1879,-2.1843,-11.1129,-160.6957,-33.8087,0.2783
665,-0.4598,-5.0966,-8.3538,-170.2261,-25.6,-3.3391
670,-0.0766,-8.5454,-4.8667,-168.8348,-15.7217,0.1391
675,-1.073,-11.8027,-1.2646,-156.6609,-7.7217,7.1652
680,-1.7244,-14.3318,1.0346,-135.0957,-5.8435,14.1217
685,-1.5711,-16.1329,2.2992,-108.6609,-10.5043,19.2
690,-1.6861,-17.0142,2.6824,-79.3043,-19.5478,23.7913
695,-0.8047,-17.589,1.1113,-48.1391,-29.4957,28.5217
700,-0.0766,-16.5161,-1.4562,-22.4,-36.9391,30.3304
705,0.9963,-14.715,-3.7937,-5.8435,-39.0261,30.8174
710,2.7207,-12.8756,-4.7134,2.5043,-33.8087,29.7739
715,3.9087,-10.8063,-5.0966,8.1391,-23.6522,25.7391
720,4.2152,-8.9286,-5.2882,12.9391,-10.713,19.3391
725,4.2152,-7.4725,-4.4835,13.9826,1.113,12.8696
730,4.1386,-6.3995,-3.1039,13.5652,10.8522,4.5217
735,3.2955,-5.4798,-1.3795,14.8174,17.0435,-6.1913
740,2.2992,-5.2882,-0.6514,19.9652,19.2,-17.8783
745,1.3029,-5.4032,0.0766,25.6696,18.087,-29.3565
750,0.3832,-5.978,0.7281,31.5826,15.7913,-40.4174
755,-0.4215,-6.2845,0.958,38.6783,11.8957,-50.8522
760,-1.3795,-7.4725,0.1916,44.8696,9.4609,-59.5478
765,-2.4525,-8.0089,-0.3832,47.7913,8.9739,-65.8087
770,-3.4488,-8.3538,-0.2299,46.4,8.0696,-72.8348
775,-4.5601,-8.7754,0.115,41.8087,5.7043,-78.1217
780,-6.1313,-9.0819,-0.2299,37.287,3.8261,-81.3913
785,-7.2425,-10.0782,-0.5365,29.8435,2.2261,-79.0957
790,-7.9706,-11.2279,-0.4982,18.9217,-1.8783,-72.0
795,-8.0089,-12.1475,-0.3832,7.3043,-8.9043,-62.6087
800,-7.5491,-13.2205,-0.1916,-2.7826,-16.2783,-50.9217
805,-6.0546,-14.1402,-0.8047,-9.5304,-23.1652,-37.287
810,-3.9087,-14.5617,-1.4562,-12.2435,-27.8957,-24.0
815,-1.6861,-14.6,-3.0273,-10.2957,-30.7478,-12.1043
820,0.3832,-14.6384,-3.9853,-8.2783,-34.1565,-4.6609
825,2.1459,-14.9066,-3.8704,-5.7739,-36.313,0.3478
830,3.3722,-15.2515,-3.2955,-0.4174,-38.3304,3.7565
835,4.2536,-15.0216,-3.3722,7.7913,-43.4783,3.4783
840,5.1349,-15.0216,-3.832,13.5652,-53.0783,-2.3652
845,6.0929,-14.9449,-4.062,15.9304,-62.7478,-12.0348
850,6.3229,-14.6384,-3.4105,16.9043,-66.3652,-23.2348
855,6.821,-14.3318,-3.1806,21.0783,-60.4522,-36.8
860,6.6294,-13.9869,-2.2609,26.5739,-47.8609,-50.7826
865,5.8247,-13.7187,-1.073,30.887,-35.2,-65.6696
870,5.5564,-12.7223,-1.1879,35.687,-25.0435,-81.2522
875,5.2882,-11.4578,-2.5675,40.6261,-16.9043,-93.0783
880,4.6368,-9.3502,-3.0273,42.6435,-10.2957,-102.4696
885,3.1039,-7.0509,-3.2189,43.5478,-6.6783,-109.9826
890,0.6898,-5.0583,-4.0236,43.9652,-4.4522,-112.487
895,-0.0766,-2.989,-4.5984,42.2261,-3.4783,-109.1478
900,-2.2992,-1.1113,-5.1349,37.4261,-4.313,-102.4
905,-2.5675,0.958,-4.062,28.2435,-5.1478,-89.9478
910,-4.1003,2.7974,-2.989,21.9826,-4.313,-77.6348
915,-5.1349,4.1769,-2.1459,18.5043,-6.1217,-63.5826
920,-5.6331,4.9433,-2.031,14.6783,-11.8957,-47.7217
925,-5.7097,4.8667,-2.1459,10.5739,-18.7826,-33.9478
930,-5.5948,4.2536,-2.6824,6.3304,-24.7652,-23.3739
935,-4.79,3.0273,-2.5291,1.1826,-30.4696,-15.5826
940,-3.6404,1.9543,-2.2609,-3.8957,-35.0609,-9.8087
945,-2.6824,0.6514,-1.8394,-6.6087,-40.3478,-8.2783
950,-2.031,-0.4598,-2.5291,-6.887,-46.0522,-7.9304
955,-0.8814,-1.6478,-2.7974,-8.8348,-50.9217,-7.513
960,-0.2682,-2.0693,-3.0273,-12.5217,-54.0522,-8.1391
965,0.0383,-1.8777,-3.4105,-17.1826,-58.7826,-11.7565
970,0.3832,-2.4908,-3.4871,-22.5391,-67.8261,-16.9739
975,1.3795,-2.7591,-3.0656,-27.0609,-79.3739,-21.2174
980,1.7627,-3.6021,-2.4142,-31.0261,-89.1826,-23.3043
985,1.073,-3.7171,-2.6441,-35.7565,-96.7652,-25.6
990,0.0,-3.3722,-4.7517,-44.6609,-103.513,-28.7304
995,-0.8047,-2.6058,-7.6641,-58.5043,-109.7739,-31.5826
1000,-1.0346,-1.5328,-10.6147,-76.8,-116.8,-34.3652
1005,-1.1496,-0.8814,-13.0289,-98.087,-122.7826,-36.313
1010,-0.3066,-1.0346,-15.2515,-121.0435,-125.0087,-37.4261
1015,0.4982,-2.2992,-15.0599,-144.3478,-122.5043,-38.7478
1020,1.0346,-4.2536,-13.5271,-163.8261,-116.5217,-40.9043
1025,0.4982,-6.7827,-10.6147,-172.9391,-109.4261,-43.687
1030,0.0766,-9.4268,-7.2425,-170.5043,-103.513,-46.887
1035,-1.3795,-11.6111,-4.6368,-157.6348,-100.5217,-51.8957
1040,-2.5675,-11.8027,-5.0583,-139.5478,-100.0348,-57.6696
1045,-2.6058,-10.4231,-7.9323,-121.9478,-99.2696,-59.0609
1050,-2.1843,-8.3155,-10.3848,-108.1739,-97.0435,-56.7652
1055,-1.1113,-6.5145,-11.7643,-99.6174,-93.4957,-53.5652
1060,0.1533,-5.1732,-12.1475,-96.6957,-89.6,-48.9043
1065,1.1113,-4.2152,-11.9559,-100.1043,-87.3043,-44.5217
1070,1.8394,-3.947,-11.6111,-108.7304,-87.2348,-40.5565
1075,2.031,-4.1769,-10.3465,-119.7913,-89.1826,-36.4522
1080,2.2226,-4.3302,-9.1586,-130.2261,-91.8261,-32.9739
1085,2.2226,-4.905,-7.5491,-138.5043,-93.9826,-30.7478
1090,2.2226,-5.5564,-6.821,-144.1391,-95.0957,-29.2174
1095,1.9927,-6.1313,-6.3612,-147.4783,-93.913,-27.6174
1100,1.916,-6.4761,-6.5528,-149.0087,-89.3217,-25.113
1105,1.916,-6.5528,-7.7024,-149.4957,-83.1304,-21.7043
1110,1.7627,-6.4761,-8.3921,-151.6522,-78.4,-18.087
1115,1.5711,-5.978,-9.2352,-157.8435,-75.3391,-14.4
1120,1.3029,-5.863,-9.0436,-168.1391,-71.7913,-10.087
1125,0.9963,-5.6331,-8.0473,-180.5217,-66.5739,-6.1913
1130,0.7664,-5.7864,-7.1659,-190.887,-59.8957,-3.2696
1135,0.7664,-6.0163,-6.1696,-197.0783,-53.0087,-1.113
1140,0.8047,-6.4378,-5.6331,-197.6348,-47.4435,0.1391
1145,0.843,-6.8593,-5.6331,-194.087,-44.1043,-0.1391
1150,0.843,-7.0893,-5.5948,-187.2,-41.3217,-0.9043
1155,0.9963,-7.7024,-5.2499,-177.9478,-38.4696,-1.7391
1160,1.2263,-8.6987,-4.2152,-167.2348,-35.7565,-2.7826
1165,1.1496,-9.7717,-2.6441,-154.0174,-34.713,-5.4261
1170,0.6514,-10.3082,-1.2263,-139.4087,-36.8696,-9.3217
1175,0.2682,-10.0782,-1.1496,-125.3565,-41.5304,-12.5217
1180,0.2299,-8.6987,-1.8777,-114.2957,-44.7304,-13.287
1185,-0.3066,-7.4341,-3.6021,-108.313,-42.9217,-11.2696
1190,-0.5748,-5.978,-4.3685,-108.313,-37.5652,-7.6522
1195,-0.7664,-4.5601,-5.1732,-115.0609,-32.0,-3.1304
1200,-0.7281,-3.7171,-4.9816,-126.9565,-26.087,1.6696
1205,-0.8814,-2.9123,-5.02,-141.7739,-21.1478,5.9826
1210,-1.0346,-2.1843,-4.7517,-158.8174,-16.1391,9.9478
1215,-1.1113,-1.7627,-4.5601,-177.6696,-11.4783,14.7478
1220,-0.8814,-1.5711,-4.79,-196.8,-7.5826,21.0087
1225,-0.3449,-2.1076,-4.4452,-214.4,-4.5217,27.3391
1230,0.0383,-2.8357,-3.6404,-229.0087,-1.6696,33.1826
1235,0.4982,-3.9087,-3.3722,-236.6609,0.7652,38.6783
1240,1.4179,-4.6751,-3.5255,-235.9652,3.6174,44.1739
1245,1.6478,-5.0583,-4.5218,-228.7304,8.487,50.2957
1250,2.1843,-5.4798,-6.5145,-217.8783,11.6174,55.6522
1255,2.3375,-5.3265,-9.6567,-208.0,13.8435,60.1739
1260,2.7591,-4.4835,-13.2588,-203.5478,22.3304,65.7391
1265,3.7554,-3.0656,-17.9722,-206.2609,43.4087,72.2087
1270,5.5564,-2.2226,-22.5707,-216.2783,75.8957,78.4696
1275,8.4305,-2.1459,-25.598,-236.313,113.6,82.7826
1280,12.0709,-3.0656,-25.7513,-267.4783,147.8261,79.7913
1285,15.0599,-5.3648,-22.5707,-306.7826,166.4696,65.6
1290,14.83,-9.3118,-16.3245,-344.2087,167.1652,40.5565
1295,11.0746,-12.2242,-9.6567,-367.8609,155.2,11.6174
1300,7.4341,-14.9832,-5.748,-375.8609,135.9304,-11.2
1305,4.4452,-17.3208,-3.1039,-374.5391,117.6348,-23.513
1310,1.4945,-18.2788,-0.3832,-364.5913,104.7652,-29.913
1315,-1.5328,-18.2405,1.8011,-345.113,96.9043,-31.2348
1320,-4.8667,-17.3208,3.2955,-321.113,88.7652,-27.5478
1325,-7.0893,-15.9796,5.5948,-299.8261,76.4522,-19.1304
1330,-9.0436,-14.4468,8.1239,-269.7043,58.5043,-8.0
1335,-11.5727,-11.4578,6.0546,-232.7652,35.8261,4.5913
1340,-13.9103,-8.3155,3.9853,-192.4174,23.3739,21.9826
1345,-15.0982,-5.2882,2.1843,-154.4348,15.8609,41.7391
1350,-16.3628,-2.031,0.958,-127.0261,13.1478,60.313
1355,-16.0562,0.6514,1.6095,-117.4261,3.0609,74.6435
1360,-15.9413,3.3722,3.1423,-123.687,-15.0957,89.113
1365,-14.4084,5.8247,5.0583,-139.5478,-32.0696,96.1391
1370,-12.3008,7.3958,7.0893,-155.6174,-42.9913,94.1217
1375,-9.925,8.8903,6.7827,-166.6783,-51.7565,85.0783
1380,-7.5491,10.0782,5.3648,-174.5391,-63.9304,72.6261
1385,-4.2536,10.9979,1.916,-179.6174,-81.6,59.7565
1390,-1.4562,12.8756,-6.3995,-187.4087,-96.2087,42.5739
1395,1.6095,13.3355,-10.8063,-208.5565,-92.313,20.4522
1400,2.4142,12.3391,-11.1129,-231.2348,-64.487,-3.8261
1405,2.8357,12.4541,-9.925,-230.5391,-32.2087,-21.2174
1410,3.5255,12.3008,-10.3848,-197.2174,-15.9304,-38.887
1415,3.4488,13.5654,-10.0399,-149.8435,-12.5217,-54.8174
1420,2.4525,14.7916,-6.7827,-106.9913,-15.0261,-64.2783
1425,3.947,20.5397,-10.4231,-47.4435,-36.1043,-69.4957
1430,3.3339,19.5434,-8.4305,109.4261,-76.2435,-77.6348
1435,1.6861,14.4084,-13.872,159.3739,-111.6522,-67.3391
1440,-1.9927,19.0452,-5.4032,144.9043,-150.1217,-56.6957
1445,-1.1496,14.2935,-4.8284,191.2348,-103.0957,-8.9739
1450,1.4945,28.8935,-13.9103,222.5391,-82.3652,13.0087
1455,-3.3339,54.3382,-35.9445,199.0261,-96.0696,27.8957
1460,4.2919,62.6537,-20.1182,98.087,-264.4174,-22.3304
1465,-4.1003,70.2411,4.1769,11.5478,-320.3478,-34.9913
1470,13.0289,59.9713,-11.9559,29.7739,-206.4696,71.0261
1475,3.1039,37.5156,-11.4195,-66.8522,-174.7478,60.8696
1480,8.0089,10.9979,-12.1092,-110.6783,-118.7478,32.3478
1485,-2.989,-10.5381,-39.3166,-118.9565,-51.5478,19.8957
1490,-1.7627,13.1439,-59.3198,-184.4174,-27.5478,48.2087
1495,-14.2168,-19.0452,-51.0043,-276.0348,-22.5391,72.0
1500,-7.5491,-37.3623,-65.1829,-169.8783,-0.7652,90.0174
1505,-8.1239,13.6037,-55.2579,-84.0348,48.1391,68.9391
1510,-4.6368,24.0652,-58.5534,-33.3217,78.4,66.2957
1515,4.3302,13.757,-46.4442,-53.6348,74.6435,69.0783
1520,-1.4562,9.1202,-31.5759,-49.6696,49.8783,40.0
1525,-0.3066,7.5108,-27.4757,-35.2696,20.1043,10.1565
1530,3.6404,3.2572,-26.7093,-15.0261,1.3217,-3.687
1535,3.832,-5.4032,-18.0489,-9.0435,1.8783,-7.513
1540,3.3722,0.6898,-17.4357,-2.6435,19.4087,-10.3652
1545,2.1076,6.0929,-11.9559,-0.8348,35.3391,-12.5217
1550,1.7627,6.0546,-5.0966,-2.713,52.313,-21.0783
1555,0.8047,7.779,-4.4452,23.2348,71.513,-28.7304
1560,0.7664,5.0583,-5.4798,52.6609,82.1565,-30.1217
1565,-0.4215,2.9507,-5.748,77.4261,81.2522,-28.8696
1570,0.0,6.936,-10.1549,103.0261,76.8,-25.1826
1575,-2.6441,7.5491,-12.8756,111.6522,63.4435,-19.6174
1580,-1.2263,3.0656,-11.5344,81.3217,54.5391,-12.9391
1585,-2.3759,5.6331,-10.0016,36.2435,51.8261,-11.4783
1590,-3.1039,8.2005,-7.2425,6.5391,53.0783,-11.8261
1595,-3.6787,7.9323,-6.2462,-7.8609,54.3304,-8.1391
1600,-3.3722,8.7754,-5.1349,-10.9217,49.0435,3.4783
1605,-3.6787,10.1932,-3.8704,-6.6783,45.287,16.2783
1610,-3.9087,10.4614,-3.1806,2.9217,44.6609,21.1478
1615,-3.2572,11.7643,-3.6787,20.0348,41.8087,25.6696
1620,-4.1003,12.3775,-4.9433,30.4696,34.713,25.8783
1625,-3.5255,9.2735,-4.062,37.5652,18.2957,24.6261
1630,-2.4525,9.8866,-6.2079,43.2696,5.6348,22.7478
1635,-2.0693,7.9706,-6.4378,48.1391,4.313,23.9304
1640,-0.8047,10.1932,-6.2845,46.887,6.6087,23.3739
1645,-2.5291,12.7607,-6.2079,40.6957,0.6261,18.713
1650,-1.4945,10.5764,-4.7517,30.0522,-8.6261,19.8261
1655,-1.4945,11.4578,-4.6368,20.5913,-9.2522,20.1043
1660,-0.3832,9.81,-3.2572,8.6957,-9.3913,22.4696
1665,-0.115,9.0053,-2.7591,0.6957,-8.2087,23.5826
1670,0.6514,9.3118,-3.2955,-1.3217,-10.6435,27.4783
1675,1.1113,9.3885,-3.9087,-2.7826,-15.513,30.6087
1680,1.073,9.4268,-4.5601,-6.8174,-18.9217,31.3043
1685,0.843,9.81,-4.8284,-12.0348,-18.7826,32.2783
1690,1.4179,9.1969,-4.8284,-17.0435,-17.0435,33.113
1695,1.9927,8.2005,-5.4032,-20.1043,-16.0696,32.9739
1700,1.6095,7.5108,-5.6714,-21.5652,-17.7391,29.1478
1705,1.4945,7.0509,-6.3612,-20.8,-19.9652,24.8348
1710,1.916,6.0929,-7.779,-18.0174,-21.4957,20.2435
1715,0.9963,5.4415,-8.2389,-15.7217,-23.4435,14.1217
1720,-0.8814,7.0126,-10.0399,-15.9304,-28.3826,8.8348
1725,-1.1879,6.936,-9.7334,-16.9739,-31.9304,8.7652
1730,-0.3449,5.0966,-8.8137,-14.1217,-32.0,10.713
1735,0.0383,4.79,-9.5801,-8.4174,-31.3739,10.713
1740,0.843,2.3375,-9.1202,-5.0783,-30.8174,9.113
1745,2.0693,-0.3832,-8.8903,-8.6261,-25.8783,5.9826
1750,0.843,2.2609,-10.1932,-15.4435,-18.087,3.8261
1755,0.843,3.4871,-10.4998,-24.3478,-12.3826,2.7826
1760,0.2682,5.2116,-9.7717,-29.6348,-8.3478,2.3652
1765,0.3066,6.2845,-9.0053,-28.1739,-7.2348,2.7826
1770,0.4215,5.1732,-9.1969,-19.687,-6.6783,3.9652
1775,-0.2682,5.4415,-9.5034,-9.7391,-4.8,4.0348
1780,0.4598,6.936,-9.8483,-1.5304,-3.4783,4.1043
1785,-0.4598,7.3192,-9.3118,3.9652,-1.8087,4.3826
1790,-0.4215,7.7407,-9.7717,9.6,-0.7652,6.4696
1795,-1.1113,8.5454,-10.4231,14.4696,0.0,7.8609
1800,-0.7281,8.852,-10.1932,15.5826,0.5565,8.9043
1805,0.0766,8.0089,-10.0399,16.1391,1.2522,8.2087
1810,0.5365,6.8593,-10.6147,17.113,3.4783,6.6783
1815,0.0,6.3229,-11.3045,16.0696,5.4261,4.7304
1820,-0.843,5.7097,-11.726,12.0348,6.6783,2.8522
1825,-1.9543,6.0163,-11.5344,6.4,6.887,0.7652
1830,-1.4179,5.748,-11.1895,1.8087,6.887,-0.8348
1835,-1.3412,4.5984,-10.5764,0.487,7.8609,-1.6
1840,-1.0346,3.6404,-10.4998,2.0174,8.487,-1.7391
1845,-0.843,2.7591,-10.4614,4.4522,8.5565,-1.6696
1850,-0.4598,2.2226,-9.9633,7.0957,8.8348,-1.5304
1855,-0.3449,1.8777,-9.3502,8.9739,9.6696,-1.4609
1860,-0.1916,2.2992,-9.1969,10.0174,10.087,-1.6696
1865,-0.2682,2.4142,-8.7754,10.5739,10.9217,-1.6
1870,-0.0766,2.3375,-8.737,11.7565,11.8261,-1.5304
1875,0.0,2.1459,-8.1239,13.7043,12.6609,-1.2522
1880,-0.2299,1.8011,-8.2005,16.0,12.9391,-1.3217
1885,-0.2299,1.8011,-8.1239,18.4348,12.6609,-1.113
1890,-0.5365,1.6861,-8.0473,20.2435,12.5913,-0.9043
1895,-0.6898,1.1113,-7.6257,22.3304,12.8,-0.5565
1900,-0.5748,1.0346,-7.9323,24.6957,13.7739,-0.1391
1905,-0.3832,0.8814,-8.1239,26.7826,14.4696,0.2087
1910,-0.8047,1.1496,-8.4305,27.1304,15.5826,0.6261
1915,-0.7281,1.5711,-8.7754,26.2957,14.4696,0.4174
1920,-0.6131,1.5711,-8.9286,25.3913,12.3826,-0.1391
1925,-0.5365,1.4945,-8.9286,24.1391,11.0609,-0.2783
1930,-0.9197,1.4562,-9.0819,22.8174,10.5739,-0.5565
1935,-0.843,1.6095,-9.2735,22.0522,10.2261,-0.7652
1940,-0.6898,1.7244,-9.2735,21.5652,10.6435,-0.9043
1945,-0.7664,2.1076,-9.4268,21.1478,11.6174,-0.9739
1950,-0.4598,2.4142,-9.4651,20.5913,12.9391,-0.9739
1955,-0.3832,2.4908,-9.4268,20.0348,13.9826,-0.8348
1960,-0.5365,2.3375,-9.7334,20.313,14.2609,-0.7652
1965,-0.5365,2.2992,-9.5418,20.4522,14.887,-0.6957
1970,-0.4982,2.2226,-9.7717,20.9391,15.513,-0.5565
1975,-0.3066,1.9543,-9.6184,21.8435,15.1652,-0.487
1980,-0.0766,1.6861,-10.2315,22.887,15.0261,0.0
1985,-0.2299,1.8011,-9.81,22.887,14.887,0.2783
1990,-0.0383,1.6478,-10.1166,22.6087,14.887,0.6261
1995,-0.115,1.4179,-10.1549,22.6783,14.1913,0.5565
2000,0.0766,1.1113,-10.4614,21.9826,13.8435,0.6261
2005,0.3449,1.073,-11.1512,18.9217,13.9826,0.6261
2010,0.0383,1.3029,-10.1549,17.0435,13.7043,0.5565
2015,0.3066,1.1496,-10.3848,17.113,12.8,0.4174
2020,-0.958,1.5711,-9.5801,16.0,9.4609,0.5565
2025,-0.0383,1.073,-10.3848,15.4435,10.8522,0.487
2030,0.0766,0.958,-10.4231,14.6087,12.1739,0.6261
2035,0.0383,0.958,-10.5381,13.4957,12.1043,0.7652
2040,-0.2682,1.1879,-9.7717,11.0609,10.1565,0.8348
2045,0.2299,1.0346,-10.2315,10.9913,10.7826,0.9043
2050,-0.1533,0.9197,-10.3848,11.687,9.113,0.3478
2055,-0.2299,0.7281,-10.1932,10.0174,10.2957,0.5565
2060,-0.1533,0.9963,-10.1549,7.9304,11.7565,0.487
2065,0.0,1.2646,-10.1549,5.9826,12.1043,0.6261
2070,-0.115,1.3029,-10.1166,4.7304,11.9652,0.6261
2075,-0.1533,1.3412,-10.1932,3.687,11.687,0.5565
2080,0.0,1.3795,-9.925,2.7826,11.5478,0.6957
2085,-0.1533,1.2263,-9.925,1.9478,11.3391,0.6957
2090,-0.1533,1.3795,-9.8866,0.9739,10.9913,0.6957
2095,-0.1533,1.1879,-9.8483,0.1391,10.5739,0.487
2100,-0.1533,1.2646,-9.81,-0.8348,10.0174,0.487
2105,0.0,1.3795,-9.5801,-1.5304,9.5304,0.487
2110,0.0,1.5711,-9.5801,-1.9478,9.113,0.487
2115,-0.0383,1.4945,-9.6184,-2.4348,8.7652,0.5565
2120,0.0,1.4945,-9.5034,-2.6435,8.487,0.487
2125,0.0,1.2646,-9.5418,-2.9217,8.2087,0.5565
2130,0.0,1.5328,-9.2735,-3.3391,8.0696,0.5565
2135,-0.1533,1.4179,-9.3502,-3.7565,7.7217,0.6261
2140,-0.0766,1.6095,-9.1969,-4.1043,7.3043,0.6261
2145,0.0,1.5711,-9.3885,-4.1739,7.0261,0.5565
2150,0.0,1.6478,-9.4268,-4.1043,6.8174,0.487
2155,-0.0766,1.4945,-9.2735,-4.0348,6.4,0.4174
2160,-0.115,1.6478,-9.4268,-3.687,5.913,0.4174
2165,-0.115,1.6478,-9.4268,-3.4087,5.4957,0.2783
2170,0.0,1.6478,-9.5801,-2.9913,5.2174,0.2087
2175,-0.1533,1.7244,-9.6184,-2.4348,5.0087,0.2087
2180,-0.115,1.7627,-9.5418,-2.087,4.8,0.1391
2185,-0.115,1.7627,-9.5801,-1.9478,4.5217,0.0696
2190,-0.0383,1.7627,-9.7334,-1.5304,4.5217,0.0696
2195,0.0,1.7627,-9.5801,-1.2522,4.5913,0.0696
2200,-0.0383,1.7244,-9.695,-1.2522,4.5913,0.0696
2205,-0.0766,1.7244,-9.6567,-1.1826,4.5913,0.0696
2210,0.0,1.6478,-9.6184,-1.0435,4.6609,0.0
2215,0.0,1.5328,-9.695,-1.113,4.5217,0.0
2220,0.0,1.7244,-9.6184,-0.9043,4.7304,-0.0696
2225,0.0,1.6478,-9.7717,-0.2087,4.7304,0.1391
2230,-0.0766,1.6478,-9.7334,0.0,4.7304,0.0696
2235,0.0,1.6095,-9.7717,-0.1391,4.9391,0.1391
2240,-0.0766,1.7244,-9.6184,-0.2087,5.0783,0.1391
2245,-0.1916,1.4945,-9.4268,0.1391,5.0087,0.1391
2250,-0.115,1.7627,-9.81,0.487,5.0087,0.1391
2255,0.0,1.6478,-9.8483,0.6957,5.2174,0.1391
2260,0.0,1.7244,-9.81,0.7652,5.3565,0.0696
2265,0.0,1.8011,-9.81,0.8348,5.3565,0.1391
2270,-0.0766,1.7244,-9.81,0.7652,5.3565,0.0696
2275,0.0,1.6478,-9.7717,0.6261,5.4261,0.0
2280,-0.0766,1.6861,-9.7334,0.6261,5.3565,0.0696
2285,-0.115,1.7244,-9.6567,0.6261,5.3565,0.0
2290,-0.115,1.6478,-9.6184,0.5565,5.3565,0.0
2295,-0.0383,1.6478,-9.6567,0.9739,5.2174,0.0696
2300,0.0,1.6095,-9.695,1.3217,4.9391,-0.0696
2305,0.0,1.5711,-9.7334,1.3913,4.8696,0.0
2310,0.0,1.5711,-9.7334,1.3217,4.6609,0.0
2315,-0.0766,1.5328,-9.5801,1.1826,4.8,0.0
2320,0.0,1.6478,-9.6184,1.1826,4.9391,-0.0696
2325,-0.0383,1.5711,-9.5034,1.1826,4.8696,-0.1391
2330,-0.115,1.5711,-9.6184,1.113,5.0087,-0.0696
2335,0.0,1.4945,-9.5034,1.113,5.1478,-0.1391
2340,-0.0383,1.4179,-9.81,1.0435,5.1478,-0.1391
2345,-0.0383,1.4562,-9.6567,1.113,5.2174,-0.0696
2350,-0.0766,1.4179,-9.5418,1.0435,5.1478,0.0
2355,-0.0766,1.4179,-9.5418,0.9739,5.2174,-0.0696
2360,-0.0383,1.4945,-9.695,0.9043,5.1478,-0.0696
2365,-0.2682,1.5328,-9.5418,0.7652,5.1478,0.0
2370,-0.0383,1.4562,-9.6567,0.6261,5.0783,-0.2087
2375,0.0,1.4562,-9.5801,0.7652,4.8696,-0.2783
2380,0.0,1.5328,-9.7334,0.7652,4.7304,-0.2783
2385,-0.0766,1.4179,-9.6567,0.8348,4.5217,-0.2087
2390,0.0,1.5328,-9.6567,0.6261,4.4522,-0.2783
2395,0.0,1.4945,-9.5801,0.7652,4.5217,-0.2087
2400,-0.115,1.5328,-9.5418,0.8348,4.7304,-0.2783
2405,-0.0766,1.3412,-9.6184,0.9739,5.0087,-0.1391
2410,-0.0766,1.4179,-9.8866,1.0435,5.2174,-0.2087
2415,-0.115,1.4945,-9.6567,1.0435,5.3565,-0.2783
2420,-0.0766,1.3795,-9.7334,0.9043,5.287,-0.1391
2425,0.0,1.3795,-9.8483,0.6957,5.2174,-0.2087
2430,-0.0766,1.4945,-9.7717,0.4174,5.287,-0.1391
2435,-0.0766,1.3795,-9.7334,0.3478,5.3565,-0.1391
2440,0.0,1.4179,-9.81,0.1391,5.5652,-0.1391
2445,-0.115,1.5328,-9.7717,-0.0696,5.6348,-0.0696
2450,-0.115,1.4945,-9.8483,-0.2783,5.7739,-0.0696
2455,-0.0766,1.4179,-9.7334,-0.4174,5.8435,-0.1391
2460,-0.0383,1.4945,-9.7717,-0.5565,5.7739,0.0
2465,-0.0383,1.4945,-9.7717,-0.6261,5.7739,-0.1391
2470,-0.0766,1.4562,-9.7334,-0.6261,5.6348,-0.0696
2475,-0.1533,1.4945,-9.6567,-0.6261,5.5652,-0.0696
2480,0.0,1.5711,-9.5034,-0.6957,5.4261,-0.1391
2485,-0.1533,1.4562,-9.695,-0.8348,5.3565,-0.0696
2490,-0.115,1.4562,-9.6567,-0.6957,5.1478,-0.0696
2495,0.0,1.4945,-9.6184,-0.6957,5.0783,-0.1391
2500,-0.1533,1.6095,-9.695,-0.6957,5.1478,-0.1391
2505,-0.115,1.6095,-9.5034,-0.6261,5.1478,-0.1391
2510,0.0,1.5328,-9.6567,-0.6957,5.1478,-0.0696
2515,-0.1533,1.6095,-9.6184,-0.5565,5.2174,0.0
2520,0.0,1.5711,-9.695,-0.487,5.3565,-0.2087
2525,-0.115,1.5328,-9.6567,-0.4174,5.4957,0.0
2530,-0.0383,1.5328,-9.695,-0.4174,5.6348,0.0
2535,0.0,1.5328,-9.6184,-0.487,5.7739,0.0696
2540,0.0,1.4945,-9.695,-0.6261,5.913,0.0696
2545,0.0,1.4179,-9.7334,-0.9043,6.2609,0.0696
2550,0.0,1.5711,-9.6567,-1.0435,6.2609,0.0696
2555,-0.0383,1.5328,-9.7334,-0.9739,6.1913,0.0696
2560,0.0,1.4562,-9.6567,-0.9739,6.1217,0.0696
2565,0.0,1.4945,-9.7717,-0.9043,5.9826,0.0
2570,-0.115,1.4562,-9.7334,-0.7652,5.9826,0.0696
2575,-0.0383,1.4562,-9.695,-0.6957,5.8435,0.0
2580,0.0,1.4562,-9.6184,-0.6957,5.7043,0.0
2585,0.0383,1.5711,-9.695,-0.6261,5.6348,0.0696
2590,-0.0766,1.6095,-9.7717,-0.6261,5.4957,0.0696
2595,0.0,1.4945,-9.5801,-0.6261,5.5652,0.0696
2600,-0.0766,1.5711,-9.6184,-0.6261,5.6348,0.0696
2605,-0.0766,1.4945,-9.695,-0.5565,5.5652,0.0696
2610,0.0,1.4945,-9.6567,-0.4174,5.7043,0.2087
2615,-0.115,1.4945,-9.6567,-0.2783,5.6348,0.1391
2620,0.0,1.4945,-9.5801,-0.1391,5.5652,0.0
2625,-0.0766,1.5711,-9.6567,-0.1391,5.7739,0.0
2630,-0.0383,1.4945,-9.6184,0.0,5.7043,0.0696
2635,0.0,1.4945,-9.695,-0.0696,5.7739,0.0696
2640,0.0,1.6095,-9.6567,0.0,5.913,0.0696
2645,0.0,1.5328,-9.7334,-0.0696,5.913,0.0696
2650,0.0,1.4945,-9.7334,0.0,5.9826,0.0
2655,0.0,1.4562,-9.6567,-0.1391,5.8435,0.0
2660,0.0383,1.4562,-9.7334,-0.1391,5.7043,0.0
2665,0.0,1.4945,-9.695,-0.2087,5.5652,-0.1391
2670,-0.0383,1.5711,-9.6184,-0.1391,5.4957,-0.1391
2675,0.0,1.4945,-9.8483,-0.2087,5.3565,-0.1391
2680,0.0,1.4562,-9.7334,-0.2087,5.287,-0.0696
2685,0.0,1.4562,-9.7334,-0.2087,5.1478,-0.1391
2690,0.0,1.4562,-9.695,-0.1391,5.0783,-0.2783
2695,-0.0766,1.3412,-9.5801,-0.2087,4.9391,-0.2783
2700,0.0,1.4945,-9.5801,-0.3478,4.7304,-0.2087
2705,0.0,1.5711,-9.5034,-0.487,4.6609,-0.2087
2710,-0.0383,1.4562,-9.5034,-0.487,4.5913,-0.2783
2715,-0.0383,1.5328,-9.6567,-0.3478,4.5217,-0.2087
2720,0.0,1.5711,-9.695,-0.0696,4.4522,-0.0696
2725,0.0,1.4562,-9.6184,0.2087,4.5217,-0.1391
2730,-0.0766,1.5711,-9.6567,0.487,4.3826,-0.2087
2735,-0.0383,1.6095,-9.6184,0.8348,4.5217,-0.2087
2740,0.0,1.6095,-9.7334,1.6696,5.0087,0.0
2745,0.0,1.4562,-9.7334,1.9478,5.0087,0.0
2750,0.4982,1.7627,-9.81,2.7826,3.2,-0.3478
2755,-0.0766,1.2646,-9.7334,3.4087,1.3217,-0.6261
2760,-0.1916,1.3412,-9.4268,1.8783,3.3391,-0.2783
2765,0.0,1.3412,-9.81,1.2522,4.0348,-0.2783
2770,-0.0383,1.5328,-9.6567,1.113,4.3826,-0.1391
2775,-0.0383,1.4562,-9.7334,1.113,4.5913,-0.1391
2780,0.3066,1.2263,-9.3885,0.9739,4.5217,-0.2783
2785,0.0,1.5328,-9.6567,0.487,4.2435,-0.2087
2790,0.0,1.3412,-9.6567,0.0,4.1043,-0.2087
2795,-0.0383,1.4945,-9.695,-0.2087,4.0348,-0.2087
2800,-0.0766,1.4179,-9.695,-0.2783,3.8957,-0.2087
2805,0.0,1.3795,-9.6184,-0.3478,4.0348,-0.2087
2810,-0.115,1.5711,-9.5801,-0.3478,4.0348,-0.2783
2815,-0.0766,1.4179,-9.7717,-0.2783,4.1043,-0.2087
2820,-0.0383,1.4945,-9.5801,-0.2783,4.3826,-0.2783
2825,0.0,1.4179,-9.6567,-0.0696,4.5217,-0.2087
2830,-0.0383,1.4179,-9.695,0.0,4.7304,-0.1391
2835,0.0,1.4179,-9.695,0.0,4.8696,-0.0696
2840,-0.115,1.4179,-9.695,-0.0696,5.1478,-0.1391
2845,0.0766,1.4179,-9.5801,-0.2087,5.287,-0.0696
2850,0.0,1.4179,-9.6567,-0.487,5.4957,-0.0696
2855,0.0,1.4179,-9.7334,-0.487,5.5652,-0.0696
2860,0.0,1.4179,-9.5418,-0.4174,5.5652,0.0
2865,-0.2299,1.4179,-9.7334,-0.4174,5.6348,0.0
2870,0.0,1.6095,-9.6567,-0.4174,5.7043,0.0
2875,0.0,1.4562,-9.7334,-0.1391,5.4957,-0.0696
2880,0.0383,1.3795,-9.5801,-0.0696,5.2174,-0.0696
2885,0.0766,1.7627,-10.2698,-0.0696,5.0783,-0.0696
2890,0.0,1.4562,-9.695,0.0,4.9391,-0.1391
2895,0.0,1.4562,-9.7717,-0.2783,4.8696,-0.1391
2900,-0.0383,1.5711,-9.6567,-0.3478,4.6609,-0.0696
2905,-0.0383,1.4562,-9.695,-0.4174,4.6609,-0.2087
2910,0.0,1.4562,-9.6184,-0.3478,4.5217,-0.1391
2915,0.0,1.6478,-9.7334,-0.2783,4.5217,-0.1391
2920,-0.0383,1.5711,-9.6567,-0.1391,4.5913,-0.2087
2925,-0.1533,1.4945,-9.5801,0.0696,4.6609,-0.1391
2930,0.0,1.4179,-9.5801,0.2087,4.7304,-0.0696
2935,-0.115,1.5711,-9.5034,0.4174,4.8696,-0.1391
2940,-0.0766,1.4562,-9.6184,0.7652,5.1478,0.0
2945,0.0,1.3412,-9.6567,1.3217,5.4957,0.0696
2950,0.0,1.3795,-9.6184,0.9739,5.287,0.0
2955,-0.0383,1.3029,-9.5801,0.7652,5.2174,0.0
2960,-0.1916,1.5711,-9.5801,0.4174,5.0783,-0.2087
2965,-0.0766,1.4179,-9.5418,0.2087,5.0783,-0.0696
2970,-0.0383,1.4562,-9.7334,0.1391,5.0087,-0.1391
2975,-0.115,1.4179,-9.695,0.0,5.1478,-0.0696
2980,0.0,1.4562,-9.5418,-0.1391,5.1478,-0.0696
2985,0.0,1.3412,-9.7334,-0.3478,5.1478,-0.1391
2990,-0.0766,1.1113,-9.5801,-0.3478,5.0783,-0.1391
2995,-0.0766,1.3795,-9.7717,-0.4174,5.1478,-0.0696
