timestamp,accX,accY,accZ,gyroX,gyroY,gyroZ
0,0.5365,-9.3118,-3.832,-7.5826,-7.9304,8.0
5,0.7664,-9.2735,-3.6404,-8.8348,-6.6783,8.6261
10,0.9963,-9.1586,-3.9853,-10.1565,-5.4957,9.0435
15,1.1113,-8.9286,-4.1386,-11.7565,-4.1739,9.3913
20,1.3795,-9.0436,-4.2536,-13.7043,-3.2696,9.5304
25,1.4179,-8.7754,-4.6368,-15.5826,-2.2957,9.6
30,1.5328,-9.0053,-4.7517,-17.8087,-1.113,9.6
35,1.5328,-8.8903,-4.8667,-20.0348,0.4174,9.4609
40,1.8011,-9.2352,-5.02,-21.8435,2.2957,9.2522
45,1.7244,-9.2735,-5.0966,-23.513,4.5217,8.6261
50,1.7244,-9.5801,-5.4032,-24.8348,7.3043,7.7913
55,1.8777,-9.81,-5.4798,-25.7391,10.4348,6.5391
60,1.8777,-10.0016,-5.7864,-26.3652,13.7043,4.9391
65,1.9927,-10.1932,-5.863,-26.6435,17.3217,3.2
70,1.9543,-10.3082,-6.0546,-26.5739,21.3565,1.2522
75,1.9927,-10.4998,-6.0929,-26.3652,25.4609,-0.8348
80,1.8394,-10.6147,-6.2079,-26.2957,29.4261,-3.0609
85,1.8011,-10.5764,-6.3612,-26.713,32.9739,-5.4261
90,1.6861,-10.6147,-6.1313,-27.4087,35.8957,-7.4435
95,1.3795,-10.5764,-6.0546,-28.4522,37.7739,-9.1826
100,1.0346,-10.5381,-5.863,-29.6348,38.3304,-10.713
105,0.7281,-10.7297,-5.3648,-30.9565,37.1478,-11.7565
110,0.5748,-10.653,-4.9433,-31.9304,34.7826,-12.3826
115,0.3066,-10.8063,-4.6368,-32.4174,31.7217,-12.8
120,0.1533,-10.9596,-4.2919,-32.2087,28.3826,-13.0087
125,0.0383,-11.0746,-4.062,-31.3739,25.0435,-13.2174
130,0.0,-11.1512,-3.6787,-30.1217,21.7739,-13.4957
135,-0.3066,-11.2279,-3.6021,-28.4522,18.713,-13.9826
140,-0.4215,-11.1129,-3.3722,-26.9913,15.9304,-14.4696
145,-0.6131,-10.9596,-3.3722,-25.6,13.287,-14.7478
150,-0.8047,-11.0363,-3.2955,-24.3478,10.7826,-15.0261
155,-0.9963,-10.768,-3.2189,-23.0261,8.2783,-14.9565
160,-0.843,-10.653,-3.3722,-21.6348,5.913,-14.7478
165,-0.8047,-10.4614,-3.3339,-19.8957,3.687,-14.1913
170,-0.6514,-10.3082,-3.4105,-18.2261,1.8783,-13.4957
175,-0.3066,-10.2315,-3.4871,-16.4174,0.2783,-12.5913
180,-0.2682,-9.925,-3.5638,-14.6087,-0.9739,-11.6174
185,0.0383,-9.8483,-3.7554,-12.8696,-2.2261,-10.4348
190,0.2299,-9.5418,-3.6021,-11.1304,-3.1304,-9.1826
195,0.5365,-9.4268,-3.6787,-9.9478,-3.687,-8.0
200,0.7281,-9.2352,-3.7937,-9.113,-3.7565,-6.8174
205,1.1113,-8.967,-3.832,-8.7652,-3.6174,-5.8435
210,1.1113,-8.852,-3.8704,-8.9739,-3.2,-4.8696
215,1.3795,-8.6221,-3.5638,-9.5304,-2.5739,-4.0348
220,1.4562,-8.4688,-4.0236,-10.2957,-1.9478,-3.2696
225,1.4945,-8.4305,-4.062,-10.9913,-1.3217,-2.5043
230,1.6478,-8.3921,-4.1003,-11.7565,-0.6957,-2.0174
235,1.916,-8.2772,-4.1386,-12.4522,0.0,-1.6
240,1.8777,-8.2772,-4.1769,-13.1478,0.9043,-1.3217
245,1.9543,-8.2005,-4.1769,-14.2609,2.0174,-1.0435
250,1.8011,-7.9323,-4.3685,-15.7217,3.2696,-1.2522
255,1.8777,-8.1622,-4.3302,-17.3913,4.6609,-1.3913
260,1.9927,-8.1622,-4.3685,-19.4087,5.7739,-1.5304
265,1.916,-8.1622,-4.4452,-21.5652,7.2348,-1.6696
270,1.9543,-8.2389,-4.2919,-23.7913,8.9043,-1.8087
275,1.8777,-8.2389,-4.3302,-25.6696,10.5043,-1.7391
280,1.8011,-8.4305,-4.4452,-27.2696,11.8957,-1.6
285,1.8394,-8.4688,-4.5601,-28.5217,13.2174,-1.5304
290,1.916,-8.6604,-4.7134,-29.5652,14.4,-0.9043
295,1.9543,-8.6987,-4.7517,-30.5391,15.7913,-0.2087
300,2.031,-8.5838,-4.7517,-31.1652,17.3217,0.6261
305,2.1459,-8.6604,-4.6751,-31.4435,18.713,1.5304
310,2.1459,-8.852,-4.4835,-32.0696,19.9652,2.5043
315,1.9927,-8.6604,-4.7517,-32.5565,20.9391,3.4783
320,1.8777,-8.967,-4.6368,-33.113,21.7739,4.3826
325,2.0693,-8.852,-4.6751,-33.7391,22.4696,5.4261
330,2.031,-9.0053,-4.6368,-34.2957,23.2348,6.4
335,2.031,-8.8903,-4.6368,-34.713,24.2087,7.3043
340,2.1076,-8.967,-4.5601,-35.2,25.4609,8.1391
345,2.1459,-9.0053,-4.6751,-35.687,26.5739,8.9739
350,2.031,-8.852,-4.6751,-35.9652,28.1043,9.4609
355,2.1076,-8.7754,-4.5984,-36.1739,29.4957,9.8783
360,2.1843,-8.737,-4.6751,-36.3826,31.1652,10.1565
365,2.0693,-8.5454,-4.905,-36.4522,33.113,10.3652
370,1.9543,-8.5454,-4.905,-36.4522,35.1304,10.5043
375,2.1076,-8.3921,-5.0583,-36.3826,37.1478,10.5043
380,1.9927,-8.3921,-5.02,-36.1043,39.0957,10.5043
385,1.8011,-8.4688,-5.0966,-35.6174,41.0435,10.3652
390,1.8394,-8.5454,-4.9433,-34.8522,42.8522,10.087
395,1.8011,-8.5454,-4.9433,-33.8783,44.6609,9.8783
400,1.7627,-8.5838,-4.8667,-32.7652,46.3304,9.6696
405,1.6861,-8.5454,-4.79,-31.7217,47.7913,9.3913
410,1.8011,-8.7754,-4.5601,-30.8174,48.9739,9.113
415,1.8011,-8.5838,-4.6368,-30.3304,50.2261,8.9043
420,1.6095,-8.6604,-4.8284,-30.1217,51.3391,8.9043
425,1.6478,-8.6987,-4.9433,-30.5391,52.6609,8.8348
430,1.7244,-8.6987,-4.6368,-31.3043,53.8435,9.0435
435,1.5711,-8.7754,-4.8667,-32.4174,55.0957,9.3913
440,1.4562,-8.9286,-5.02,-33.4609,56.2087,9.9478
445,1.6095,-9.1202,-5.02,-34.0174,57.4609,10.5043
450,1.5328,-9.1586,-5.02,-34.0174,58.9913,11.3391
455,1.5711,-9.3118,-5.1349,-32.9739,60.9391,12.1739
460,1.7627,-9.4651,-5.1349,-31.3739,63.2348,13.0783
465,1.8011,-9.5801,-4.9816,-29.2174,65.7391,13.913
470,1.8394,-9.4651,-5.1349,-27.1304,68.4522,14.5391
475,1.916,-9.4651,-5.1349,-25.0435,71.0261,14.8174
480,1.916,-9.4651,-5.2116,-23.0261,73.113,14.887
485,1.7244,-9.2352,-5.5181,-21.0087,74.9217,14.6783
490,1.9543,-8.967,-5.5564,-19.6174,76.5217,14.3304
495,2.031,-8.8903,-5.6331,-18.7826,77.913,13.7043
500,1.9927,-8.6987,-5.6331,-18.6435,79.1652,12.8
505,1.7627,-8.6604,-5.5181,-19.2,80.0696,11.687
510,1.6095,-8.4688,-5.6331,-19.8957,80.487,10.4348
515,1.5711,-8.5838,-5.5948,-21.0087,80.2087,9.113
520,1.4179,-8.4688,-5.6714,-21.913,79.2348,7.7217
525,1.3029,-8.5071,-5.6714,-22.9565,77.9826,6.3304
530,1.1879,-8.5454,-5.7864,-23.9304,76.7304,5.0087
535,1.1879,-8.6221,-5.7864,-24.9043,75.6174,3.8957
540,0.843,-8.5838,-6.2845,-26.087,74.8522,3.3391
545,0.843,-8.9286,-5.5181,-26.9217,74.087,2.8522
550,0.7281,-9.0053,-5.5948,-27.4087,73.3217,2.5739
555,0.6514,-9.1586,-5.7864,-27.6174,72.487,2.4348
560,0.6898,-9.3502,-5.748,-27.4087,71.7913,2.4348
565,0.8047,-9.3502,-5.9013,-26.9913,71.2348,2.3652
570,0.8047,-9.3118,-6.0546,-26.713,70.887,2.4348
575,0.9197,-9.1969,-6.1313,-26.087,70.4,2.5739
580,1.1113,-9.3502,-6.1696,-25.5304,69.8435,2.3652
585,1.1496,-9.0819,-6.2079,-25.5304,69.4261,2.2261
590,1.3029,-8.8903,-6.3995,-25.7391,68.9391,1.8087
595,1.4562,-8.7754,-6.3612,-26.2261,68.6609,1.3913
600,1.5711,-8.6604,-6.5911,-26.9913,68.6609,0.9739
605,1.6861,-8.5838,-6.5911,-27.9652,68.8,0.2783
610,1.9543,-8.5454,-6.7444,-28.9391,69.287,-0.2087
615,2.031,-8.4305,-6.7444,-29.8435,70.0522,-0.8348
620,2.1459,-8.2772,-6.9743,-30.6783,71.1652,-1.4609
625,2.3759,-8.1622,-6.9743,-31.5826,72.3478,-2.1565
630,2.3759,-7.9323,-7.0126,-32.7652,73.6,-2.8522
635,2.5291,-7.6641,-7.1276,-33.8783,74.9217,-3.4087
640,2.6824,-7.7024,-7.2425,-35.5478,75.9652,-4.0348
645,2.4908,-7.4341,-7.3958,-37.3565,76.9391,-4.5913
650,2.7207,-7.2042,-7.4725,-39.6522,77.7739,-5.2174
655,2.8357,-7.2809,-7.5874,-42.0174,78.7478,-5.913
660,2.7591,-7.1659,-7.6257,-44.5913,80.4174,-6.4696
665,2.874,-7.0893,-7.8173,-46.8174,82.2957,-7.0261
670,2.9507,-7.0893,-7.6257,-48.6261,84.2435,-7.3739
675,2.989,-7.0126,-7.5874,-50.087,86.2609,-7.7913
680,2.9123,-7.0126,-7.6641,-51.3391,88.0696,-8.2087
685,2.989,-7.0509,-7.6257,-52.313,89.6696,-8.6261
690,2.7591,-7.1659,-7.5491,-52.9391,90.713,-8.9739
695,2.8357,-7.3192,-7.4341,-52.9391,91.0609,-9.5304
700,2.7591,-7.3575,-7.6257,-52.1739,90.8522,-10.2261
705,2.5675,-7.4341,-7.4341,-51.3391,90.5739,-10.713
710,2.6058,-7.5108,-7.5874,-50.5739,90.2957,-10.9913
715,2.5675,-7.7024,-7.7024,-49.3913,89.7391,-11.2
720,2.5675,-7.9706,-7.8173,-47.7217,89.113,-11.2696
725,2.6441,-8.0856,-7.779,-45.7739,88.2783,-11.1304
730,2.7207,-8.2389,-8.1239,-43.2696,87.513,-10.9217
735,2.7974,-8.2005,-8.2772,-40.6957,86.5391,-10.9217
740,2.7207,-8.1239,-8.6987,-37.7739,85.0783,-10.713
745,2.8357,-8.0089,-8.9286,-35.1304,83.5478,-10.4348
750,2.9507,-7.8557,-9.0436,-32.6261,82.4348,-10.087
755,2.9123,-7.5874,-9.0819,-30.6087,82.1565,-9.7391
760,2.7207,-7.2425,-9.1586,-28.8696,82.2957,-9.4609
765,3.0273,-7.3192,-9.1586,-27.6174,82.5739,-9.113
770,3.0273,-7.1659,-8.8903,-26.9913,82.9913,-8.9739
775,3.0273,-7.0509,-8.9286,-26.4348,83.6174,-8.6261
780,3.1806,-6.8977,-8.8903,-25.8783,84.2435,-8.2783
785,3.2955,-6.936,-8.6604,-25.5304,84.9391,-8.1391
790,3.2955,-6.8977,-8.5071,-25.2522,85.7043,-8.1391
795,3.3339,-6.7444,-8.7754,-25.5304,86.6783,-8.1391
800,3.2189,-6.7444,-8.8903,-25.9478,87.7217,-8.2087
805,3.2955,-6.7827,-8.9286,-26.6435,88.8348,-8.2783
810,2.9123,-6.821,-9.3502,-27.5478,89.8087,-8.3478
815,3.2189,-6.821,-9.3118,-28.3826,90.6435,-8.4174
820,3.1806,-6.7444,-9.3885,-29.4261,91.5478,-8.6957
825,2.989,-6.821,-9.1969,-30.8174,92.1043,-8.9043
830,2.874,-6.6677,-9.1202,-32.0,91.9652,-9.1826
835,2.874,-6.3995,-8.8137,-33.0435,91.3391,-9.4609
840,2.9507,-6.4378,-8.6987,-33.9478,90.5043,-9.7391
845,2.9123,-6.3229,-8.5454,-34.9913,89.6,-9.9478
850,2.7207,-6.2845,-8.737,-36.1043,88.9739,-9.8783
855,2.7974,-6.3229,-8.4688,-37.0087,88.5565,-9.4609
860,2.9123,-6.2845,-8.4688,-37.7043,88.1391,-8.8348
865,2.7974,-6.2845,-8.5071,-37.7739,87.7913,-8.0696
870,3.0273,-6.3229,-8.3921,-37.7739,87.7913,-7.2348
875,3.0656,-6.4761,-8.5071,-37.6348,88.0696,-6.5391
880,3.2189,-6.4761,-8.3538,-37.4261,88.8348,-5.7043
885,3.3339,-6.4761,-8.5454,-37.3565,89.6,-4.9391
890,3.3722,-6.4378,-8.3921,-37.4261,90.0174,-4.2435
895,3.3722,-6.3995,-8.3155,-37.2174,90.2261,-3.4783
900,3.4871,-6.4761,-8.2389,-37.5652,90.2261,-2.6435
905,3.3722,-6.5528,-8.1239,-37.913,90.087,-1.7391
910,3.2189,-6.5911,-7.9706,-38.4696,90.087,-0.6261
915,3.1039,-6.4761,-7.894,-38.8174,90.713,0.487
920,3.1423,-6.5145,-7.894,-39.3043,91.687,1.8783
925,3.0273,-6.6294,-7.9323,-39.2348,93.1478,3.4087
930,2.7974,-6.5528,-7.6641,-38.887,94.5391,5.0783
935,2.8357,-6.7061,-7.4725,-38.4,95.7217,6.887
940,2.7974,-6.5911,-7.5108,-37.4261,96.6261,8.5565
945,2.7207,-6.4378,-7.4341,-36.8,97.5304,10.2261
950,2.8357,-6.2079,-7.2809,-36.5913,98.4348,11.6174
955,2.7974,-6.2079,-7.3192,-36.6609,98.9217,12.8
960,2.8357,-6.1313,-7.3192,-37.2174,99.2,13.9826
965,2.7591,-5.863,-7.0126,-38.1913,99.687,15.0957
970,2.7207,-5.6331,-6.9743,-39.3739,100.2435,16.0696
975,2.4908,-5.4032,-7.0126,-40.6261,100.8,16.8348
980,2.5291,-5.3648,-6.821,-41.6696,101.287,17.5304
985,2.5291,-5.2882,-6.7827,-42.8522,101.6348,17.8087
990,2.3375,-5.0583,-6.7827,-44.0348,101.7739,17.9478
995,2.2226,-5.0583,-6.5528,-45.287,101.7739,18.087
1000,2.1076,-4.9816,-6.4761,-46.5391,101.4957,17.9478
1005,1.9927,-5.1349,-6.5145,-47.4435,101.287,17.7391
1010,1.8394,-5.0966,-6.3612,-48.0,101.2174,17.4609
1015,1.8777,-5.1349,-6.3995,-48.3478,101.4261,17.0435
1020,1.8011,-5.2116,-6.0929,-48.2087,102.0522,16.6261
1025,1.6861,-5.4032,-6.3612,-48.1391,102.6087,16.2087
1030,1.5328,-5.4415,-6.3612,-47.7913,102.887,16.0
1035,1.4179,-5.4798,-6.3612,-47.3739,103.0261,15.8609
1040,1.3795,-5.4798,-6.3229,-46.9565,103.2348,15.9304
1045,1.3412,-5.4798,-6.3995,-46.5391,103.513,16.0
1050,1.3029,-5.3265,-6.3612,-45.9826,103.7913,16.2087
1055,1.4179,-5.3648,-6.2462,-45.287,103.7217,16.4174
1060,1.3795,-5.1349,-5.863,-44.6609,103.5826,16.487
1065,1.4945,-4.9816,-5.6714,-43.8957,103.513,16.487
1070,1.5711,-5.02,-5.7097,-43.2696,103.7913,16.3478
1075,1.7244,-4.8284,-5.4032,-42.7826,104.5565,16.4174
1080,1.8011,-4.7517,-5.4415,-42.2957,105.4609,16.6261
1085,2.1459,-4.6751,-5.9013,-42.087,106.5043,17.2522
1090,2.1459,-4.7134,-5.5948,-42.4348,107.5478,18.0174
1095,2.2226,-4.6751,-5.4798,-43.1304,108.8,19.0609
1100,2.3375,-4.8284,-5.4798,-44.2435,110.1217,20.5913
1105,2.3759,-4.8667,-5.2882,-45.6348,111.3043,22.4696
1110,2.4908,-4.79,-5.2116,-47.3043,112.5565,24.487
1115,2.5675,-4.8667,-5.0583,-49.113,114.2261,26.8522
1120,2.6441,-4.8284,-5.0966,-51.2,115.9652,29.2174
1125,2.7207,-4.79,-4.7517,-53.1478,117.6348,31.8609
1130,2.6058,-4.8667,-4.8284,-55.1652,119.5826,34.5043
1135,2.6824,-4.9433,-4.4452,-56.9043,121.8783,37.0087
1140,2.6058,-5.0583,-4.5601,-58.1565,124.1739,39.0957
1145,2.4908,-4.9816,-4.3685,-59.0609,126.2609,40.8348
1150,2.4908,-5.1349,-4.3685,-59.3391,127.7913,42.5739
1155,2.4525,-5.2116,-4.2152,-59.2,129.2522,44.1739
1160,2.4525,-5.4415,-4.3302,-59.0609,130.5739,45.4261
1165,2.4525,-5.5181,-4.3685,-58.8522,131.8957,46.8174
1170,2.4142,-5.748,-4.4068,-58.4348,133.4261,48.0696
1175,2.3375,-5.748,-4.1003,-58.2261,135.3043,49.4609
1180,2.3759,-5.978,-4.2919,-58.0174,137.4609,51.1304
1185,2.3375,-5.978,-4.4835,-57.6,139.5478,52.9391
1190,2.4525,-6.1696,-4.2152,-56.9739,141.1478,54.7478
1195,2.5291,-6.0929,-4.5218,-56.1391,142.1217,56.8348
1200,2.4142,-6.0929,-4.1769,-54.8174,142.7478,58.9217
1205,2.3759,-6.0546,-4.2919,-53.4957,143.1652,61.2174
1210,2.4525,-6.0546,-4.2919,-52.6609,143.8609,63.4435
1215,2.5675,-6.0546,-4.1769,-52.1739,144.9739,66.087
1220,2.6824,-6.1313,-4.1386,-51.5478,146.087,68.3826
1225,2.9123,-6.5528,-3.9853,-49.7391,147.4087,69.913
1230,3.0273,-6.821,-3.832,-44.3826,147.8957,70.887
1235,3.2955,-7.2042,-3.7554,-37.2174,147.6174,70.887
1240,3.2572,-7.3192,-3.7171,-30.4,146.8522,70.0522
1245,3.1806,-7.3958,-3.5638,-24.5565,145.6696,68.1739
1250,3.4871,-7.5108,-3.4871,-19.8957,144.4174,65.2522
1255,3.2572,-7.3192,-3.0273,-15.9304,143.513,61.0087
1260,3.2189,-7.2809,-2.8357,-12.8,143.0957,56.487
1265,2.8357,-7.0509,-2.4908,-10.087,143.0957,52.1043
1270,2.7591,-6.7444,-2.4142,-7.5826,143.3739,47.7217
1275,2.5675,-6.5911,-2.1076,-6.4696,143.9304,43.6174
1280,2.3759,-6.3612,-1.8394,-6.1913,144.0,39.3043
1285,2.3375,-6.2079,-1.7627,-6.0522,143.4435,35.7565
1290,2.3375,-6.3229,-1.3412,-4.8,143.2348,33.1826
1295,2.1076,-6.0163,-1.1879,-1.6,143.3739,30.8174
1300,1.916,-6.2845,-0.9197,0.9043,143.8609,28.313
1305,1.8394,-6.2845,-0.9963,4.2435,142.1217,25.8783
1310,1.9927,-6.4378,-0.9197,7.7217,139.7565,23.4435
1315,1.8394,-6.5528,-0.7664,11.5478,137.6696,20.5913
1320,2.0693,-6.5145,-0.4215,14.6783,135.9304,17.1826
1325,1.9543,-6.5911,-0.0383,17.113,133.287,13.4261
1330,1.916,-7.0126,0.0766,20.2435,129.5304,9.9478
1335,2.6824,-7.2809,0.0766,24.7652,125.0087,6.8174
1340,2.6058,-7.2809,0.1533,29.5652,121.6,3.687
1345,2.8357,-7.0126,0.1916,34.6435,118.7478,1.3913
1350,3.2572,-7.2809,0.0383,37.0783,116.0348,-1.3913
1355,4.1769,-7.3575,-0.0383,37.1478,112.1391,-5.2174
1360,4.1386,-7.8173,-0.6131,37.0087,107.3391,-9.9478
1365,3.9853,-8.5454,-1.2646,38.6783,101.913,-14.4696
1370,4.4452,-8.9286,-2.2226,41.6696,97.3217,-18.1565
1375,5.0583,-9.4651,-3.1423,45.3565,94.1913,-19.7565
1380,5.6331,-9.81,-3.6021,49.9478,93.8435,-19.8261
1385,6.7061,-10.6914,-3.3722,55.3043,95.4435,-18.1565
1390,6.936,-10.883,-3.8704,64.487,97.0435,-16.9043
1395,7.8173,-11.5727,-3.7554,76.4522,99.4087,-15.0957
1400,8.2389,-12.3391,-4.1003,91.3391,101.8435,-12.3826
1405,8.852,-12.8756,-4.3302,107.4783,103.3739,-8.2783
1410,9.1586,-13.3355,-4.4068,122.9913,104.8348,-3.4087
1415,9.925,-13.6037,-4.9816,135.7217,106.3652,0.6957
1420,11.1895,-13.9103,-5.3265,146.0174,106.9217,3.687
1425,12.0709,-14.5234,-5.4415,154.3652,109.9826,7.7217
1430,11.8027,-15.4048,-5.2116,161.3913,115.8957,13.7739
1435,11.5727,-17.3208,-5.02,170.3652,119.3043,19.1304
1440,12.1092,-18.777,-5.1349,179.5478,118.6087,22.7478
1445,13.5271,-18.9302,-5.5181,192.9739,115.1304,27.1304
1450,15.7496,-18.662,-6.2462,204.8,112.487,31.7913
1455,17.2441,-18.2021,-6.2845,211.687,111.8609,33.7391
1460,17.704,-18.2788,-6.2462,213.7043,111.3043,33.8087
1465,18.3554,-18.2788,-6.0546,212.7304,108.7304,33.7391
1470,19.4284,-18.3554,-5.9013,209.4609,104.2783,33.4609
1475,20.7696,-19.1218,-5.1732,203.7565,101.0087,32.9043
1480,21.4211,-20.3481,-4.3685,198.8174,99.4087,32.0696
1485,21.6893,-21.3061,-2.6058,198.9565,101.7739,30.6087
1490,22.609,-21.651,-1.3029,206.4,104.4174,29.287
1495,23.8352,-21.8809,0.2682,217.7391,106.5043,28.1739
1500,24.3334,-22.0725,1.7627,227.5478,109.2174,28.1043
1505,23.0688,-22.1491,2.6824,231.6522,112.5565,26.7826
1510,20.9995,-22.0725,2.989,231.1652,114.2261,27.3391
1515,18.5087,-22.8006,2.989,228.8,111.7913,30.1913
1520,15.673,-23.3754,2.7974,226.5043,105.3913,32.9043
1525,12.684,-23.567,2.5675,227.1304,97.3913,35.5478
1530,9.9633,-23.0305,2.0693,232.0696,88.5565,37.0087
1535,7.3958,-21.8809,1.3029,240.7652,79.8609,37.0783
1540,5.0966,-20.1948,1.1113,252.1739,71.7217,34.5739
1545,3.7554,-18.3554,2.1076,264.4174,65.6,30.4
1550,3.1806,-16.5161,2.7207,276.4522,60.1043,25.0435
1555,2.7591,-14.6384,3.0273,284.313,58.4348,16.6261
1560,1.8777,-13.6037,2.6824,285.4261,61.287,6.7478
1565,1.2646,-12.1475,2.5291,282.4348,66.1565,-3.2
1570,1.6861,-11.6877,2.7591,275.8957,72.0696,-13.2174
1575,1.6095,-12.3391,2.2992,269.4957,78.4696,-22.4
1580,1.5328,-12.2625,1.7244,265.4609,81.9478,-29.2174
1585,1.2646,-12.6074,0.6898,265.3913,84.0348,-33.3913
1590,1.1496,-13.1055,0.5365,270.8174,85.9826,-34.2261
1595,2.6058,-13.0672,-0.4598,280.7652,86.1217,-31.513
1600,2.7207,-12.3775,-1.1496,290.7826,89.0435,-28.313
1605,2.9123,-11.4961,-1.5328,298.8522,95.7217,-23.8609
1610,2.6824,-9.9633,-1.916,304.5565,101.8435,-19.4783
1615,2.6441,-8.852,-1.7244,305.8087,105.6696,-15.0261
1620,1.4945,-7.5108,-1.8394,302.4696,109.5652,-11.5478
1625,-0.6514,-6.821,-1.6861,296.6957,114.3652,-8.0
1630,-2.2609,-6.1313,-1.2646,291.3391,121.2522,-7.1652
1635,-3.9853,-5.5181,-1.1879,287.4435,125.3565,-8.0
1640,-4.9433,-4.9816,-0.4215,284.9391,126.887,-7.3739
1645,-5.1349,-4.9433,0.4598,285.4957,125.5652,-5.4261
1650,-5.5948,-4.7517,0.7664,288.6957,118.4696,-4.5913
1655,-4.905,-4.905,1.3412,293.4261,108.8,-1.6
1660,-4.1769,-4.79,1.4945,300.8,101.4957,-6.4
1665,-3.4105,-4.2536,1.6861,310.8174,92.2435,-16.6957
1670,-2.874,-3.3722,2.0693,320.9043,85.4261,-25.3217
1675,-2.2992,-2.5675,2.7591,327.6522,83.1304,-30.4696
1680,-2.4908,-1.4945,3.832,330.087,82.2261,-33.3913
1685,-2.1843,-0.2299,4.8667,328.7652,81.2522,-34.713
1690,-1.3029,0.6131,5.8247,323.1304,75.2696,-33.2522
1695,0.0,1.4562,6.2462,316.8696,66.3652,-29.287
1700,1.3795,2.031,6.8977,311.1652,60.2435,-25.7391
1705,2.4142,2.9507,7.5108,305.5304,57.5304,-25.9478
1710,3.2572,4.1769,8.2772,296.6261,58.4348,-25.8087
1715,4.062,5.748,9.5801,283.1304,61.287,-23.5826
1720,4.6368,7.2042,10.3848,265.9478,63.2348,-19.7565
1725,5.6714,8.2005,10.4998,245.0783,62.2609,-14.7478
1730,7.0126,9.2735,10.0782,222.1913,58.6435,-9.3217
1735,7.7024,10.4998,9.7334,201.0435,55.4435,-5.1478
1740,7.779,11.9559,9.5034,183.3043,55.1652,0.0696
1745,7.6257,12.9523,9.2735,168.4174,53.7043,7.2348
1750,7.1276,14.2552,9.5801,155.4087,48.2087,12.5217
1755,7.0126,15.3664,10.2698,141.7739,40.8348,14.6783
1760,7.9706,16.1329,10.8446,126.4696,32.6261,15.7913
1765,9.5418,16.6693,10.4998,109.3565,27.687,18.3652
1770,10.768,16.8609,9.5418,91.1304,31.4435,22.5391
1775,10.7297,16.9376,8.852,73.8087,44.0348,27.7565
1780,9.7717,16.5161,9.1586,56.3478,59.6174,33.8087
1785,8.2772,15.3664,11.1895,37.4957,72.2783,39.513
1790,7.2042,13.1439,12.2625,16.6957,79.0957,43.4087
1795,5.863,10.9213,11.6111,-1.5304,79.3043,46.1913
1800,5.863,9.1969,9.5801,-13.7043,78.6783,50.0174
1805,5.6331,7.779,7.894,-23.1652,86.3304,54.2609
1810,4.8667,6.3612,7.0893,-30.1217,98.6435,58.6435
1815,3.2955,4.9816,6.6294,-36.313,108.8696,62.2609
1820,1.9543,3.5638,6.0929,-41.7391,114.6435,64.7652
1825,0.8814,2.4142,5.6331,-45.5652,114.9913,66.9217
1830,0.4598,1.6095,5.5564,-48.2087,111.7217,67.6174
1835,0.115,1.073,5.3648,-49.9478,106.8522,66.7826
1840,0.1533,0.6514,4.79,-51.8957,102.1913,64.5565
1845,-0.0766,0.4215,4.5218,-54.887,97.9478,61.287
1850,0.0383,0.6898,4.3302,-58.9913,94.4696,56.9739
1855,0.0766,0.958,4.5218,-61.913,90.7826,52.3826
1860,0.1916,1.3412,4.7517,-63.7913,85.7739,48.5565
1865,0.3832,1.7244,4.79,-64.7652,81.6696,44.2435
1870,0.3832,2.0693,4.9433,-65.0435,77.7043,38.6783
1875,0.2682,2.4525,5.02,-64.487,72.2087,32.7652
1880,0.4215,2.874,5.1732,-63.8609,65.9478,26.5739
1885,0.8814,2.9507,5.1732,-63.0261,60.0348,20.5913
1890,0.9963,3.1423,5.4798,-62.1913,54.887,15.0261
1895,1.2263,2.9507,5.5948,-61.5652,51.1304,9.6
1900,0.9963,2.7974,5.3265,-61.2174,48.9043,4.9391
1905,0.8814,2.6058,5.5564,-61.1478,46.6783,1.2522
1910,1.0346,2.1459,5.6331,-60.9391,43.7565,-1.6
1915,1.3412,1.5711,5.748,-60.8696,39.7217,-3.8957
1920,1.5328,0.9197,6.0163,-61.0087,34.7826,-5.7739
1925,1.3029,0.2682,6.4761,-60.3826,30.6783,-7.2348
1930,0.9197,-0.3066,7.1276,-58.1565,28.313,-7.7913
1935,0.5748,-1.1113,7.9706,-55.0261,25.5304,-7.5826
1940,0.4215,-1.6095,8.2772,-51.4087,21.6348,-7.0957
1945,0.0766,-1.916,9.0436,-47.2348,16.6261,-6.5391
1950,0.1916,-2.4908,9.3885,-42.2261,11.2696,-5.5652
1955,-0.3066,-2.4908,10.0782,-36.313,5.4957,-4.5217
1960,-0.3832,-2.6824,10.2315,-28.7304,-0.6957,-3.4783
1965,-0.2682,-2.7207,10.6147,-21.0087,-6.3304,-2.5043
1970,-0.3449,-2.4908,10.6914,-13.2174,-9.8783,-1.4609
1975,-0.3066,-2.2226,10.9213,-5.287,-11.6174,-0.3478
1980,-0.3449,-1.6861,10.8446,2.5043,-12.1043,0.9739
1985,-0.6898,-0.958,10.9979,9.5304,-11.6174,2.2261
1990,-1.2263,-0.2299,10.768,15.0261,-10.2957,3.5478
1995,-1.6095,0.4598,10.8446,18.5739,-9.6,5.4957
2000,-1.9543,1.2263,10.4231,19.8957,-10.1565,7.9304
2005,-2.2992,1.8777,9.8483,18.5739,-11.687,10.6435
2010,-2.1459,2.4525,9.5418,15.6522,-13.287,13.6348
2015,-1.8394,2.989,9.0819,11.8957,-14.3304,16.487
2020,-1.5328,3.3339,8.8137,7.0261,-14.5391,19.2696
2025,-1.3412,3.4871,8.4688,2.9913,-13.4261,21.3565
2030,-1.0346,3.5638,8.1239,-1.2522,-11.9652,23.3739
2035,-1.0346,3.6787,7.9323,-6.1217,-10.1565,24.9739
2040,-0.8814,3.4488,7.9706,-11.4087,-9.4609,25.113
2045,-1.073,3.2572,7.894,-16.4174,-10.4348,24.3478
2050,-1.073,2.989,7.9323,-21.1478,-13.4957,22.887
2055,-1.1879,2.5675,8.1622,-26.8522,-18.713,20.5217
2060,-1.4562,1.9927,8.6221,-32.6261,-24.9739,17.3217
2065,-1.5328,1.5328,8.5838,-36.5217,-32.4174,13.9826
2070,-1.5711,1.1496,8.6987,-38.1217,-41.1826,10.3652
2075,-1.5328,0.6131,8.852,-37.6348,-50.4348,6.4696
2080,-1.2263,0.0766,8.8137,-36.313,-58.3652,3.2
2085,-0.9197,-0.3449,9.1202,-34.1565,-64.2783,0.6261
2090,-0.9963,-0.9197,8.9286,-31.3739,-69.2174,-1.2522
2095,-0.9197,-1.3795,9.0436,-27.7565,-71.0261,-2.9913
2100,-0.958,-1.5711,9.0819,-23.513,-70.6783,-4.8
2105,-0.9963,-1.8011,9.3118,-18.4348,-69.5652,-6.1217
2110,-0.7281,-1.8011,9.3118,-12.7304,-69.0783,-6.6087
2115,-0.6898,-1.6478,8.9286,-6.6783,-69.287,-7.0261
2120,-0.2682,-1.2646,9.0819,-1.113,-69.0783,-7.513
2125,0.0,-1.073,8.967,3.6174,-67.4783,-7.6522
2130,0.2299,-0.6131,8.7754,7.2348,-64.8348,-6.3304
2135,0.5748,-0.4215,8.6221,9.5304,-61.4261,-4.1043
2140,0.958,-0.2682,8.7754,10.2957,-58.1565,-1.8783
2145,1.2263,-0.2299,8.5838,9.4609,-55.0957,0.2783
2150,1.4179,-0.3066,8.6987,7.9304,-51.9652,1.7391
2155,1.8011,-0.5748,8.6604,6.5391,-48.487,3.2696
2160,2.0693,-0.6898,8.4305,4.6609,-45.0087,4.4522
2165,2.2609,-0.6898,8.2772,2.5739,-42.087,5.0087
2170,2.874,-1.073,8.3921,0.2783,-39.2348,5.287
2175,2.989,-1.2263,7.779,-2.3652,-36.1043,5.2174
2180,3.2189,-1.3029,7.4725,-4.8696,-32.2087,5.1478
2185,3.1806,-1.5328,7.4725,-6.4,-27.3391,5.1478
2190,3.1039,-1.4562,7.5491,-7.0261,-22.5391,5.8435
2195,2.9507,-1.5328,7.4341,-6.887,-18.2957,6.4696
2200,2.9507,-1.4179,7.2809,-6.1217,-14.9565,6.887
2205,2.874,-1.3029,7.3958,-4.9391,-12.5217,7.3043
2210,2.7974,-1.0346,7.2809,-3.8957,-10.4348,7.3739
2215,2.9123,-0.8814,7.2809,-3.3391,-8.4174,7.6522
2220,3.2572,-0.6898,7.1659,-3.1304,-6.5391,7.9304
2225,3.3722,-0.4982,7.0893,-3.2696,-4.3826,8.1391
2230,3.6021,-0.4598,7.2042,-3.687,-1.9478,8.4174
2235,3.6021,-0.3066,7.1659,-4.3826,0.0,8.3478
2240,3.9087,-0.3449,7.2809,-5.287,2.087,8.0696
2245,3.8704,-0.1916,7.2042,-6.5391,4.0348,7.6522
2250,4.062,-0.3066,7.2042,-8.0696,5.4261,7.0957
2255,4.062,-0.4215,7.0893,-9.6,6.8174,6.1913
2260,3.9853,-0.6131,7.1659,-10.8522,7.9304,5.3565
2265,4.1386,-0.7281,7.1659,-11.4783,8.0,4.6609
2270,4.062,-0.9197,7.1659,-11.5478,8.2783,3.8261
2275,4.1003,-1.1496,7.2809,-11.4087,8.6261,3.3391
2280,3.9853,-1.1496,7.2809,-10.7826,8.4174,3.0609
2285,3.947,-1.1879,7.2042,-9.8783,7.7913,2.8522
2290,4.0236,-1.3412,7.3192,-8.9043,7.7217,2.6435
2295,3.9853,-1.3795,7.2809,-8.0,7.3043,2.7826
2300,4.1769,-1.3412,7.3958,-7.4435,6.4696,2.9217
2305,4.0236,-1.3029,7.3958,-6.8174,5.7739,3.2
2310,4.1003,-1.3412,7.3192,-6.2609,5.4957,3.4783
2315,3.9853,-1.1496,7.3958,-5.7739,5.2174,3.8957
2320,4.062,-1.1879,7.4725,-5.7043,4.5913,4.313
2325,4.2152,-1.2646,7.5491,-5.7739,4.1043,4.7304
2330,4.1003,-1.3795,7.7024,-6.0522,4.1043,4.9391
2335,4.2152,-1.4562,7.9706,-6.6783,3.8261,4.8
2340,4.3685,-1.4945,7.8173,-7.2348,3.3391,4.5913
2345,4.3302,-1.4945,7.8557,-7.3739,2.6435,3.8261
2350,4.4452,-1.4945,8.0473,-7.3043,1.8087,3.2696
2355,4.4452,-1.4562,7.9323,-7.3043,1.2522,2.9217
2360,4.3302,-1.4179,7.8173,-7.3739,1.1826,2.2957
2365,4.4835,-1.5711,7.9323,-7.3043,0.9043,1.6696
2370,4.3302,-1.4179,7.894,-7.0957,0.1391,0.9043
2375,4.3685,-1.4179,7.9323,-7.0261,-0.6957,0.0696
2380,4.3302,-1.4179,7.9706,-6.9565,-1.5304,-0.8348
2385,3.947,-1.6478,7.6641,-7.0261,-2.3652,-1.6
2390,3.947,-1.4562,7.8173,-7.1652,-3.3391,-2.1565
2395,3.947,-1.5328,7.779,-7.3043,-4.313,-2.713
2400,3.7554,-1.5328,7.7407,-7.6522,-5.287,-3.0609
2405,3.6021,-1.7244,7.8173,-7.8609,-6.1913,-3.3391
2410,3.4871,-1.8011,7.8557,-7.7913,-6.8174,-3.4783
2415,3.2955,-1.9543,7.8173,-7.5826,-7.4435,-3.5478
2420,3.1039,-1.916,7.7407,-7.3043,-8.0,-3.4783
2425,3.1039,-1.916,7.6257,-6.5391,-8.4174,-3.4783
2430,2.8357,-1.8394,7.6641,-5.6348,-8.5565,-3.3391
2435,2.7591,-1.8777,7.7024,-4.5913,-8.487,-3.0609
2440,2.874,-1.8777,7.9706,-3.5478,-8.3478,-2.9217
2445,2.5675,-1.8011,7.6641,-2.5043,-8.0,-2.6435
2450,2.5675,-1.6861,7.6641,-1.3913,-7.513,-2.2957
2455,2.4142,-1.6478,7.6257,-0.2087,-6.9565,-2.0174
2460,2.3759,-1.5328,7.5874,0.7652,-6.3304,-1.6
2465,2.3759,-1.4945,7.5491,1.6696,-5.5652,-1.3217
2470,2.2609,-1.2646,7.6641,2.5043,-4.6609,-0.9043
2475,2.2226,-1.2263,7.7024,3.3391,-3.7565,-0.4174
2480,2.2609,-1.1879,7.5491,4.0348,-2.7826,-0.0696
2485,2.1843,-1.073,7.5491,4.7304,-1.8087,0.3478
2490,2.1843,-1.0346,7.5108,5.2174,-0.5565,0.6957
2495,2.1843,-1.1496,7.7407,5.4957,0.6957,1.0435
2500,2.2226,-0.958,7.7024,5.5652,2.087,1.3913
2505,2.1843,-0.958,7.7407,5.4957,3.4087,1.4609
2510,2.2992,-0.8047,7.5108,5.3565,4.9391,1.5304
2515,2.2226,-0.6898,7.779,5.0783,6.4,1.3913
2520,2.4525,-0.8814,7.8173,4.8,7.7913,1.3913
2525,2.3759,-0.7281,7.779,4.7304,9.1826,1.1826
2530,2.3759,-0.6898,7.7024,4.3826,10.4348,0.9739
2535,2.6058,-0.6514,7.7407,4.0348,11.5478,0.6957
2540,2.5291,-0.6514,7.5874,3.8957,12.5913,0.4174
2545,2.7591,-0.6898,7.8173,3.6174,13.7043,0.4174
2550,2.7207,-0.4215,7.9706,3.2,14.4,0.0696
2555,2.6824,-0.5748,7.9323,2.8522,15.0957,-0.1391
2560,2.7974,-0.5365,7.8557,2.5043,15.7913,-0.2087
2565,2.7974,-0.5748,7.9323,2.1565,16.2783,-0.3478
2570,2.7974,-0.4982,7.9323,1.7391,16.6957,-0.487
2575,2.7974,-0.5365,8.0856,1.2522,16.6957,-0.5565
2580,2.7207,-0.4982,8.0856,0.8348,16.5565,-0.7652
2585,2.7974,-0.4215,8.0856,0.2783,16.487,-0.9043
2590,2.7207,-0.4982,8.0856,-0.0696,16.0,-0.9739
2595,2.6441,-0.5748,8.1622,-0.5565,15.4435,-1.0435
2600,2.6441,-0.5365,8.2389,-0.9739,14.7478,-1.1826
2605,2.6824,-0.6514,8.1239,-1.3913,14.0522,-1.2522
2610,2.6441,-0.6131,7.9706,-1.9478,13.287,-1.3913
2615,2.5291,-0.4598,8.1239,-2.4348,12.2435,-1.4609
2620,2.4908,-0.5748,8.2772,-2.9217,11.4087,-1.5304
2625,2.5291,-0.6131,8.2005,-3.4783,10.3652,-1.5304
2630,2.4525,-0.6131,8.1622,-3.8957,9.5304,-1.5304
2635,2.4525,-0.6131,8.1622,-4.313,8.6261,-1.6
2640,2.4525,-0.7281,8.2005,-4.4522,7.6522,-1.6
2645,2.3759,-0.7281,8.0473,-4.4522,6.6087,-1.5304
2650,2.4525,-0.8047,8.0089,-4.5913,5.7739,-1.5304
2655,2.1459,-0.843,8.1622,-4.6609,4.9391,-1.3217
2660,2.2609,-0.7664,8.0856,-4.7304,4.1043,-1.2522
2665,2.2226,-0.958,8.0856,-4.6609,3.3391,-1.113
2670,2.1459,-0.843,7.9706,-4.8,2.5739,-1.1826
2675,2.1459,-0.843,8.0089,-4.9391,1.8783,-1.113
2680,2.1843,-0.958,7.9706,-4.7304,1.1826,-0.9043
2685,1.9927,-0.7664,7.9706,-4.8,0.487,-0.9043
2690,1.9927,-0.843,8.0473,-4.9391,-0.0696,-0.9739
2695,2.0693,-0.9197,7.9323,-5.0783,-0.6957,-1.0435
2700,1.9543,-0.7664,8.1239,-5.0783,-1.2522,-0.9739
2705,2.031,-0.9963,7.9706,-5.2174,-1.7391,-1.0435
2710,1.9543,-0.9197,7.8557,-4.9391,-2.4348,-1.2522
2715,2.1459,-0.9963,7.9323,-4.8696,-2.9913,-0.5565
2720,1.916,-1.073,7.894,-4.8696,-2.9913,-0.2087
2725,1.9927,-1.1496,7.9323,-4.8696,-3.1304,0.0
2730,1.8777,-1.073,7.8173,-4.8696,-3.3391,0.2087
2735,2.031,-1.1879,7.8557,-4.5913,-3.6174,0.4174
2740,1.916,-1.1496,7.9706,-4.3826,-3.8261,0.6957
2745,1.8394,-1.0346,7.7407,-3.7565,-3.9652,0.8348
2750,2.031,-1.2263,7.9706,-3.2696,-4.0348,0.9043
2755,1.9543,-1.1496,7.894,-2.7826,-3.9652,1.113
2760,2.0693,-1.1496,7.8173,-2.3652,-3.9652,1.1826
2765,2.1459,-1.3029,7.6257,-1.8783,-3.5478,1.3217
2770,1.9927,-1.1496,7.7407,-1.4609,-3.1304,1.4609
2775,2.0693,-1.1879,7.8557,-1.113,-2.9913,1.2522
2780,2.1459,-1.2263,7.894,-0.4174,-3.0609,1.2522
2785,2.2226,-1.2263,7.9323,0.0696,-2.8522,1.113
2790,2.2226,-1.1879,7.894,0.5565,-2.713,0.9739
2795,2.3375,-1.1879,7.894,1.113,-2.4348,0.6261
2800,2.4525,-1.2263,8.0089,1.6,-2.3652,0.3478
2805,2.4908,-1.1496,7.9323,1.9478,-2.3652,0.3478
2810,2.6058,-1.3029,7.9323,1.9478,-2.1565,0.2783
2815,2.6441,-0.9963,7.9323,2.0174,-2.0174,0.0696
2820,2.6441,-0.9963,7.9323,1.8783,-1.8087,-0.0696
2825,2.7974,-1.1113,8.0089,1.6,-1.7391,-0.1391
2830,2.8357,-1.073,7.9706,1.5304,-1.6696,-0.2087
2835,2.7591,-0.8047,8.0089,1.3217,-1.5304,-0.2783
2840,2.8357,-0.8814,8.2005,1.113,-1.4609,-0.3478
2845,2.9123,-0.8047,7.8557,0.7652,-1.3913,-0.487
2850,3.0273,-0.8814,7.9323,0.4174,-1.1826,-0.6261
2855,3.0273,-0.6898,8.0089,-0.1391,-0.9739,-0.5565
2860,2.9123,-0.6131,7.9706,-0.6957,-0.6261,-0.6261
2865,3.0273,-0.6898,8.0089,-1.1826,-0.6261,-0.6957
2870,3.1423,-0.843,7.894,-1.8087,-0.487,-0.6261
2875,3.0273,-0.6514,7.9706,-2.4348,-0.3478,-0.6957
2880,2.9123,-0.6898,7.7407,-2.8522,-0.2783,-0.7652
2885,2.9507,-0.6898,7.9323,-3.2,-0.2783,-0.7652
2890,2.989,-0.6898,7.779,-3.5478,-0.2087,-0.9043
2895,3.0656,-0.8047,7.8557,-3.687,-0.1391,-0.9043
2900,3.0656,-0.7664,7.6257,-3.7565,-0.2087,-0.8348
2905,3.1423,-0.7281,7.779,-3.8957,-0.0696,-0.9043
2910,3.1039,-0.7664,7.4725,-4.0348,0.0,-0.9739
2915,3.0656,-0.6514,7.8173,-3.8957,0.2783,-0.9739
2920,3.1423,-0.6514,7.6257,-3.8261,0.4174,-0.9043
2925,3.1039,-0.7281,7.7024,-3.8261,0.6261,-1.0435
2930,3.1806,-0.7281,7.7024,-3.687,0.9043,-0.9043
2935,2.989,-0.6514,7.7024,-3.3391,1.113,-0.9043
2940,3.0273,-0.7281,7.7024,-3.1304,1.3217,-1.0435
2945,2.9507,-0.6514,7.6641,-2.9217,1.5304,-0.9043
2950,2.9507,-0.7281,7.7024,-2.713,1.4609,-0.9739
2955,2.9507,-0.7281,7.6257,-2.7826,1.6,-0.9739
2960,2.8357,-0.6898,7.8173,-2.713,1.6696,-0.8348
2965,2.9507,-0.6898,7.6641,-2.7826,1.7391,-0.7652
2970,2.8357,-0.7281,7.7024,-2.9217,1.8783,-0.6957
2975,2.7591,-0.6898,7.779,-3.2,1.9478,-0.6261
2980,2.8357,-0.6898,7.7407,-3.2696,1.9478,-0.6261
2985,2.7207,-0.6131,7.779,-3.4783,2.0174,-0.487
2990,2.7207,-0.7281,7.8173,-3.6174,2.1565,-0.5565
2995,2.6824,-0.7664,7.8173,-3.8261,2.1565,-0.4174
