timestamp,accX,accY,accZ,gyroX,gyroY,gyroZ
0,-0.8047,-8.7754,-6.3229,-39.4435,-3.9652,-8.0
5,-0.6898,-8.6221,-6.4378,-38.7478,-4.5913,-8.2783
10,-0.843,-8.5838,-6.5528,-37.913,-4.9391,-8.6261
15,-0.6131,-8.737,-6.6294,-37.9826,-5.4261,-8.7652
20,-0.7281,-8.6604,-6.5528,-37.4261,-5.8435,-9.0435
25,-0.7281,-8.967,-6.5528,-36.6609,-6.4,-9.3217
30,-0.6131,-8.737,-6.4761,-35.9652,-7.0957,-9.6696
35,-0.6131,-8.8137,-6.6294,-35.4783,-7.7217,-9.8087
40,-0.9197,-8.8903,-6.7444,-34.5739,-8.3478,-9.9478
45,-0.6131,-8.737,-6.7444,-34.087,-8.8348,-10.2261
50,-0.5365,-8.5838,-6.8593,-33.4609,-9.3913,-10.3652
55,-0.6898,-8.8903,-6.821,-32.5565,-9.8087,-10.6435
60,-0.5748,-8.7754,-7.0126,-31.4435,-10.2261,-10.8522
65,-0.4982,-8.737,-6.9743,-31.3739,-10.2957,-11.2
70,-0.5748,-8.5838,-7.0893,-31.3739,-10.5043,-11.3391
75,-0.3832,-8.737,-6.936,-32.0,-10.1565,-11.4783
80,-0.5748,-8.5454,-7.0509,-31.7217,-10.0174,-11.687
85,-0.3066,-8.3921,-7.0893,-31.4435,-9.9478,-12.0348
90,-0.3066,-8.2389,-7.2809,-31.9304,-9.5304,-12.2435
95,-0.1916,-8.4688,-7.1276,-32.5565,-9.2522,-12.5217
100,-0.115,-8.5071,-7.2425,-32.4174,-8.9043,-12.8696
105,-0.1916,-8.5454,-7.3958,-32.0,-8.5565,-13.3565
110,-0.2682,-8.5071,-7.3192,-32.2087,-8.2087,-13.6348
115,-0.115,-8.5838,-7.1276,-32.0696,-7.7913,-13.9826
120,-0.4215,-8.3921,-7.3192,-31.8609,-7.3043,-14.0522
125,-0.3832,-8.3538,-7.2425,-31.7217,-6.8174,-14.2609
130,-0.3449,-8.2389,-7.2425,-31.5826,-6.6087,-14.3304
135,-0.4215,-8.1622,-7.2809,-31.7217,-6.1217,-14.2609
140,-0.4215,-8.2389,-7.4341,-31.513,-5.6348,-14.0522
145,-0.4215,-8.4305,-7.3192,-30.6783,-5.4957,-14.3304
150,-0.1916,-8.2772,-7.3575,-29.7043,-5.1478,-13.913
155,-0.4215,-8.1622,-7.4341,-29.3565,-4.3826,-13.3565
160,-0.4598,-7.9323,-7.4341,-29.0783,-3.7565,-13.0783
165,-0.5365,-7.9706,-7.4341,-28.8696,-3.0609,-12.5217
170,-0.3832,-8.1239,-7.2425,-29.1478,-2.087,-11.8957
175,-0.4598,-7.8173,-7.5491,-29.287,-1.2522,-11.2696
180,-0.4215,-7.7407,-7.5108,-30.1913,-0.487,-10.8522
185,-0.4982,-7.5874,-7.4725,-31.0957,0.1391,-10.713
190,-0.4598,-7.5874,-7.5874,-32.2783,0.9043,-10.6435
195,-0.4982,-7.4341,-7.7024,-33.6696,1.6696,-10.3652
200,-0.4598,-7.5491,-7.7407,-35.0609,2.5043,-10.087
205,-0.3832,-7.5491,-7.7024,-36.4522,3.1304,-10.1565
210,-0.3066,-7.6257,-7.6641,-38.1913,3.9652,-9.8783
215,-0.3449,-7.6257,-7.5491,-39.6522,4.5217,-10.1565
220,-0.4982,-7.4725,-7.8173,-40.9739,4.8696,-10.5739
225,-0.3832,-7.5874,-7.779,-42.9913,5.3565,-10.7826
230,-0.4598,-7.6641,-7.7407,-44.7304,5.8435,-11.0609
235,-0.3832,-7.7024,-7.894,-45.9826,6.4696,-11.2
240,-0.5365,-7.7407,-7.8173,-46.7478,7.0261,-11.4783
245,-0.6131,-7.6641,-7.779,-47.3043,7.7217,-11.6174
250,-0.6131,-7.7024,-7.7024,-47.513,8.3478,-11.687
255,-0.5748,-7.8557,-7.779,-47.4435,8.7652,-11.6174
260,-0.5365,-7.9323,-7.7407,-47.2348,9.1826,-11.687
265,-0.6898,-7.9323,-7.894,-46.5391,9.5304,-11.5478
270,-0.5748,-7.779,-7.6641,-45.8435,9.9478,-11.5478
275,-0.7281,-7.7407,-7.7407,-45.0783,10.0174,-11.4087
280,-0.6131,-7.8173,-7.5874,-44.1739,10.1565,-11.1304
285,-0.6131,-7.8173,-7.7024,-43.4783,10.087,-10.713
290,-0.5365,-7.779,-7.779,-42.7826,10.0174,-10.4348
295,-0.6131,-7.6641,-7.779,-42.4348,9.7391,-10.0174
300,-0.5748,-7.5491,-7.9706,-42.2261,9.7391,-9.6
305,-0.4982,-7.5108,-7.7407,-42.0174,9.5304,-9.3217
310,-0.5748,-7.4725,-7.894,-41.8783,9.1826,-9.113
315,-0.4598,-7.3575,-7.9706,-41.8783,8.6261,-8.6957
320,-0.4982,-7.5108,-7.7407,-41.8087,8.0696,-8.6261
325,-0.5365,-7.3575,-7.894,-42.0174,7.3043,-8.487
330,-0.4598,-7.3192,-8.0473,-42.2957,6.6783,-8.5565
335,-0.4215,-7.2042,-8.0473,-42.713,5.913,-8.6261
340,-0.2682,-7.2042,-8.0856,-42.9913,5.4261,-8.6957
345,-0.2682,-7.2042,-8.0089,-43.4087,4.8,-8.9043
350,-0.2682,-7.0893,-8.0473,-43.7565,4.2435,-9.1826
355,-0.1916,-7.1276,-8.2005,-44.1739,3.687,-9.2522
360,-0.1916,-7.2042,-8.2389,-44.6609,3.1304,-9.6
365,-0.2682,-7.2042,-8.5071,-44.9391,2.5739,-10.087
370,0.0,-7.0509,-8.3155,-45.287,2.087,-10.4348
375,-0.115,-7.0509,-8.3155,-45.5652,1.6696,-10.8522
380,-0.115,-7.0126,-8.4688,-46.0522,1.1826,-11.2696
385,-0.115,-6.936,-8.2772,-46.2609,0.6957,-11.8957
390,-0.115,-6.936,-8.4305,-46.3304,0.4174,-12.3826
395,-0.0766,-6.8977,-8.3155,-46.5391,-0.1391,-13.0783
400,-0.115,-6.821,-8.5838,-46.8174,-0.3478,-13.4957
405,-0.0766,-6.936,-8.4305,-47.0957,-0.4174,-13.7739
410,-0.1916,-6.8593,-8.5838,-47.2348,-0.5565,-14.0522
415,-0.0766,-6.7444,-8.5838,-47.6522,-0.6957,-14.6087
420,0.0,-6.8977,-8.4305,-48.2783,-0.9043,-15.0261
425,0.115,-6.821,-8.6221,-48.8348,-0.9739,-15.3739
430,0.0766,-7.0126,-8.5454,-49.2522,-1.0435,-15.7913
435,-0.115,-6.8977,-8.5071,-49.7391,-1.113,-16.2087
440,-0.115,-6.936,-8.6221,-50.0174,-1.1826,-16.6957
445,-0.1916,-6.8593,-8.5838,-50.1565,-1.2522,-17.3217
450,-0.0766,-7.1659,-8.5838,-49.9478,-0.9043,-17.6
455,-0.0383,-7.0126,-8.6987,-49.8783,-0.6957,-17.8783
460,0.0766,-7.0509,-8.8137,-49.4609,-0.487,-18.5043
465,-0.0766,-7.1276,-8.8137,-48.9739,-0.3478,-18.9913
470,-0.115,-7.0509,-8.9286,-48.6261,-0.2783,-19.4783
475,-0.0383,-6.9743,-8.9286,-48.2087,-0.1391,-19.8261
480,0.0383,-6.9743,-8.8903,-47.9304,-0.2087,-20.1043
485,0.0,-6.936,-8.9286,-47.7217,-0.487,-20.4522
490,-0.115,-6.8593,-9.0436,-47.8609,-0.8348,-20.5217
495,0.0,-6.8593,-9.1586,-48.1391,-1.2522,-20.8
500,0.0766,-6.821,-9.1969,-48.2087,-1.6,-20.8
505,-0.0383,-6.7061,-9.3118,-48.9043,-1.8087,-21.0087
510,0.1916,-6.8977,-9.3885,-49.2522,-1.9478,-21.0087
515,0.2682,-6.7444,-9.2735,-49.8783,-1.6696,-21.1478
520,0.3449,-6.7061,-9.3118,-50.713,-1.1826,-21.0783
525,0.2682,-6.7444,-9.5034,-51.687,-0.6261,-21.1478
530,0.3066,-6.7061,-9.2352,-52.5217,-0.0696,-21.0087
535,0.4982,-6.821,-9.2735,-53.3565,0.5565,-20.9391
540,0.6131,-6.9743,-9.3502,-54.1217,0.9739,-20.6609
545,0.6131,-6.8593,-9.5418,-54.8174,1.3913,-20.5217
550,0.5748,-6.6677,-9.5034,-55.5826,1.6696,-20.2435
555,0.6131,-6.821,-9.5034,-56.3478,1.7391,-19.9652
560,0.6514,-6.7827,-9.4651,-57.0435,1.5304,-19.7565
565,0.6514,-6.7827,-9.5034,-57.5304,1.1826,-19.4087
570,0.5748,-6.9743,-9.4651,-57.8783,1.1826,-19.4087
575,0.4982,-6.936,-9.4268,-57.8783,1.4609,-19.3391
580,0.4598,-7.0893,-9.4268,-57.6696,1.8783,-19.4087
585,0.3449,-7.1276,-9.3502,-56.9043,2.6435,-19.687
590,0.5748,-7.5108,-9.2735,-55.3739,3.5478,-20.2435
595,0.4215,-7.2809,-9.3118,-53.1478,4.7304,-21.0783
600,0.5748,-7.3575,-9.1202,-50.4348,5.7739,-21.913
605,0.3832,-7.3192,-9.2352,-47.5826,6.4,-22.7478
610,0.3832,-7.2042,-9.6184,-44.3826,6.4696,-23.513
615,0.3066,-6.936,-9.5801,-40.4174,5.9826,-24.0696
620,0.1916,-7.0509,-9.5418,-36.5913,5.1478,-24.3478
625,0.1533,-7.0126,-9.5418,-32.8348,4.1739,-24.9739
630,-0.115,-6.7827,-9.6184,-29.5652,3.687,-25.7391
635,-0.0766,-6.5528,-9.5418,-26.5739,3.4087,-26.4348
640,-0.2299,-6.3995,-9.4651,-24.4174,3.4087,-27.7565
645,0.0,-6.1696,-9.4651,-22.8174,3.8261,-28.6609
650,-0.2299,-6.0929,-9.3118,-22.0522,4.4522,-29.9826
655,-0.4598,-5.7864,-9.2735,-21.9826,5.2174,-31.3739
660,-0.3832,-5.7097,-8.967,-22.4696,6.1217,-32.2087
665,-0.4982,-5.4415,-8.9286,-23.3043,6.9565,-32.9739
670,-0.115,-5.4415,-8.737,-24.7652,7.7913,-33.8087
675,-0.3832,-5.2499,-8.6604,-25.9478,8.4174,-34.3652
680,-0.6131,-5.2499,-8.4688,-27.4087,9.0435,-34.3652
685,-0.3449,-5.2882,-8.5838,-28.3826,9.6,-34.0174
690,-0.3832,-5.0583,-8.3921,-29.5652,9.9478,-34.3652
695,-0.3832,-5.1349,-8.2389,-30.6087,10.2957,-34.5043
700,-0.3066,-5.2116,-8.1622,-31.1652,10.6435,-34.2957
705,-0.4215,-5.1349,-8.0856,-31.4435,10.9217,-34.2261
710,-0.0766,-5.1349,-7.9706,-31.3043,11.2696,-34.1565
715,-0.0383,-5.1349,-7.9323,-31.0957,11.4783,-34.4348
720,-0.2299,-5.0966,-7.8557,-30.6783,11.8957,-35.1304
725,-0.1916,-5.2116,-7.7407,-29.7739,12.1739,-35.4087
730,0.0,-5.1732,-7.779,-28.5217,12.6609,-35.7565
735,-0.115,-5.0583,-7.4725,-27.7565,13.0087,-36.5913
740,0.0,-5.02,-7.6257,-26.7826,13.3565,-37.3565
745,-0.2682,-4.9816,-7.5491,-25.7391,13.8435,-38.5391
750,-0.115,-4.8667,-7.1659,-24.8348,14.3304,-39.0261
755,-0.0766,-4.8667,-7.2809,-23.2348,14.887,-39.7217
760,-0.0383,-4.905,-7.2425,-22.0522,15.6522,-40.1391
765,-0.0766,-5.02,-7.1276,-21.0087,16.2783,-40.6261
770,-0.1916,-4.905,-6.821,-19.6174,16.487,-41.4609
775,-0.0383,-4.8284,-6.8593,-18.2261,16.2087,-41.7391
780,-0.0766,-4.79,-6.7444,-16.8348,16.3478,-41.9478
785,-0.0766,-4.6751,-6.7061,-16.0,16.5565,-42.0174
790,-0.2299,-4.5984,-6.7061,-15.3043,17.113,-41.8087
795,0.0766,-4.6368,-6.6294,-14.887,17.6,-41.7391
800,-0.115,-4.6751,-6.4378,-14.1217,18.0174,-41.3913
805,-0.115,-4.7134,-6.4378,-12.8696,18.2957,-40.9739
810,-0.1533,-4.5984,-6.5911,-11.8261,18.4348,-40.5565
815,-0.0766,-4.5601,-6.2462,-10.5043,18.9217,-40.0696
820,-0.2299,-4.6751,-6.2845,-9.0435,19.5478,-39.6522
825,-0.3832,-4.5984,-6.3229,-7.5826,20.313,-38.887
830,-0.2299,-4.5218,-6.2462,-6.2609,20.8,-38.1217
835,-0.4598,-4.5218,-6.1313,-5.6348,21.0087,-37.7739
840,-0.2682,-4.5601,-6.1313,-4.9391,21.4261,-37.0087
845,-0.3832,-4.5218,-6.0929,-4.1043,21.7739,-36.5913
850,-0.3449,-4.5218,-6.1696,-2.9913,22.5391,-35.8957
855,-0.3449,-4.5601,-5.863,-2.0174,23.0957,-35.4783
860,-0.4215,-4.6751,-5.9396,-1.113,23.513,-35.2696
865,-0.2682,-4.6368,-5.9396,-0.2087,24.0696,-34.7826
870,-0.3832,-4.5984,-5.978,0.8348,25.0435,-34.0174
875,-0.3832,-4.7134,-5.978,2.087,26.2261,-33.1826
880,-0.4215,-4.79,-5.9013,2.9913,27.6174,-32.5565
885,-0.4215,-4.8284,-5.9013,4.0348,29.0783,-32.0
890,-0.3066,-4.9816,-6.0546,5.3565,30.6783,-31.1652
895,-0.3832,-5.02,-5.9013,6.8174,32.2783,-30.5391
900,-0.3449,-5.2499,-5.978,8.3478,33.8087,-29.7043
905,-0.2299,-5.2116,-5.978,10.2957,35.4087,-29.0783
910,-0.2299,-5.3265,-5.5948,12.6609,37.0783,-28.3826
915,-0.3066,-5.6331,-5.7097,15.3739,38.6783,-27.8261
920,-0.1533,-5.4798,-5.4032,18.1565,39.9304,-27.4087
925,-0.0383,-5.863,-5.4415,21.287,41.113,-26.8522
930,-0.1916,-5.7864,-5.1349,24.8348,42.087,-26.7826
935,-0.0766,-5.9013,-5.0966,28.5217,42.7826,-26.5739
940,-0.1533,-5.8247,-5.1349,32.1391,43.2,-26.2957
945,-0.115,-5.978,-4.8667,35.9652,43.687,-25.8783
950,-0.0383,-5.978,-4.6368,40.2087,44.2435,-25.4609
955,0.0,-6.0546,-4.4835,44.5217,44.9391,-24.7652
960,0.0,-5.9013,-4.5601,49.0435,45.287,-24.2783
965,0.0,-5.9013,-4.4452,53.5652,45.7739,-23.7913
970,0.0383,-5.978,-4.2919,57.8087,45.9826,-23.3043
975,0.2299,-5.9396,-4.2536,61.5652,46.1217,-22.9565
980,0.2682,-5.6714,-4.1769,65.1826,46.4,-22.6087
985,0.4598,-5.748,-4.1386,68.8,47.5826,-22.1913
990,0.3066,-5.8247,-3.5638,73.2522,49.8087,-20.8696
995,0.4598,-5.8247,-3.5638,77.9826,49.9478,-20.4522
1000,0.4598,-5.6714,-3.4871,81.9478,49.6696,-20.3826
1005,0.5365,-5.6331,-3.4488,84.7304,49.5304,-20.3826
1010,0.7664,-5.6331,-3.5255,87.0957,49.3913,-20.2435
1015,0.7281,-5.8247,-3.3339,89.4609,50.1565,-19.9652
1020,0.843,-5.5181,-3.2189,92.2435,51.3391,-19.4087
1025,0.8047,-5.4032,-3.4488,95.1652,52.5217,-19.0609
1030,1.1113,-5.2882,-3.6787,97.4609,53.9826,-18.6435
1035,0.9963,-5.4032,-3.4488,98.713,56.7652,-17.7391
1040,0.9197,-5.3648,-3.4871,99.3391,59.5478,-16.6957
1045,0.7281,-5.2116,-3.2189,99.6174,60.3826,-16.0696
1050,0.8814,-5.4032,-3.3339,100.1043,58.9217,-16.2087
1055,1.1879,-5.2499,-3.4105,100.3826,57.4609,-16.3478
1060,1.1879,-5.0966,-3.3722,100.0348,57.113,-16.0696
1065,1.3795,-5.0966,-3.1806,99.5478,57.6696,-15.5826
1070,1.3029,-5.02,-3.3722,99.2696,58.3652,-15.2348
1075,1.2263,-5.0583,-3.2572,98.9217,58.713,-15.0261
1080,1.2263,-4.8284,-3.4871,97.9478,58.9913,-14.5391
1085,1.2263,-4.79,-3.8704,96.3478,59.3391,-14.2609
1090,0.8814,-4.79,-3.3722,94.4,60.0348,-13.4261
1095,0.7664,-4.7517,-3.2955,92.313,60.5913,-12.8696
1100,0.958,-4.79,-3.2572,90.3652,61.0783,-12.313
1105,0.843,-4.7517,-3.1806,87.3739,61.287,-11.687
1110,0.7281,-4.5218,-3.0273,84.7304,61.8435,-11.0609
1115,0.6131,-4.5601,-3.1039,82.5739,62.5391,-10.5043
1120,0.5748,-4.4452,-3.1423,80.7652,63.3739,-9.9478
1125,0.4215,-4.2152,-3.0656,79.1652,63.9304,-9.7391
1130,0.1533,-4.062,-3.3339,77.6348,64.1391,-9.5304
1135,0.1533,-3.6787,-3.5255,75.5478,63.4435,-9.4609
1140,0.1916,-3.4488,-3.6021,72.4174,62.1217,-9.8087
1145,-0.115,-3.1423,-4.5601,67.8957,60.4522,-10.2261
1150,-0.1533,-2.7974,-5.2116,62.2609,58.5043,-10.2957
1155,-0.115,-2.4142,-6.3229,55.3043,56.0696,-10.2957
1160,-0.0766,-2.2992,-7.1276,46.7478,53.1478,-9.9478
1165,-0.2299,-2.031,-7.8557,37.0087,49.5304,-9.7391
1170,-0.2299,-1.7627,-8.5071,27.0609,45.4261,-9.5304
1175,-0.4215,-1.6861,-9.2352,18.4348,41.6,-9.3217
1180,-0.5365,-1.6478,-9.7717,10.5043,38.6087,-8.9739
1185,-0.6131,-1.6861,-10.4231,1.8783,36.1043,-8.7652
1190,-0.843,-1.6861,-10.8446,-7.2348,33.6696,-8.487
1195,-0.958,-1.8394,-12.1475,-16.9043,30.4696,-8.0696
1200,-1.5711,-1.7244,-13.642,-27.5478,25.7391,-7.2348
1205,-1.6478,-1.6095,-16.0179,-41.113,18.4348,-5.0783
1210,-1.8011,-1.4945,-19.1218,-60.8696,8.2087,-1.1826
1215,-1.916,-1.4179,-22.1875,-88.6957,-2.8522,3.7565
1220,-1.8011,-1.4945,-24.41,-122.6435,-12.9391,9.9478
1225,-1.4562,-2.4908,-24.7166,-158.6783,-20.8,16.0696
1230,-1.2646,-5.3265,-21.8809,-187.8261,-24.9739,20.5217
1235,-2.4908,-11.0746,-14.9449,-198.4696,-22.0522,23.0957
1240,-4.0236,-18.6237,7.8557,-164.5913,-3.2696,23.2348
1245,-3.3722,-27.6673,-7.3958,-10.4348,49.2522,22.7478
1250,-5.748,-18.3171,-49.893,70.6087,61.913,28.5217
1255,2.4525,-3.2955,-61.0443,-144.487,-26.4348,37.287
1260,8.4688,4.2152,-60.6611,-356.313,-128.5565,4.6609
1265,7.3958,3.4105,-55.6411,-431.7913,-134.4,-50.5739
1270,8.0089,-0.6131,-45.9844,-458.2957,-89.113,-77.0087
1275,8.8903,-6.821,-33.6836,-475.8957,-49.1826,-83.2696
1280,11.841,-11.7643,-24.2184,-463.0957,-16.9739,-79.0261
1285,15.673,-15.4814,-16.0945,-426.7826,20.313,-69.5652
1290,19.8882,-18.2021,-8.8903,-381.1478,56.0696,-61.4957
1295,24.2568,-21.0379,-2.6824,-323.4783,87.9304,-55.6522
1300,25.0615,-22.0342,0.8047,-250.9913,120.8348,-59.4087
1305,22.9922,-20.8846,2.6824,-168.6957,152.5565,-72.2087
1310,24.0268,-19.4284,3.6021,-84.8696,178.8522,-86.8174
1315,25.3297,-18.2788,3.2955,-13.913,191.1652,-102.8174
1320,27.7056,-16.5927,2.6824,31.2348,195.2,-123.8261
1325,27.6673,-14.6,3.2572,49.3217,200.9739,-158.5391
1330,25.6746,-11.1895,3.6404,52.1043,215.3043,-200.3478
1335,22.3407,-7.8557,3.7937,46.887,238.6783,-239.513
1340,18.9686,-6.1313,3.6404,36.4522,267.1304,-269.7043
1345,15.2132,-5.4032,3.1039,21.1478,292.7304,-288.9739
1350,10.883,-6.0163,2.6441,-2.713,308.5913,-296.2783
1355,7.9323,-6.6677,1.3795,-33.1826,308.5913,-294.5391
1360,4.0236,-6.2462,-0.2682,-72.2783,297.113,-290.4348
1365,0.1916,-5.978,-1.8011,-119.7217,281.3217,-280.9043
1370,-2.6058,-5.9013,-3.9853,-167.9304,265.2522,-265.7391
1375,-4.7134,-7.0509,-6.5145,-213.8435,255.0261,-246.887
1380,-7.0509,-9.8483,-7.8557,-258.5043,250.2261,-226.2957
1385,-8.5838,-11.6877,-8.9286,-293.7739,244.313,-211.3391
1390,-7.894,-10.7297,-9.6184,-315.8957,234.7826,-198.8174
1395,-6.5911,-10.1932,-9.6567,-334.1913,227.5478,-185.5304
1400,-4.7134,-9.4651,-9.1202,-345.3217,229.8435,-171.4087
1405,-4.5601,-7.3958,-9.1969,-340.6609,243.687,-157.9826
1410,-4.8284,-4.8667,-9.3502,-314.1565,265.6,-136.0696
1415,-4.0236,-3.2189,-9.1586,-275.7565,288.3478,-101.913
1420,-3.3722,-2.1459,-8.0856,-232.9739,300.9391,-68.5913
1425,-1.6861,0.1533,-7.4725,-189.913,301.287,-41.3913
1430,0.0,3.1423,-7.1659,-150.4696,296.0696,-20.4522
1435,1.8394,4.1386,-6.9743,-120.0696,289.8087,-7.3739
1440,3.832,2.874,-6.936,-94.2609,287.0957,0.9043
1445,4.6368,1.1879,-6.5145,-68.1043,287.7913,8.5565
1450,7.8557,0.9963,-5.6331,-37.0783,288.7652,15.0261
1455,13.6804,4.79,-4.062,-4.3826,292.9391,8.0696
1460,18.0872,8.5838,-0.8814,15.8609,297.6,-19.0609
1465,24.8316,13.6037,0.9963,33.8783,307.0609,-52.313
1470,28.6636,20.3864,1.4945,42.3652,327.7913,-94.1913
1475,34.2584,26.0195,2.3375,22.4,354.6435,-135.9304
1480,41.4626,31.1544,3.0273,-19.2696,376.3478,-170.5739
1485,46.1377,34.6032,1.9927,-62.7478,394.6435,-208.9739
1490,48.1303,33.3004,-1.3029,-92.1043,407.4435,-245.9826
1495,51.9623,26.441,-8.4305,-103.0261,399.0957,-251.2
1500,55.9093,17.9339,-18.2405,-100.1739,372.3826,-214.7478
1505,53.2269,10.3848,-24.2568,-90.2957,353.7391,-165.6348
1510,46.9424,6.2845,-29.2767,-79.2348,349.3565,-126.8174
1515,40.5429,3.8704,-29.0085,-75.8261,350.8174,-82.6435
1520,35.5996,2.9507,-24.1801,-81.1826,346.0174,-32.6261
1525,28.1271,4.2152,-17.9722,-88.9043,329.3913,14.3304
1530,22.1108,6.0546,-12.5691,-92.1739,297.113,56.0696
1535,19.3134,8.1622,-7.4341,-93.5652,256.1391,101.2174
1540,14.8683,9.1586,-2.2609,-94.9565,216.0,139.3391
1545,7.0126,8.6604,0.7281,-89.7391,176.3478,174.6087
1550,2.2992,7.5491,2.6824,-71.3739,137.3217,216.8348
1555,3.1806,9.3885,5.6714,-39.7913,106.7826,241.5304
1560,4.6368,12.6074,9.1586,-0.4174,100.1739,223.1652
1565,4.2152,15.5197,12.7223,34.4348,111.7217,189.4957
1570,4.1769,15.4814,15.7113,54.5391,116.5217,159.7217
1575,0.0766,14.0636,16.5544,62.6783,112.8348,134.9565
1580,-4.1769,12.2625,15.4814,63.3043,106.5043,114.0174
1585,-7.2042,9.4651,12.9906,60.8,99.7565,92.2435
1590,-10.4998,6.4378,10.9213,66.9217,107.8261,66.5739
1595,-13.0672,3.1806,8.1239,87.4435,127.7913,43.8261
1600,-17.0525,0.5748,4.7134,105.8783,149.2174,19.3391
1605,-18.0105,0.3832,1.6478,105.113,160.8348,-5.8435
1610,-16.1329,-1.1496,0.9197,79.7217,162.5739,-26.087
1615,-13.0289,-3.6404,1.4179,45.3565,160.8348,-47.3043
1620,-10.1549,-5.8247,1.3412,18.1565,160.9739,-69.0087
1625,-8.967,-7.4341,1.3795,5.1478,158.4,-84.3826
1630,-6.8593,-8.6987,1.4945,-5.7739,150.7478,-89.1826
1635,-4.0236,-8.6604,2.3375,-16.6957,143.3739,-86.6087
1640,-1.8777,-7.0893,2.7591,-25.0435,137.2522,-80.2783
1645,-0.3449,-5.4798,2.989,-31.2348,130.4348,-71.8609
1650,1.3412,-3.9087,3.4105,-33.8087,122.9913,-62.1217
1655,2.5675,-2.2609,3.4105,-31.9304,115.8957,-54.1217
1660,3.2955,-0.6514,3.8704,-26.2957,110.6783,-47.5826
1665,3.947,0.3832,3.7937,-19.5478,108.4522,-41.9478
1670,4.3302,2.1076,4.905,-14.3304,109.913,-36.313
1675,4.6368,3.4488,5.863,-7.7217,112.0,-29.6348
1680,5.5564,4.1003,6.1696,2.8522,114.4348,-24.6957
1685,7.3958,3.9853,6.5911,17.0435,117.7739,-21.3565
1690,10.3465,3.8704,6.9743,35.0609,120.2783,-12.7304
1695,14.0252,3.4488,7.3575,57.7391,120.9739,1.3217
1700,13.1822,3.7554,6.5911,78.6783,120.9043,15.0957
1705,13.1439,3.5638,6.2462,89.5304,120.4174,24.0
1710,12.6074,3.3339,6.0163,88.6261,122.0174,26.5043
1715,11.8793,3.1039,5.8247,78.1217,125.2174,23.8609
1720,11.3045,2.6441,5.4032,60.9391,129.1826,17.2522
1725,10.7297,2.4142,5.6714,39.7913,133.0783,7.7913
1730,10.6147,1.6478,5.5181,17.5304,138.2261,-2.9217
1735,10.7297,1.1113,5.7097,-5.0087,144.0696,-14.6087
1740,10.0782,1.7244,6.0546,-27.1304,149.5652,-25.8087
1745,9.695,1.3795,6.4761,-47.7913,153.1826,-33.6
1750,9.1969,0.843,5.978,-66.2957,154.3652,-37.6348
1755,9.0436,0.3832,6.4761,-81.5304,151.6522,-36.5217
1760,8.6221,0.4598,6.5911,-88.1391,144.9739,-31.3739
1765,8.4688,0.7664,7.5874,-86.6783,134.5391,-23.1652
1770,7.4725,1.0346,8.3155,-77.1478,121.2522,-13.7043
1775,7.5491,1.1496,9.0053,-61.9826,105.7391,-6.9565
1780,6.7827,0.6131,9.3885,-41.7391,89.113,0.5565
1785,6.2462,0.4982,9.7717,-19.8957,72.3478,6.1913
1790,5.02,0.4982,10.0016,0.9043,57.113,10.4348
1795,5.3265,0.5748,10.3082,18.6435,43.7565,14.5391
1800,4.2536,0.958,10.4998,33.5304,31.8609,21.2174
1805,4.2152,1.6095,10.653,42.7826,20.9391,26.0174
1810,3.5638,2.2609,10.3465,45.7043,11.4087,31.513
1815,2.9507,2.2609,9.8866,42.4348,2.7826,37.0087
1820,3.3339,2.8357,9.5034,34.7826,-4.6609,40.0696
1825,3.1806,2.989,9.3118,24.9739,-10.0174,44.9391
1830,3.3339,3.0273,8.852,14.887,-14.3304,47.8609
1835,4.2919,2.8357,8.737,6.4696,-17.5304,49.113
1840,4.1386,2.6441,8.3921,0.9043,-20.1739,49.7391
1845,3.9853,2.5675,8.2005,-1.3913,-23.0261,47.3043
1850,4.4068,2.4525,7.8557,1.7391,-26.5739,43.5478
1855,4.2152,2.3375,7.7024,9.8087,-30.5391,41.6696
1860,4.0236,1.9927,7.3192,21.3565,-34.713,38.887
1865,4.6751,2.1076,6.6677,35.3391,-37.7739,35.4783
1870,4.2152,2.1459,6.4378,49.4609,-38.887,34.713
1875,4.1769,1.9927,6.2079,61.0783,-39.0261,34.087
1880,3.6787,2.1843,6.0929,70.1217,-38.4696,32.9739
1885,3.2955,2.0693,5.7864,77.287,-39.0957,32.9043
1890,3.3339,2.2226,5.5181,81.8087,-40.2783,33.9478
1895,2.9507,2.3375,5.4032,84.2435,-41.113,34.713
1900,3.1423,2.3375,5.3265,84.7304,-42.2261,33.6
1905,3.4871,2.6824,5.1349,83.2696,-43.4783,32.5565
1910,4.062,2.5291,5.1732,80.1391,-41.6696,33.2522
1915,4.062,2.989,5.1732,76.3826,-38.6087,35.0609
1920,4.2152,3.0273,4.905,71.6522,-36.5913,36.9391
1925,4.4068,3.3339,5.1349,65.0435,-35.2,35.9652
1930,5.1732,3.0656,5.0583,58.2261,-34.2957,38.1913
1935,5.2882,3.6404,5.0583,50.7826,-33.2522,38.1913
1940,5.8247,3.3722,4.9433,43.7565,-32.7652,39.0261
1945,6.0929,2.9123,4.8284,37.1478,-32.0,39.3043
1950,6.0546,2.989,4.905,31.0957,-32.2087,38.4
1955,6.6677,2.6058,4.5601,25.3913,-32.9043,38.1913
1960,6.3612,2.2609,4.7134,20.6609,-33.113,35.9652
1965,7.1276,1.916,4.7134,17.8087,-33.6,35.4783
1970,7.2425,1.6095,4.5984,16.0696,-34.4348,33.8783
1975,7.4341,1.7244,4.6368,14.4,-34.713,32.9739
1980,8.4688,1.3029,4.8284,13.4957,-35.7565,32.2783
1985,8.7754,0.9963,4.79,14.2609,-36.2435,30.6087
1990,9.6184,1.1879,5.0583,16.9043,-36.3826,27.9652
1995,10.3848,1.073,5.1349,21.3565,-36.1043,23.5826
2000,10.0782,0.9197,5.2116,26.9217,-36.8696,20.1043
2005,9.9633,0.9963,5.1349,31.3043,-39.7913,17.7391
2010,10.3082,0.9197,4.5984,33.3217,-43.4783,17.113
2015,9.6567,1.3795,4.2536,32.9739,-46.1913,17.2522
2020,9.3885,1.3795,4.1386,32.487,-48.9043,18.9913
2025,9.0053,1.7244,3.832,32.2783,-51.3391,19.687
2030,9.8866,1.8011,3.9853,32.6957,-54.4,20.5913
2035,9.8483,2.0693,3.6021,32.6957,-56.9739,21.7739
2040,9.3502,1.9543,3.4871,33.0435,-59.1304,22.4696
2045,9.1969,2.2992,3.3339,33.0435,-60.8,23.1652
2050,8.852,2.2609,3.7171,32.2783,-62.0522,24.1391
2055,8.8137,2.4525,3.4488,31.3739,-62.9565,25.6
2060,8.4688,2.3759,3.4105,29.913,-63.4435,26.5739
2065,8.8903,2.2992,3.3722,27.8957,-63.2348,26.5739
2070,8.852,2.5675,3.2572,25.1826,-62.3304,26.2261
2075,8.8137,2.4142,3.2572,21.913,-61.0087,25.7391
2080,8.9286,2.2226,3.2189,18.713,-59.5478,25.3913
2085,8.5454,2.2226,3.1423,15.1652,-57.9478,23.7913
2090,8.6604,2.2609,2.989,11.7565,-56.2783,22.4
2095,8.3921,2.0693,3.4488,8.3478,-54.4696,21.0783
2100,8.3921,1.8394,3.5638,6.0522,-53.287,20.1739
2105,8.6604,1.5711,4.062,6.2609,-52.9391,18.713
2110,8.4688,1.4945,3.4871,8.2783,-53.3565,16.3478
2115,8.6604,1.8011,3.1423,10.1565,-53.4261,15.3739
2120,8.9286,1.4562,2.989,10.2957,-52.3826,16.487
2125,8.967,1.3412,2.9123,9.5304,-50.5739,16.9043
2130,9.0819,1.2646,2.9507,9.3217,-48.8348,17.0435
2135,9.1969,1.2263,2.6824,8.5565,-47.3739,17.113
2140,9.2735,1.1496,2.6441,7.0261,-45.4261,17.2522
2145,9.5034,1.1113,2.3759,5.0783,-43.8261,16.9739
2150,9.5034,1.1113,2.1459,2.8522,-42.8522,16.2783
2155,9.81,1.0346,2.031,0.7652,-41.6696,15.8609
2160,9.925,0.843,1.9543,-2.1565,-40.2087,15.7913
2165,9.925,0.6131,1.9927,-5.0087,-38.4,15.5826
2170,9.81,0.5365,1.7627,-6.6783,-36.5217,15.3043
2175,10.0016,0.3066,1.8394,-8.4174,-34.8522,15.2348
2180,9.925,0.3066,1.8777,-9.6696,-33.2522,14.6087
2185,10.0016,0.0,1.9543,-10.4348,-31.7217,14.3304
2190,9.8866,0.115,1.7244,-10.5043,-29.9826,14.3304
2195,10.0399,0.2299,1.8011,-11.2,-28.3826,14.2609
2200,9.8483,0.1916,1.7244,-11.8957,-26.5739,14.1217
2205,10.3082,0.0383,1.5328,-13.2174,-24.7652,14.6087
2210,9.925,0.1916,1.3029,-14.3304,-22.8174,14.8174
2215,10.2315,0.1916,1.3029,-15.5826,-20.9391,15.0261
2220,10.1166,0.3832,1.1879,-16.9739,-19.1304,15.1652
2225,10.4614,0.3449,0.9963,-18.3652,-17.113,15.3043
2230,10.3465,0.4215,0.958,-19.4783,-15.3043,14.6087
2235,10.3848,0.5365,0.9197,-20.5913,-13.5652,13.913
2240,10.4614,0.5748,0.8047,-21.4261,-11.4087,13.0783
2245,10.4614,0.5365,0.843,-21.7739,-9.3217,12.3826
2250,10.5764,0.4982,1.0346,-22.1913,-7.0261,11.9652
2255,10.8446,0.5748,1.1879,-22.4696,-4.9391,11.4087
2260,10.8446,0.5365,1.3029,-22.4,-2.713,10.5739
2265,10.8063,0.4215,1.1113,-22.1217,-0.6261,9.3217
2270,10.8446,0.1916,1.2646,-21.7043,1.2522,8.0696
2275,10.7297,0.1533,1.3412,-21.4957,2.6435,6.8174
2280,10.7297,0.0383,1.4179,-21.1478,3.7565,5.6348
2285,10.883,-0.3066,1.4945,-20.8,4.7304,4.3826
2290,11.0363,-0.4215,1.3412,-20.313,5.5652,3.0609
2295,10.9213,-0.3832,1.3029,-19.6174,6.4,1.8783
2300,11.0363,-0.4598,1.2646,-19.1304,7.3043,0.7652
2305,10.9596,-0.4982,1.3795,-18.8522,8.2783,0.2087
2310,10.9979,-0.6514,1.073,-18.5043,9.4609,-0.1391
2315,10.9979,-0.7664,1.2263,-18.087,10.4348,-0.2783
2320,11.0746,-0.6131,1.4562,-17.5304,11.2696,-0.3478
2325,10.6914,-0.5748,1.3029,-16.6957,12.3826,-0.2783
2330,10.6147,-0.5748,1.6095,-15.5826,13.7043,0.0696
2335,10.4998,-0.4982,1.8777,-14.2609,14.9565,0.4174
2340,10.5381,-0.4215,1.9927,-12.9391,16.0696,0.7652
2345,10.2315,-0.3066,2.1076,-11.4087,17.113,1.113
2350,10.3082,-0.4598,2.3759,-10.0174,17.6,1.3913
2355,10.0399,0.0,2.4142,-8.6261,17.9478,1.3913
2360,9.925,-0.0383,2.5675,-7.513,18.1565,1.3217
2365,9.7334,0.1916,2.5675,-6.6087,18.3652,1.1826
2370,9.6567,0.0766,2.8357,-5.8435,18.5739,0.9739
2375,9.6184,0.0766,3.0273,-5.5652,18.7826,0.6957
2380,9.2352,0.2682,2.7591,-5.5652,19.0609,0.2783
2385,9.1202,0.2299,2.8357,-5.6348,19.3391,-0.2783
2390,9.0436,0.2682,2.9123,-5.7739,19.6174,-0.9043
2395,8.967,0.3066,2.874,-5.9826,20.1739,-1.3217
2400,8.8903,0.115,3.0273,-6.1217,20.7304,-1.8783
2405,8.852,0.115,2.9123,-6.3304,21.4957,-2.2957
2410,8.6221,0.115,2.7974,-6.3304,22.1217,-2.8522
2415,8.737,0.2299,2.9123,-6.6783,22.887,-3.1304
2420,8.6987,0.3066,2.989,-7.1652,23.7217,-3.5478
2425,8.6221,0.3449,2.9507,-8.2783,24.5565,-3.9652
2430,8.5454,0.5748,2.8357,-9.6,25.2522,-4.3826
2435,8.6604,0.3449,3.0273,-10.2261,25.8783,-4.8696
2440,8.6604,0.2682,2.9507,-10.1565,26.2957,-5.5652
2445,8.2772,0.0,2.9507,-8.8348,26.4348,-6.6087
2450,8.5454,0.115,3.0273,-6.6087,25.6696,-8.1391
2455,8.6221,0.0,3.0656,-4.4522,25.113,-9.8087
2460,8.5838,0.0,3.0656,-2.6435,25.3217,-10.7826
2465,8.5071,-0.5365,3.0273,0.2087,24.4174,-11.4087
2470,8.737,-0.843,3.0273,4.1043,23.9304,-10.713
2475,8.852,-0.5748,3.2572,5.7043,24.2087,-9.5304
2480,8.9286,-0.2299,3.5638,5.4261,24.5565,-8.7652
2485,9.0436,0.115,3.7554,5.3565,24.9739,-8.4174
2490,9.0053,0.3832,3.6404,5.8435,24.9043,-7.9304
2495,9.0436,0.6898,3.7937,6.6783,24.1391,-7.2348
2500,9.1969,0.8047,3.7554,7.7913,23.0957,-6.4696
2505,9.2352,0.958,3.7937,8.5565,22.0522,-5.913
2510,9.1969,1.3029,3.7554,9.1826,21.287,-5.5652
2515,9.2352,1.2646,3.8704,9.1826,20.6609,-5.2174
2520,9.1969,1.5711,3.8704,8.6957,20.1043,-4.8
2525,9.1586,1.6861,3.9087,7.8609,19.4087,-4.4522
2530,9.1202,1.5711,3.9087,7.2348,18.5739,-4.1043
2535,9.0436,1.6095,3.9087,6.7478,17.4609,-3.8261
2540,8.9286,1.2646,3.9853,6.3304,16.0696,-3.4783
2545,8.5838,1.2263,3.9087,6.3304,14.7478,-3.1304
2550,8.737,1.1879,3.947,6.2609,13.0087,-2.9217
2555,8.5838,1.073,3.8704,6.3304,11.4783,-2.5739
2560,8.5454,1.073,3.947,6.7478,10.087,-2.2261
2565,8.4688,1.073,3.947,6.6783,8.6957,-2.0174
2570,8.3538,1.2263,3.8704,6.6087,7.513,-2.087
2575,8.4305,1.1879,3.8704,6.6087,6.6087,-1.9478
2580,8.2389,1.2263,3.832,6.7478,5.913,-1.7391
2585,8.3155,1.1496,3.7554,6.887,5.4957,-1.7391
2590,8.2389,1.3412,3.7554,7.2348,5.3565,-1.6
2595,8.3921,1.073,3.7171,7.3043,5.1478,-1.5304
2600,8.3155,1.1879,3.6787,7.3043,5.1478,-1.3913
2605,8.2772,1.2263,3.6404,7.1652,5.0783,-1.2522
2610,8.3155,1.1496,3.6404,6.8174,5.2174,-1.113
2615,8.3538,1.1879,3.6404,6.6783,5.2174,-0.7652
2620,8.4688,1.1879,3.6021,6.6087,5.1478,-0.5565
2625,8.5071,1.2263,3.4871,6.4696,5.0783,-0.3478
2630,8.5454,1.1496,3.6787,6.0522,5.1478,-0.0696
2635,8.6604,1.1879,3.6404,5.7739,5.1478,0.1391
2640,8.5838,1.1879,3.4105,5.4261,5.0783,0.487
2645,8.3155,1.3412,3.7937,5.7043,5.0783,0.7652
2650,8.737,1.2646,3.7171,5.7043,4.8696,1.0435
2655,8.5838,1.3412,3.6021,5.9826,4.7304,1.3217
2660,8.6987,1.3412,3.4871,6.6087,4.1043,0.8348
2665,8.7754,1.4179,3.3722,6.8174,4.1043,1.6
2670,8.8137,1.4179,3.4488,6.1913,4.1739,2.3652
2675,8.852,1.4179,3.4488,5.7043,4.0348,2.8522
2680,8.852,1.3029,3.2955,5.2174,3.8261,3.2696
2685,8.8903,1.4562,3.5638,4.8,3.8261,3.687
2690,8.9286,1.3029,3.4488,4.2435,3.6174,4.1043
2695,9.0053,1.3795,3.5255,3.687,3.6174,4.313
2700,9.0053,1.5328,3.3722,2.9217,3.6174,4.5913
2705,9.0053,1.3412,3.4488,1.9478,3.5478,4.6609
2710,8.967,1.1879,3.2572,0.9739,3.5478,4.8
2715,9.0819,1.2646,3.4105,0.0696,3.6174,4.8
2720,8.8903,1.1113,3.3722,-0.6261,3.6174,4.8696
2725,9.0053,1.1879,3.5255,-1.3913,3.5478,4.8696
2730,8.8903,1.073,3.5638,-1.7391,3.5478,4.7304
2735,8.852,1.073,3.6404,-1.9478,3.3391,4.6609
2740,8.9286,0.9197,3.5255,-2.087,3.2696,4.5913
2745,8.8903,0.9197,3.4105,-2.2957,3.0609,4.4522
2750,9.0436,0.958,3.4488,-2.3652,2.9913,4.3826
2755,8.852,0.8047,3.3722,-2.3652,2.8522,4.313
2760,8.8903,0.9963,3.6021,-2.5043,2.5739,4.2435
2765,9.0819,0.843,3.4871,-2.6435,2.3652,4.2435
2770,8.9286,0.9963,3.5255,-2.9217,2.2957,4.1739
2775,8.7754,0.8814,3.6021,-3.3391,2.087,4.1739
2780,8.9286,0.9963,3.5255,-3.6174,1.9478,4.1043
2785,8.967,0.8814,3.5255,-4.1043,1.7391,4.0348
2790,8.9286,0.9963,3.3722,-4.5217,1.6,3.9652
2795,8.852,0.958,3.4871,-5.0783,1.4609,3.9652
2800,8.7754,0.9197,3.4488,-5.4957,1.3217,3.7565
2805,8.9286,0.9963,3.4871,-6.0522,1.0435,3.8957
2810,8.7754,0.8814,3.7554,-6.6087,0.9739,3.687
2815,8.852,0.7281,3.4871,-6.9565,0.6957,3.5478
2820,8.8903,0.7281,3.6021,-7.2348,0.6261,3.4087
2825,8.7754,0.6898,3.4871,-7.513,0.6261,3.2
2830,8.852,0.6131,3.3339,-7.7217,0.487,3.0609
2835,8.7754,0.6514,3.5255,-8.1391,0.4174,2.713
2840,8.852,0.6514,3.4871,-8.2783,0.3478,2.4348
2845,8.8137,0.6131,3.4871,-8.5565,0.2087,2.087
2850,8.852,0.5365,3.4488,-8.7652,0.2783,1.8087
2855,8.7754,0.5748,3.4871,-8.9043,0.2783,1.4609
2860,8.8903,0.6131,3.3339,-9.0435,0.2087,1.113
2865,8.8137,0.4598,3.4871,-9.0435,0.1391,0.8348
2870,8.9286,0.4982,3.3339,-9.2522,0.0696,0.6261
2875,8.967,0.5748,3.4488,-9.1826,-0.1391,0.4174
2880,8.9286,0.5365,3.3722,-9.2522,-0.2087,0.2783
2885,8.967,0.5748,3.4105,-9.1826,-0.4174,0.0
2890,8.9286,0.4982,3.4488,-9.113,-0.487,-0.2087
2895,9.0819,0.4982,3.3339,-8.8348,-0.487,-0.487
2900,8.967,0.4215,3.4105,-8.7652,-0.6261,-0.8348
2905,9.0436,0.5748,3.4871,-8.5565,-0.7652,-1.0435
2910,9.0819,0.5365,3.3722,-8.4174,-0.9043,-1.2522
2915,9.0436,0.5748,3.3722,-8.3478,-0.9043,-1.3913
2920,9.0053,0.6514,3.4871,-8.2783,-0.9043,-1.6
2925,8.9286,0.5365,3.4105,-8.0696,-0.9739,-1.8087
2930,9.0819,0.5365,3.4105,-7.9304,-0.9043,-2.0174
2935,9.0053,0.5365,3.2189,-7.8609,-0.9043,-2.1565
2940,9.0436,0.6131,3.5255,-7.6522,-0.9043,-2.2261
2945,9.0053,0.5748,3.4488,-7.4435,-0.8348,-2.3652
2950,8.8903,0.5365,3.2572,-7.2348,-0.6957,-2.4348
2955,8.967,0.5365,3.2955,-7.0957,-0.5565,-2.5739
2960,9.0053,0.6131,3.3722,-6.7478,-0.487,-2.5739
2965,8.967,0.4215,3.3339,-6.4696,-0.2783,-2.713
2970,8.967,0.5748,3.4871,-6.0522,-0.0696,-2.713
2975,8.8903,0.4982,3.5638,-5.7043,0.0696,-2.713
2980,8.9286,0.5365,3.4105,-5.4261,0.2783,-2.713
2985,9.0053,0.5748,3.3339,-5.1478,0.2783,-2.713
2990,8.9286,0.6131,3.4105,-4.8,0.4174,-2.6435
2995,9.0436,0.6514,3.3722,-4.4522,0.5565,-2.6435
