timestamp,accX,accY,accZ,gyroX,gyroY,gyroZ
0,-4.7517,-14.715,3.1423,-30.3304,19.3391,11.4783
5,-4.4452,-15.1748,3.4105,-31.8609,13.5652,14.1913
10,-4.2152,-15.673,3.2189,-31.513,7.7913,17.1826
15,-3.6787,-16.0179,3.2189,-29.3565,2.2261,20.0348
20,-3.2572,-15.9796,3.1806,-25.2522,-2.7826,22.6783
25,-2.874,-15.9413,3.1423,-19.2696,-7.7913,24.5565
30,-2.4525,-15.2898,3.0656,-11.7565,-11.8957,25.113
35,-2.4142,-14.715,2.989,-3.3391,-14.0522,24.8348
40,-2.3759,-14.2935,2.6824,3.9652,-15.4435,23.6522
45,-2.3759,-13.757,2.3375,8.9043,-15.7913,22.3304
50,-2.1459,-13.0672,1.5711,11.0609,-15.0261,20.3826
55,-1.9543,-12.3008,0.843,11.4783,-12.5913,18.0174
60,-1.6095,-11.4578,0.4598,11.4087,-8.9739,16.4174
65,-0.9197,-10.768,-0.1533,10.7826,-4.9391,15.0261
70,-0.4598,-10.0016,-0.3066,9.9478,-0.487,13.287
75,-0.0383,-9.3502,-0.7664,9.7391,4.2435,11.6174
80,0.3066,-8.6221,-1.2263,9.6696,8.3478,10.1565
85,0.6898,-7.8557,-1.4945,9.1826,12.1043,8.9043
90,1.073,-7.2809,-1.6861,7.7913,14.887,7.8609
95,1.3029,-6.9743,-1.7244,5.3565,16.6261,6.7478
100,1.4179,-6.7827,-1.6861,2.713,17.4609,5.4261
105,1.4945,-6.8593,-1.6478,0.3478,17.6,3.4783
110,1.4945,-6.8977,-1.3412,-2.2957,17.6,1.3913
115,1.3795,-7.1659,-1.0346,-5.0087,17.3913,-0.8348
120,1.1496,-7.5491,-0.8047,-8.6261,16.9739,-3.1304
125,0.843,-8.1622,-0.4215,-12.5217,16.2783,-5.0087
130,0.5365,-8.6987,0.0383,-16.8348,15.2348,-6.6087
135,0.0383,-9.4651,0.3449,-20.4522,14.2609,-7.7913
140,-0.1533,-10.0016,0.7281,-24.9739,12.7304,-8.7652
145,-0.5748,-10.2698,1.0346,-29.2174,11.3391,-9.3913
150,-0.9197,-10.8446,1.2646,-32.3478,9.4609,-9.3217
155,-1.2646,-11.3045,1.2263,-35.0609,7.7217,-9.1826
160,-1.4562,-11.726,1.2646,-37.6348,6.6087,-8.8348
165,-1.6861,-12.0326,1.1496,-40.487,5.4261,-8.4174
170,-1.9543,-12.4541,0.9963,-42.3652,4.1739,-7.9304
175,-1.916,-12.6457,0.9197,-42.2957,3.4087,-7.1652
180,-1.8011,-12.7607,1.1113,-39.8609,2.5739,-6.1217
185,-1.8394,-13.0672,0.958,-34.9913,0.6261,-6.0522
190,-1.3029,-12.7607,0.9197,-28.2435,-2.0174,-7.2348
195,-0.9963,-12.4924,1.073,-20.8696,-3.4087,-7.9304
200,-0.9963,-11.8027,1.1496,-13.287,-4.2435,-8.3478
205,-0.6514,-11.4195,1.2263,-7.4435,-5.7043,-9.4609
210,-0.5748,-10.883,1.3412,-3.5478,-6.7478,-10.9913
215,-0.4982,-10.1932,1.5328,-1.3913,-6.7478,-12.4522
220,-0.6898,-10.0016,1.4179,-0.2087,-5.6348,-12.4522
225,-0.4215,-9.8866,1.5711,0.2087,-5.3565,-12.8
230,-0.4598,-9.6184,1.4945,-0.2783,-5.7043,-14.4696
235,-0.4598,-9.5034,1.6095,-0.9739,-6.1217,-15.8609
240,-0.3449,-9.4651,1.5711,-2.0174,-6.6087,-17.113
245,-0.3066,-9.1969,1.6478,-3.4087,-7.1652,-18.2261
250,-0.3449,-9.1586,1.6478,-4.8696,-7.9304,-19.687
255,-0.2682,-8.9286,2.031,-6.3304,-10.5043,-23.7217
260,-0.115,-9.0053,2.0693,-8.9043,-11.2696,-25.7391
265,-0.1916,-9.2352,2.031,-10.713,-11.8261,-25.6696
270,0.0,-9.2352,2.031,-10.6435,-13.8435,-27.4087
275,-0.4215,-9.4651,2.4142,-10.0174,-14.7478,-27.6174
280,-0.115,-9.6567,2.1076,-9.0435,-17.113,-29.3565
285,-0.3066,-9.5034,2.1076,-7.9304,-17.7391,-30.6087
290,-0.2299,-9.5034,2.1843,-7.3739,-19.2,-32.4174
295,0.0,-9.6567,2.2992,-6.887,-20.0348,-33.1826
300,-0.2682,-9.6184,2.2992,-5.4261,-20.4522,-33.4609
305,-0.2682,-9.695,2.4525,-3.3391,-21.5652,-33.7391
310,-0.4215,-9.695,2.4525,-0.5565,-22.9565,-33.2522
315,-0.3832,-9.4651,2.3375,2.0174,-24.5565,-32.7652
320,-0.3832,-9.3885,2.2226,4.4522,-26.1565,-31.8609
325,-0.4215,-9.3885,2.3375,6.2609,-27.5478,-30.4696
330,-0.4598,-9.1586,2.3375,7.7913,-28.7304,-29.0783
335,-0.3449,-8.737,2.031,8.487,-29.8435,-27.8261
340,-0.4982,-8.4688,2.2226,8.1391,-30.7478,-26.5739
345,-0.2299,-8.3155,2.1076,7.4435,-31.1652,-25.5304
350,-0.115,-7.894,2.1076,6.6783,-31.3739,-24.2783
355,-0.115,-7.779,2.1076,6.6087,-31.513,-23.0957
360,0.0,-7.5491,2.2609,6.3304,-31.7913,-21.913
365,0.1916,-7.2809,2.3375,5.7043,-31.513,-20.8696
370,0.4598,-7.1659,2.3375,4.4522,-31.0261,-19.7565
375,0.6131,-7.0509,2.3759,2.6435,-31.0957,-19.2696
380,0.6898,-6.821,2.4525,0.2783,-30.9565,-18.1565
385,0.7664,-7.0893,2.6441,-2.6435,-31.0261,-16.1391
390,0.8814,-7.2809,2.7974,-5.0783,-31.4435,-14.5391
395,0.5365,-7.4341,2.7207,-6.7478,-32.6957,-14.5391
400,1.4945,-7.2042,2.9123,-8.0,-34.5043,-16.2087
405,1.1113,-7.7407,2.9507,-10.1565,-32.6957,-13.0783
410,1.1113,-8.1239,2.9123,-9.113,-31.7913,-9.1826
415,1.0346,-8.0473,2.7974,-5.4957,-31.3739,-6.8174
420,0.5748,-8.1622,2.7591,-3.0609,-31.3739,-5.5652
425,0.4598,-8.2389,2.9123,-1.3913,-31.2348,-4.1043
430,0.115,-8.3155,2.9507,0.1391,-31.3043,-2.4348
435,0.0,-8.3921,2.9507,1.3217,-31.6522,-0.8348
440,-0.115,-8.3155,3.1423,2.2957,-32.0,0.7652
445,-0.115,-8.2772,3.1806,2.7826,-32.0696,2.5739
450,-0.2299,-8.0856,3.0656,2.7826,-31.8609,4.2435
455,-0.3832,-7.9323,3.1806,2.0174,-30.9565,5.9826
460,-0.3832,-7.6641,2.989,0.4174,-30.0522,7.7913
465,-0.3449,-7.7024,2.989,-2.0174,-29.0783,9.7391
470,-0.1533,-7.7024,3.0273,-4.4522,-27.8957,11.6174
475,0.0,-7.9706,3.1806,-6.0522,-27.1304,12.9391
480,0.1533,-7.9706,3.3722,-6.6087,-26.8522,13.7043
485,0.3449,-8.0856,3.6021,-6.4696,-27.0609,14.0522
490,0.5365,-8.1622,3.4488,-6.0522,-26.7826,14.1913
495,1.0346,-8.6604,3.2189,-5.9826,-26.5739,14.0522
500,1.073,-8.967,2.874,-6.3304,-25.9478,13.7043
505,1.6095,-9.3502,3.1039,-6.3304,-24.6261,13.6348
510,1.6478,-9.3118,2.989,-6.0522,-23.0261,12.8
515,1.8394,-9.5418,2.874,-5.0087,-20.9391,12.1043
520,1.916,-9.6184,2.7974,-3.4783,-18.713,11.4087
525,1.8777,-9.695,2.9507,-2.4348,-16.6261,10.5739
530,1.8011,-9.6567,2.874,-1.8087,-14.1913,9.7391
535,1.6861,-9.4651,2.9123,-1.9478,-11.5478,8.6957
540,1.3412,-9.4268,2.5291,-3.4783,-9.113,7.2348
545,1.1879,-9.3118,2.4908,-6.4,-7.0957,5.4261
550,1.1113,-9.3118,2.3759,-9.3217,-4.9391,3.6174
555,0.958,-9.1202,2.4525,-11.7565,-2.713,2.6435
560,0.3832,-8.967,2.5675,-13.0783,-1.1826,1.8087
565,0.6514,-8.4305,2.4908,-14.7478,-1.9478,-0.9043
570,0.9197,-8.4688,2.6824,-16.6957,-1.3913,-0.6957
575,0.5365,-8.3921,2.6058,-18.2957,-0.9739,0.2087
580,0.8047,-8.1622,2.9123,-20.9391,-1.9478,0.0696
585,0.6514,-8.5454,2.874,-23.5826,-1.7391,1.2522
590,0.6131,-8.8903,3.1039,-26.713,-2.8522,1.3217
595,0.6898,-8.8903,2.7974,-30.9565,-4.9391,-0.2783
600,0.6898,-9.0436,2.9123,-33.8087,-4.5217,0.7652
605,0.5365,-9.3885,2.7591,-35.3391,-4.4522,2.713
610,0.4982,-9.3118,2.989,-36.1739,-5.0087,4.8696
615,0.4215,-9.2735,2.4908,-37.5652,-5.6348,5.8435
620,0.3832,-9.4651,2.2609,-40.7652,-5.7043,5.913
625,-0.1916,-9.7717,1.916,-44.3826,-5.2174,5.3565
630,0.3066,-9.6184,1.3029,-49.2522,-7.4435,1.7391
635,0.6131,-9.8866,0.7281,-53.7043,-6.1217,1.5304
640,0.7281,-9.9633,0.2299,-56.2087,-3.1304,3.7565
645,0.958,-10.0782,0.0,-57.1826,0.1391,7.0261
650,1.0346,-10.3082,-0.5748,-57.3913,2.2261,8.2087
655,1.073,-10.4231,-0.7281,-58.1565,4.4522,7.8609
660,1.7244,-10.653,-0.6898,-59.4087,6.2609,6.6087
665,1.8011,-10.653,-0.8047,-61.1478,10.087,7.3043
670,1.8394,-10.9213,-0.7281,-63.3739,12.313,7.7217
675,2.0693,-11.0363,-0.4982,-65.4609,14.6087,7.0957
680,1.9927,-11.0746,-0.3832,-67.2696,16.3478,5.7043
685,2.1459,-11.0746,-0.1533,-68.9391,18.5739,3.4087
690,2.2226,-11.1512,-0.0383,-70.4696,21.6348,1.8087
695,2.031,-10.9979,0.3066,-71.6522,24.7652,0.5565
700,1.6861,-11.0746,0.5748,-72.2783,26.9217,-1.3217
705,1.4562,-11.0363,0.958,-71.7913,27.4783,-3.6174
710,1.3029,-10.2698,1.3795,-71.513,27.4783,-7.1652
715,0.7664,-10.3082,1.4562,-74.6435,27.1304,-10.3652
720,0.3449,-10.5764,1.7244,-77.7739,24.8348,-12.5217
725,-0.0383,-10.8446,1.8011,-78.887,21.3565,-15.1652
730,-0.4982,-11.0363,1.1113,-79.2348,17.5304,-16.2087
735,-1.073,-11.2279,1.7244,-81.6696,13.5652,-16.9043
740,-1.073,-11.1895,1.2263,-83.4783,8.2087,-16.9739
745,-1.1496,-11.4195,0.5748,-85.5652,3.8957,-15.5826
750,-1.3029,-11.4195,0.0,-89.113,0.1391,-13.3565
755,-1.2646,-10.9213,-0.5365,-94.7478,-3.8261,-11.7565
760,-1.1113,-10.883,-0.9963,-100.8,-5.5652,-8.7652
765,-1.073,-10.883,-1.1496,-105.5304,-6.6783,-4.8696
770,-0.9963,-10.9596,-0.843,-108.0348,-7.8609,-1.8087
775,-0.9197,-10.653,-0.5365,-107.4087,-9.6,0.9043
780,-0.6514,-10.2315,-0.3449,-104.9043,-11.7565,3.5478
785,-0.4598,-9.7717,-0.0766,-102.3304,-13.9826,6.7478
790,-0.0383,-9.695,0.115,-100.7304,-16.487,10.2261
795,0.115,-9.3118,0.3066,-100.5217,-19.5478,13.7739
800,0.0766,-8.8903,0.0,-101.6348,-22.7478,17.9478
805,0.1533,-8.852,-0.5365,-104.7652,-25.7391,22.6087
810,0.115,-8.8903,-1.5328,-109.913,-27.7565,27.0609
815,0.4598,-9.2352,-1.9927,-117.4261,-28.8,30.6087
820,0.1916,-9.2352,-2.4525,-126.0522,-29.0783,32.8348
825,0.3066,-9.2735,-2.989,-134.6783,-29.913,33.8783
830,0.6514,-9.1586,-3.2572,-143.3739,-31.0957,33.8087
835,0.7281,-8.9286,-3.832,-153.6,-32.0696,33.4609
840,0.6514,-8.8903,-3.9853,-166.2609,-31.7913,32.5565
845,0.958,-9.1202,-3.7171,-179.7565,-30.2609,30.9565
850,1.2646,-9.3885,-2.7974,-190.887,-27.8261,28.2435
855,1.3795,-9.6184,-2.1843,-198.0522,-25.8783,24.8348
860,1.6478,-9.81,-1.6095,-201.6696,-24.0696,21.1478
865,1.5711,-10.1549,-1.2263,-204.313,-20.8696,17.8783
870,1.9927,-10.6914,-1.1496,-206.6087,-15.2348,14.7478
875,1.5328,-11.5344,-0.9963,-207.5826,-7.0261,11.2696
880,1.2263,-12.0326,-1.1496,-206.6087,1.6696,8.2783
885,0.8047,-12.3775,-1.5328,-204.8696,8.9739,6.0522
890,0.2299,-13.0672,-1.4179,-203.6174,15.0957,6.3304
895,-0.5365,-13.3355,-0.8814,-201.3217,20.313,8.5565
900,-1.0346,-13.9869,-1.1496,-197.2174,24.1391,12.0348
905,-1.6861,-14.0252,-1.1113,-193.4609,26.713,15.9304
910,-1.8777,-13.4888,-1.4945,-189.4261,28.2435,20.0348
915,-1.7244,-13.0289,-1.8394,-186.5043,29.1478,23.3739
920,-2.3759,-12.2625,-2.3375,-184.9043,29.9826,25.3217
925,-1.3029,-11.5344,-2.8357,-183.5826,30.6783,27.2
930,-1.1879,-10.6914,-2.989,-183.1652,30.6087,28.1739
935,-1.2263,-9.925,-2.874,-182.7478,29.7739,28.5913
940,-1.2263,-9.3885,-2.9507,-181.9826,28.3826,28.3826
945,-1.073,-8.8903,-2.7207,-180.8696,27.2,27.3391
950,-0.958,-8.5071,-2.7974,-179.4087,26.713,25.3913
955,-0.8814,-8.2772,-2.7591,-177.4609,26.9217,23.5826
960,-0.9963,-7.7024,-2.8357,-174.2609,27.2,22.5391
965,-0.9963,-7.2809,-3.5255,-170.3652,27.687,22.8174
970,-1.2646,-7.1659,-4.3685,-167.8609,29.3565,23.6522
975,-1.5711,-7.0509,-5.863,-168.2087,32.5565,25.0435
980,-1.6095,-7.2809,-7.1659,-171.5478,36.5913,26.9913
985,-2.031,-7.3958,-7.9706,-176.3478,41.6696,28.8
990,-2.1076,-7.4725,-8.4688,-181.4957,47.4435,30.6087
995,-1.9543,-7.779,-8.7754,-185.9478,53.5652,32.0696
1000,-1.916,-7.894,-9.1969,-190.3304,58.8522,32.9043
1005,-1.7627,-8.1239,-9.6567,-195.2,62.6087,32.8348
1010,-1.6478,-8.6604,-9.81,-201.3217,64.8348,32.4174
1015,-1.4945,-9.2352,-9.3502,-208.4174,65.9478,30.887
1020,-1.3412,-9.8866,-8.6221,-213.7043,66.2957,27.1304
1025,-1.3412,-10.2698,-8.3155,-216.7652,65.7391,22.3304
1030,-1.4179,-10.768,-7.9706,-218.2957,63.8609,17.6
1035,-1.8394,-10.4614,-7.5491,-218.8522,61.6348,13.0087
1040,-2.031,-10.0399,-7.4725,-220.7304,59.9652,8.7652
1045,-2.1843,-9.5418,-7.8173,-224.6957,59.6174,6.2609
1050,-2.0693,-8.8137,-7.7024,-231.6522,62.3304,5.6348
1055,-1.7627,-8.4688,-7.5874,-239.9304,67.2696,6.1913
1060,-1.1879,-8.1239,-7.6257,-248.6957,72.6261,6.4
1065,-0.1916,-7.7024,-8.2772,-257.1826,75.4783,5.9826
1070,0.4982,-7.1659,-8.852,-265.8087,76.1739,5.6348
1075,0.6131,-6.8593,-8.6987,-276.0348,75.7565,6.5391
1080,0.6131,-7.3958,-7.2425,-285.0783,76.0348,8.5565
1085,0.0,-7.7407,-5.2116,-289.113,76.313,10.5739
1090,-0.3832,-8.1622,-3.4488,-288.6957,75.0609,12.3826
1095,-0.5365,-8.5838,-1.8011,-286.3304,72.5565,13.287
1100,-0.6514,-8.8137,-0.2299,-282.2261,71.2348,12.4522
1105,-0.3066,-8.8137,1.0346,-275.2,71.7217,9.8087
1110,0.0,-8.3155,1.7627,-265.2522,74.2261,6.1217
1115,0.2682,-7.5491,1.916,-254.0522,77.4261,2.2261
1120,0.6898,-6.7827,2.2609,-240.4174,78.6783,-1.3913
1125,1.3029,-6.3229,2.2609,-223.513,76.3826,-4.5217
1130,1.5711,-5.7097,2.1459,-204.8,71.0957,-7.1652
1135,1.5328,-5.4032,2.1843,-187.3391,64.9043,-8.7652
1140,1.5711,-5.2499,2.3375,-173.6348,58.1565,-10.5043
1145,1.3029,-4.905,2.5675,-164.2435,50.9217,-12.7304
1150,0.9197,-4.5984,3.1423,-158.4696,43.1304,-15.3739
1155,0.5365,-4.062,3.947,-155.1304,33.6696,-17.6696
1160,-0.115,-3.5638,4.79,-152.1391,21.8435,-19.4783
1165,-0.7664,-3.2189,5.7097,-147.8261,8.2783,-20.8696
1170,-1.8011,-2.8357,6.7444,-141.6348,-5.7043,-21.8435
1175,-2.3375,-1.916,7.1276,-135.6522,-18.8522,-22.3304
1180,-3.4871,-1.5711,7.5108,-127.0957,-31.0957,-21.7739
1185,-4.4452,-0.6898,6.821,-118.6783,-43.1304,-22.3304
1190,-4.905,0.0,6.5145,-110.5391,-50.7826,-19.8261
1195,-5.748,0.4598,6.4761,-103.0957,-59.4087,-16.0696
1200,-6.7827,0.4982,6.8593,-97.4609,-67.4783,-12.5217
1205,-7.1659,0.2299,6.9743,-93.0087,-77.0087,-7.0957
1210,-7.3958,-0.2682,6.6677,-90.1565,-89.9478,-2.9217
1215,-7.3958,-0.4215,6.3229,-88.487,-99.7565,1.4609
1220,-7.1276,-0.115,5.0966,-87.1652,-102.0522,7.6522
1225,-6.3229,0.0383,4.7134,-86.6783,-96.3478,14.3304
1230,-5.5181,0.2682,4.6751,-84.0348,-84.3826,22.9565
1235,-4.3685,0.0766,3.9087,-73.1826,-74.2261,35.2696
1240,-2.4142,0.5365,2.031,-54.0522,-71.0261,50.087
1245,-0.8047,0.2299,0.3832,-32.2087,-71.2348,64.3478
1250,0.9197,-0.0766,-0.4215,-11.1304,-70.887,74.7826
1255,2.5675,0.0383,-0.5365,9.5304,-68.8,80.2087
1260,4.2152,0.0,-0.4215,24.9739,-64.9739,80.0696
1265,5.1349,-0.7664,-0.0383,33.5304,-54.4,74.3652
1270,6.7827,-1.8777,0.6898,39.5826,-37.1478,65.9478
1275,8.2005,-2.5675,0.958,43.5478,-18.9913,52.5217
1280,9.6567,-2.9507,0.6898,44.6609,-1.0435,36.313
1285,11.1512,-3.2955,-0.6514,42.6435,19.2,20.6609
1290,12.7607,-3.1423,-3.0656,40.4174,41.8087,4.6609
1295,13.3355,-2.874,-5.5948,38.1217,67.3391,-10.087
1300,13.2971,-1.9543,-7.2042,36.1043,92.0348,-22.2609
1305,12.4541,-0.3066,-8.4305,37.0783,115.6174,-30.1913
1310,11.6111,1.073,-9.5418,39.7913,137.8783,-35.3391
1315,10.6147,2.2609,-10.2315,41.6696,161.5304,-38.4696
1320,9.9633,2.4908,-10.4614,41.6,185.6696,-40.1391
1325,10.0782,2.031,-10.8446,37.3565,210.087,-44.0348
1330,9.925,1.2646,-12.2625,30.4,233.8087,-51.687
1335,9.2352,0.6898,-14.1785,22.4,256.0,-60.8696
1340,8.4688,0.2299,-15.2515,14.6087,275.3391,-70.1913
1345,7.8557,-0.4215,-15.3664,9.6,291.3391,-78.0522
1350,7.3192,-0.9197,-15.3664,9.113,303.7913,-84.9391
1355,6.8593,-1.2263,-15.7496,10.087,315.0609,-90.4348
1360,6.936,-1.3795,-16.4777,10.0174,326.887,-94.887
1365,6.8593,-1.9927,-16.6693,6.8174,339.8957,-99.8261
1370,7.0126,-2.3759,-16.8993,0.7652,353.7391,-106.087
1375,7.2042,-3.3722,-17.5124,-7.2348,367.0261,-112.8348
1380,7.4725,-4.4835,-18.777,-15.8609,379.7565,-120.2783
1385,7.5874,-5.3648,-19.3901,-23.1652,392.1391,-128.487
1390,7.3958,-5.978,-19.8116,-28.1739,403.4087,-135.6522
1395,6.7444,-6.7827,-19.9266,-32.8348,413.4261,-140.1739
1400,5.863,-8.2772,-19.505,-38.6783,423.513,-141.9826
1405,5.6714,-9.3502,-19.3134,-42.087,433.8087,-141.287
1410,4.7517,-10.2698,-19.6966,-43.5478,442.4348,-141.8435
1415,3.7937,-11.1129,-19.735,-42.5739,447.6522,-139.9652
1420,2.8357,-10.4614,-19.3518,-36.1739,450.0174,-137.4609
1425,2.2226,-9.1586,-18.7003,-27.3391,454.5391,-136.487
1430,0.6131,-7.2809,-18.2788,-20.9391,463.0261,-133.0087
1435,-0.7281,-5.5564,-18.0872,-18.2261,473.113,-124.0348
1440,-2.9123,-3.5638,-16.8993,-15.2348,481.8087,-106.9913
1445,-17.6657,-0.5748,-16.5927,-11.5478,486.6783,-83.0609
1450,-31.0778,6.0163,-17.589,4.0348,487.9304,-59.7565
1455,-27.2457,4.4835,-19.2751,37.1478,474.087,-93.913
1460,-7.2425,4.9433,-11.9943,43.8261,408.3478,-123.9652
1465,9.7334,16.8993,-15.1365,36.9391,330.087,-194.8522
1470,15.9413,24.7549,-19.5817,9.9478,268.6609,-328.2783
1475,24.1418,23.4904,-22.6473,-17.8783,254.1217,-379.4783
1480,30.0431,12.4158,-22.5323,-98.9217,230.1913,-280.6957
1485,30.9245,6.6294,-16.0179,-142.1913,216.3478,-167.1652
1490,27.7056,6.6677,-21.3444,-95.4435,211.6174,-141.8435
1495,26.4793,15.4431,-22.494,-28.1043,188.313,-160.6261
1500,24.2568,34.6032,-20.5014,-19.1304,193.8087,-184.2087
1505,15.6347,36.0977,-19.62,-85.913,196.2435,-213.5652
1510,32.7255,27.4373,-16.9759,-175.0957,197.3565,-180.8696
1515,35.9445,25.9045,-7.779,-200.1391,201.6696,-169.3913
1520,40.3513,21.651,-2.4525,-167.7217,197.5652,-158.7478
1525,38.2437,10.883,1.916,-107.1304,184.0696,-133.287
1530,37.209,-0.843,1.8777,-8.6957,148.5913,-123.5478
1535,34.1051,-0.4982,-3.3722,101.2174,102.5391,-131.5478
1540,31.8825,8.3921,-16.4011,193.5304,69.0783,-121.4609
1545,24.8699,15.2898,-21.8809,217.2522,55.7913,-82.8522
1550,18.1255,19.6966,-22.1108,189.913,51.8957,-22.6087
1555,10.9979,22.4557,-18.0489,142.8174,46.6087,42.7826
1560,11.1895,23.6053,-9.2352,103.9304,33.2522,99.3391
1565,10.3082,22.4174,-2.0693,87.9304,16.0,131.6174
1570,8.6987,19.2368,2.5675,92.0348,-6.6783,145.9478
1575,8.3538,14.83,3.7554,107.2696,-25.8783,145.4609
1580,5.1732,11.1895,5.02,117.2174,-34.1565,129.2522
1585,4.9816,7.3958,8.6987,120.1391,-38.7478,111.2348
1590,5.4798,5.978,7.894,129.1826,-42.9217,94.2609
1595,5.7864,7.0126,5.2882,139.3391,-40.0696,86.0522
1600,6.1313,7.4341,2.3375,138.4348,-32.0,88.2783
1605,4.6368,7.2042,-0.4982,120.9739,-25.8087,89.5304
1610,2.3375,6.3229,-2.7207,89.8087,-28.4522,85.5652
1615,0.4215,5.3648,-3.1806,54.4696,-43.687,77.913
1620,-0.6131,3.8704,-3.8704,23.7217,-63.6522,70.8174
1625,-0.8814,2.9507,-3.2955,-0.8348,-82.8522,64.2087
1630,-1.4562,2.7591,-1.9543,-16.0696,-96.8348,57.3913
1635,-0.9963,2.9123,0.0383,-22.4,-103.0957,50.6435
1640,-0.1533,3.0656,1.6861,-23.3043,-100.2435,43.4783
1645,0.4598,2.7591,2.7974,-22.5391,-91.1304,37.8435
1650,1.2646,2.4525,3.3339,-21.8435,-79.7913,34.5043
1655,2.031,2.031,3.7171,-21.0087,-67.9652,31.7913
1660,2.2226,1.4945,3.5255,-19.8957,-58.1565,28.1739
1665,2.8357,0.843,3.1423,-17.4609,-51.3391,23.4435
1670,3.2955,0.0,2.5675,-14.4696,-47.7217,16.6261
1675,3.832,-0.6898,1.9927,-10.6435,-45.7739,8.7652
1680,4.8667,-0.6131,1.3029,-5.7043,-44.2435,-0.1391
1685,6.7061,-0.3832,0.958,1.0435,-40.0,-10.2261
1690,7.3575,0.0766,1.073,4.7304,-32.2087,-21.1478
1695,7.9706,0.843,1.5328,6.8174,-20.3826,-30.887
1700,9.0053,1.5711,1.8394,8.2783,-8.9739,-38.0522
1705,9.6184,2.2226,1.9927,9.4609,7.0957,-43.8957
1710,10.1549,2.5291,1.8777,9.4609,23.7913,-47.7217
1715,8.4688,2.874,1.0346,6.6783,39.0261,-52.1739
1720,6.2845,2.4142,-0.0383,-1.3913,50.5739,-48.8348
1725,6.0163,1.8777,-0.3832,-14.7478,54.1217,-37.7739
1730,5.748,1.6095,-0.958,-26.1565,52.313,-28.8
1735,5.6714,1.4945,-1.3029,-30.887,48.9043,-23.0261
1740,6.1696,1.9927,-1.5328,-29.7043,46.0522,-17.8783
1745,6.8977,2.3759,-1.916,-25.3217,45.3565,-11.4783
1750,7.3192,3.1806,-1.9543,-21.0087,46.6087,-5.287
1755,8.0473,4.062,-2.0693,-19.2696,47.9304,-0.8348
1760,8.6604,5.0966,-2.2609,-22.1217,49.6,1.8087
1765,8.8137,5.7097,-2.5291,-29.7739,51.0609,4.8
1770,9.0053,6.4378,-2.4908,-39.9304,50.9217,8.9739
1775,9.1586,6.1696,-2.6441,-50.2957,49.0435,13.7739
1780,9.2352,6.0546,-2.6441,-58.713,46.1217,18.087
1785,9.5418,5.8247,-2.6824,-64.9043,42.5739,21.6348
1790,9.5801,5.5948,-2.7207,-69.0087,39.4435,24.8348
1795,9.5034,5.2882,-2.6058,-71.513,36.313,27.6174
1800,10.1166,4.5218,-2.6824,-72.7652,33.5304,31.7217
1805,10.2698,3.947,-2.7591,-73.5304,30.9565,34.6435
1810,10.4231,3.5638,-2.5291,-72.9043,29.3565,37.5652
1815,10.768,2.8357,-2.4908,-70.5391,27.6174,40.9739
1820,11.0363,2.3759,-2.4908,-67.2,25.3913,44.1739
1825,11.6111,1.9927,-2.6824,-62.6087,22.6783,47.4435
1830,11.9176,1.5328,-2.9507,-57.1826,20.8696,50.2957
1835,12.4158,1.3029,-3.3722,-51.1304,19.687,51.9652
1840,13.0289,1.2263,-3.5255,-44.8696,17.7391,52.1043
1845,13.757,1.073,-3.6787,-38.4696,15.1652,50.6435
1850,13.6037,1.3412,-4.3685,-31.4435,11.687,46.7478
1855,13.3355,1.7244,-4.79,-25.113,7.7217,41.6
1860,12.5307,1.6478,-5.1732,-21.3565,3.8957,37.8435
1865,11.841,1.6478,-5.5948,-21.4957,-0.1391,35.8261
1870,11.1129,1.6478,-5.4415,-24.4174,-4.313,34.8522
1875,10.7297,1.4179,-5.2882,-27.0609,-8.9043,34.087
1880,11.1129,1.1496,-4.79,-28.2435,-12.4522,31.7913
1885,10.1549,0.9963,-4.8667,-27.8261,-12.8,28.3826
1890,9.7334,0.5748,-4.062,-26.5739,-13.6348,26.5043
1895,9.2735,0.2682,-3.2572,-24.9043,-14.5391,25.3913
1900,8.967,0.0766,-2.6058,-22.4696,-15.1652,24.8348
1905,8.8903,0.0,-2.0693,-19.0609,-15.9304,23.7913
1910,8.5071,0.0,-1.6478,-14.887,-16.6957,22.9565
1915,8.4305,0.0383,-1.4945,-11.1304,-17.7391,22.887
1920,8.3538,0.0383,-1.4562,-8.2087,-19.0609,23.6522
1925,8.3921,0.115,-1.7244,-6.1217,-20.1739,24.2783
1930,8.5071,0.115,-1.8777,-4.6609,-20.8696,25.0435
1935,8.7754,0.0766,-2.031,-3.4783,-21.287,25.6696
1940,8.6604,0.115,-2.2609,-2.5739,-21.0783,26.713
1945,8.6604,0.1533,-2.6441,-1.8783,-21.1478,27.2
1950,8.6604,0.2299,-2.7207,-1.8087,-21.1478,27.1304
1955,8.8903,0.3066,-2.874,-2.0174,-21.287,26.5043
1960,8.8903,0.3066,-3.0656,-2.0174,-21.1478,25.3913
1965,9.0053,0.2682,-2.989,-1.8783,-20.5913,24.3478
1970,8.737,0.2682,-2.874,-1.9478,-19.9652,22.9565
1975,8.852,0.115,-2.9507,-2.6435,-19.4783,21.4957
1980,8.4688,0.0383,-2.8357,-3.2696,-18.4348,20.0348
1985,8.3538,-0.0766,-2.989,-4.1739,-17.5304,18.9913
1990,8.2005,-0.2682,-2.7974,-4.6609,-16.3478,17.8783
1995,8.4688,-0.4215,-2.7974,-4.8696,-15.3043,16.5565
2000,8.4688,-0.5748,-2.7207,-4.7304,-14.4,15.3739
2005,8.2389,-0.3832,-2.4142,-4.1739,-13.6348,14.4
2010,8.3155,-0.5365,-2.4142,-3.7565,-13.4957,14.1217
2015,8.2005,-0.3832,-2.4908,-3.2696,-14.1913,13.9826
2020,8.2389,-0.4215,-2.4525,-2.6435,-15.0261,13.913
2025,8.4305,-0.2299,-2.6824,-1.6,-15.4435,13.9826
2030,8.3921,-0.1533,-2.7591,-0.2087,-15.513,14.3304
2035,8.5454,-0.1916,-2.9507,0.6261,-14.8174,14.8174
2040,8.6221,-0.0766,-2.9507,1.2522,-13.913,15.3739
2045,8.737,-0.1916,-3.1806,1.7391,-12.6609,16.1391
2050,8.737,-0.0383,-3.5255,2.0174,-11.3391,16.1391
2055,8.852,0.0,-3.5638,1.6696,-10.2261,15.7217
2060,9.0819,0.0,-3.9087,1.1826,-9.2522,15.3739
2065,9.1969,0.0,-3.9087,0.7652,-8.6957,14.4696
2070,9.3118,0.0,-4.1386,0.3478,-7.7913,13.4261
2075,9.4268,-0.2299,-4.2919,-0.3478,-7.0261,12.5217
2080,9.4651,-0.115,-4.1386,-1.0435,-5.8435,11.4783
2085,9.7717,-0.3066,-4.1386,-1.7391,-4.8,10.087
2090,9.5801,-0.1916,-4.1386,-2.2957,-3.3391,8.6261
2095,9.4268,-0.3832,-4.3302,-3.1304,-2.1565,7.3043
2100,9.1586,-0.6898,-4.4835,-4.2435,-1.1826,6.1913
2105,9.4651,-0.5365,-4.5218,-5.7043,-0.5565,5.3565
2110,9.5034,-0.5748,-4.4068,-6.4,-0.2783,4.3826
2115,9.5034,-0.6131,-4.2152,-6.2609,0.2783,2.9217
2120,9.5418,-0.6514,-4.1769,-5.4261,1.1826,1.3217
2125,9.4268,-0.4598,-4.2152,-4.0348,2.4348,-0.5565
2130,9.5418,-0.4598,-4.1386,-2.5739,3.687,-2.4348
2135,9.5418,-0.4982,-4.0236,-1.0435,4.8696,-5.0783
2140,9.3502,-0.1916,-4.062,0.2783,5.6348,-7.4435
2145,9.2735,-0.115,-4.1386,1.2522,6.4696,-9.5304
2150,9.3502,0.0,-3.9087,1.9478,7.0261,-10.9913
2155,9.0819,0.115,-3.8704,2.0174,7.6522,-12.1739
2160,9.0053,0.1533,-3.6404,2.2261,8.1391,-13.287
2165,9.0053,0.1916,-3.4871,2.2957,8.6261,-13.913
2170,9.0053,0.3066,-3.4488,2.4348,9.113,-14.4
2175,8.852,0.4598,-3.3339,2.6435,9.4609,-14.5391
2180,8.8903,0.3832,-3.2572,2.9217,9.6696,-14.6087
2185,8.967,0.3832,-3.3339,3.1304,9.7391,-14.6087
2190,8.852,0.3832,-3.2572,3.4783,9.8087,-14.4
2195,8.967,0.3832,-3.2955,3.8261,9.8783,-14.0522
2200,8.8903,0.3832,-3.2572,4.3826,10.0174,-13.7739
2205,8.6987,0.5365,-3.7937,4.8696,10.0174,-13.2174
2210,9.0053,0.4982,-3.2572,5.287,10.2261,-13.0087
2215,8.8903,0.6131,-3.2572,5.7043,10.2261,-12.7304
2220,9.0053,0.6131,-3.2955,5.9826,10.3652,-12.5217
2225,8.7754,0.7281,-3.3722,6.1217,10.3652,-12.1043
2230,8.852,0.843,-3.3339,6.1217,10.2261,-11.5478
2235,8.8137,0.8814,-3.2955,6.0522,10.087,-10.9913
2240,8.967,0.843,-3.3339,5.913,10.0174,-10.6435
2245,8.8903,1.0346,-3.4488,5.7739,10.0174,-10.087
2250,8.9286,0.9197,-3.4105,5.7739,9.9478,-9.5304
2255,8.852,1.2263,-3.3339,5.9826,10.087,-8.8348
2260,8.737,1.073,-3.2955,6.1913,10.2261,-8.2783
2265,8.9286,1.1113,-3.3339,6.3304,10.2261,-7.513
2270,8.9286,1.1496,-3.3339,6.5391,10.2957,-6.8174
2275,8.967,1.1113,-3.2955,6.6087,10.3652,-6.0522
2280,8.9286,1.0346,-3.3722,6.3304,10.6435,-5.2174
2285,8.8903,0.9963,-3.2189,6.0522,10.8522,-4.4522
2290,8.8137,1.073,-3.2572,5.6348,11.0609,-3.687
2295,8.9286,0.9197,-3.4488,4.9391,11.2696,-3.1304
2300,8.8137,1.0346,-3.3339,4.0348,11.4087,-2.4348
2305,8.852,1.1496,-3.2572,3.1304,11.4783,-1.8783
2310,8.9286,0.958,-3.2189,2.087,11.4783,-1.2522
2315,8.9286,0.958,-3.5255,1.1826,11.5478,-0.8348
2320,8.8137,0.843,-3.2189,0.3478,11.4783,-0.3478
2325,8.8903,0.6898,-3.2572,-0.3478,11.5478,0.0696
2330,9.0436,0.6514,-3.1806,-0.9043,11.6174,0.4174
2335,8.8903,0.7281,-3.2572,-1.113,11.687,0.7652
2340,9.0053,0.4982,-3.1806,-1.0435,11.687,1.0435
2345,9.0436,0.5365,-3.1806,-0.6261,11.6174,1.3217
2350,8.967,0.5748,-3.0656,-0.2087,11.4783,1.4609
2355,9.0819,0.5748,-3.1423,0.4174,11.3391,1.6696
2360,8.9286,0.6131,-3.1806,1.1826,11.2,1.7391
2365,9.0819,0.5365,-3.1423,1.7391,11.0609,1.8783
2370,9.1586,0.5365,-3.2572,2.2261,10.9217,1.6696
2375,9.1202,0.6514,-3.1806,2.6435,10.7826,1.6
2380,9.2352,0.7281,-3.2955,2.6435,10.6435,1.5304
2385,9.1202,0.6131,-3.0656,2.2957,10.5043,1.3913
2390,9.1969,0.6131,-3.0656,1.7391,10.5043,1.3913
2395,9.1586,0.5748,-3.0273,1.113,10.4348,1.3217
2400,9.2352,0.6898,-3.2189,0.4174,10.2957,1.3217
2405,9.0819,0.6131,-3.1039,-0.2087,10.087,1.3913
2410,9.0819,0.5748,-3.1039,-0.6261,9.8087,1.3913
2415,9.1969,0.5748,-3.1039,-0.9043,9.2522,1.3913
2420,9.1586,0.5365,-3.0273,-0.9739,8.6957,1.5304
2425,9.3502,0.8047,-3.2189,-0.8348,8.1391,1.6
2430,9.0436,0.6898,-3.1039,-0.6261,7.6522,1.7391
2435,8.967,0.6131,-2.9507,-0.487,7.0957,1.7391
2440,9.0436,0.6514,-3.0273,-0.2783,6.6087,1.7391
2445,9.1202,0.5365,-2.989,-0.0696,6.0522,1.7391
2450,9.0436,0.6131,-2.989,0.0696,5.7739,1.8783
2455,9.0053,0.5748,-3.0656,0.0,5.3565,1.8087
2460,8.967,0.5748,-3.0273,-0.0696,5.1478,1.8087
2465,9.0053,0.4982,-3.0273,0.0696,4.8696,1.8087
2470,9.0436,0.5365,-3.0656,0.0,4.6609,1.8087
2475,9.0053,0.4215,-3.0656,0.0,4.6609,1.6696
2480,8.8903,0.3066,-3.0656,0.2087,4.5217,1.5304
2485,8.9286,0.3832,-2.9507,0.3478,4.5217,1.4609
2490,9.0436,0.3066,-3.0273,0.6957,4.5217,1.2522
2495,8.967,0.3832,-3.1806,1.0435,4.3826,1.113
2500,8.9286,0.3832,-2.9507,1.1826,4.3826,0.7652
2505,9.0053,0.3449,-2.989,1.2522,4.4522,0.487
2510,8.852,0.5365,-2.989,1.113,4.7304,0.2087
2515,8.967,0.3832,-3.0273,0.9043,4.8696,0.0
2520,9.1202,0.3066,-3.0656,0.3478,4.9391,-0.3478
2525,9.0436,0.4598,-3.0273,-0.1391,5.1478,-0.487
2530,9.0436,0.3832,-3.0273,-0.5565,5.2174,-0.6261
2535,9.0053,0.3066,-3.0273,-0.7652,5.0783,-0.7652
2540,9.0819,0.3066,-3.0273,-0.9043,5.0087,-0.8348
2545,9.0053,0.3066,-3.0656,-0.8348,4.8,-0.9043
2550,9.0819,0.3832,-3.1039,-0.5565,4.5217,-0.9739
2555,9.0819,0.2299,-3.1806,-0.2087,4.313,-1.0435
2560,9.0436,0.4215,-3.0656,0.2087,4.2435,-1.1826
2565,9.1202,0.3449,-3.1423,0.6261,4.2435,-1.3913
2570,9.0819,0.4215,-3.2572,1.113,4.1739,-1.5304
2575,9.0436,0.3832,-3.2955,1.5304,4.3826,-1.7391
2580,9.0819,0.4215,-3.2189,1.8087,4.5217,-1.8783
2585,9.0436,0.3449,-3.2189,2.087,4.6609,-2.087
2590,9.0436,0.4598,-3.1039,2.3652,4.8696,-2.2957
2595,9.0819,0.5365,-3.3339,2.5043,5.2174,-2.5043
2600,9.0053,0.4598,-3.2955,2.5043,5.4957,-2.5739
2605,8.967,0.5748,-3.1806,2.5043,5.7739,-2.713
2610,9.0819,0.5748,-3.1806,2.2957,5.9826,-2.7826
2615,9.1586,0.6514,-3.2189,2.087,6.3304,-2.713
2620,9.0819,0.6131,-3.1039,1.9478,6.6087,-2.713
2625,9.0819,0.5748,-2.9507,1.8087,6.6783,-2.5043
2630,9.0819,0.6514,-3.1806,1.6696,6.4696,-2.2957
2635,9.1586,0.7281,-3.0656,1.4609,6.3304,-1.9478
2640,9.0436,0.5748,-3.1423,1.4609,6.0522,-1.7391
2645,9.0819,0.4982,-2.989,1.3913,5.7043,-1.6
2650,9.0819,0.5748,-3.1423,1.3913,5.4261,-1.3217
2655,9.0819,0.5365,-3.1423,1.3913,5.2174,-1.1826
2660,9.0819,0.6514,-3.1806,1.3217,5.1478,-1.113
2665,9.0819,0.5748,-3.0656,1.3913,5.0783,-1.113
2670,9.0819,0.6514,-3.1423,1.4609,5.1478,-1.2522
2675,9.1202,0.5365,-3.1039,1.5304,5.1478,-1.1826
2680,9.0436,0.6131,-3.2189,1.5304,5.287,-1.3913
2685,8.8903,0.6131,-3.1806,1.6696,5.4957,-1.2522
2690,9.1202,0.5748,-3.1423,1.7391,5.7043,-1.3217
2695,9.0053,0.5365,-3.1423,1.8087,5.913,-1.2522
2700,9.0819,0.4982,-3.0656,1.9478,5.9826,-1.113
2705,9.1202,0.5365,-3.1806,2.087,6.1217,-0.9739
2710,9.0436,0.6131,-3.1806,2.2261,6.3304,-0.9043
2715,8.967,0.6131,-3.1039,2.2957,6.4,-0.8348
2720,9.0819,0.6131,-3.1039,2.2957,6.4696,-0.7652
2725,9.0053,0.6898,-3.1039,2.4348,6.5391,-0.6957
2730,9.0053,0.6514,-3.1806,2.3652,6.5391,-0.5565
2735,9.1586,0.4982,-3.1039,2.4348,6.6087,-0.4174
2740,8.967,0.5365,-3.2189,2.5043,6.6087,-0.2783
2745,9.0819,0.6131,-3.1806,2.4348,6.6783,-0.3478
2750,9.0053,0.6898,-3.0656,2.3652,6.6783,-0.2087
2755,9.0053,0.4215,-3.0656,2.2957,6.7478,-0.1391
2760,9.0053,0.5365,-3.1039,2.087,6.8174,-0.2087
2765,9.0053,0.5365,-3.0273,1.9478,6.8174,-0.1391
2770,9.0819,0.6131,-3.0273,1.7391,6.8174,-0.2087
2775,9.1202,0.5365,-3.1039,1.5304,6.887,-0.0696
2780,8.967,0.4982,-3.1423,1.3913,6.9565,0.0
2785,9.1202,0.4598,-3.0656,1.1826,6.887,-0.0696
2790,9.1202,0.3832,-3.0656,1.0435,6.887,-0.0696
2795,8.967,0.4598,-3.1423,0.9043,6.9565,-0.0696
2800,9.0053,0.4215,-3.1039,0.8348,6.887,-0.1391
2805,9.1586,0.3832,-3.1423,0.6957,7.0261,-0.0696
2810,9.0436,0.5365,-3.1039,0.8348,7.2348,-0.2087
2815,9.1586,0.4215,-3.2189,0.8348,7.3043,-0.1391
2820,9.0819,0.4982,-3.1039,1.113,7.513,-0.3478
2825,9.0436,0.3832,-3.0656,1.1826,7.513,-0.487
2830,9.1969,0.3449,-2.989,1.2522,7.5826,-0.6957
2835,9.0436,0.4598,-3.1423,1.2522,7.5826,-0.7652
2840,9.1202,0.5365,-3.0656,1.113,7.513,-0.8348
2845,9.0436,0.4215,-3.1039,1.0435,7.513,-1.0435
2850,9.1202,0.5748,-2.9507,1.0435,7.4435,-1.113
2855,9.0436,0.4982,-3.2189,1.0435,7.3043,-1.2522
2860,9.0819,0.4982,-3.0273,1.113,7.3043,-1.3217
2865,9.1586,0.4215,-3.0273,1.0435,7.3043,-1.3217
2870,9.1202,0.5365,-3.1806,1.1826,7.2348,-1.2522
2875,9.0436,0.4982,-2.989,1.113,7.3043,-1.2522
2880,9.0053,0.5365,-3.0273,1.3217,7.2348,-1.2522
2885,9.0436,0.4982,-3.0273,1.3913,7.1652,-1.3217
2890,9.0436,0.5365,-3.0656,1.3913,7.1652,-1.3217
2895,9.1202,0.6131,-2.989,1.4609,7.1652,-1.3217
2900,9.1969,0.4982,-2.9123,1.6,7.2348,-1.2522
2905,9.0819,0.4598,-3.1039,1.4609,7.2348,-1.3217
2910,9.0819,0.4982,-3.1039,1.3217,7.0957,-1.2522
2915,9.0053,0.6131,-2.989,1.2522,7.0957,-1.1826
2920,9.1202,0.6131,-3.0273,0.9739,7.0261,-1.0435
2925,9.1202,0.5365,-2.9123,0.8348,6.887,-0.9739
2930,9.0819,0.4598,-3.1423,0.6957,6.7478,-0.9043
2935,9.1969,0.4215,-2.9507,0.6957,6.7478,-0.8348
2940,9.1969,0.4598,-2.9123,0.6957,6.7478,-0.7652
2945,9.1202,0.4982,-3.0656,0.7652,6.4696,-0.6957
2950,9.0819,0.4598,-3.0273,0.6957,6.2609,-0.6261
2955,9.0436,0.4982,-2.989,0.7652,6.1217,-0.6261
2960,9.0819,0.4598,-3.2189,0.8348,5.9826,-0.6261
2965,9.0436,0.4215,-2.989,0.9043,5.7739,-0.6261
2970,9.0436,0.4215,-2.9123,0.9043,5.6348,-0.6957
2975,9.0819,0.5748,-3.0656,0.9043,5.6348,-0.6957
2980,9.0053,0.5748,-2.9507,0.9043,5.4261,-0.6261
2985,9.1586,0.4982,-2.9507,0.9043,5.4261,-0.6261
2990,9.0436,0.5748,-3.0656,0.9739,5.3565,-0.6261
2995,9.0819,0.5748,-2.9123,0.9739,5.4261,-0.5565
