timestamp,accX,accY,accZ,gyroX,gyroY,gyroZ
0,-0.5748,-8.0856,-5.3265,-56.5565,-4.5913,1.113
5,-0.5748,-8.5071,-5.4798,-57.6696,-4.7304,0.9043
10,-0.4598,-8.0473,-5.4032,-59.2,-4.9391,0.3478
15,-0.5365,-8.0473,-5.4415,-59.9652,-5.0087,0.8348
20,-0.4982,-7.8173,-5.5564,-60.6609,-5.1478,0.9739
25,-0.4215,-7.7407,-5.7097,-61.5652,-5.0087,1.113
30,-0.4598,-7.9706,-5.748,-62.4,-4.8,1.3217
35,-0.3449,-7.5874,-5.4798,-63.7913,-4.4522,1.5304
40,-0.4598,-7.4725,-5.7864,-64.2087,-4.3826,1.9478
45,-0.4598,-7.4725,-5.748,-65.4609,-4.2435,1.8087
50,-0.3066,-7.2809,-5.4032,-67.0609,-3.8957,2.0174
55,-0.3066,-7.3192,-5.4798,-68.5913,-3.687,1.6696
60,-0.3449,-7.3192,-5.863,-69.9826,-3.6174,1.9478
65,-0.3449,-7.3958,-5.7864,-71.4435,-3.8261,2.8522
70,-0.3832,-7.2809,-5.7864,-72.8348,-3.9652,2.8522
75,-0.3832,-7.2809,-5.9396,-73.7391,-4.1043,2.8522
80,-0.4215,-7.3192,-5.8247,-74.5043,-4.5217,2.9217
85,-0.4982,-7.1276,-6.0929,-75.2696,-4.8696,2.3652
90,-0.4598,-7.1659,-5.978,-75.8261,-5.4261,3.0609
95,-0.4598,-7.3192,-6.0163,-76.7304,-6.0522,2.9217
100,-0.5365,-7.2042,-6.2845,-77.287,-6.4,2.713
105,-0.8047,-7.2042,-6.2462,-77.913,-6.7478,2.5043
110,-0.6514,-7.2809,-6.2845,-78.887,-7.0957,2.1565
115,-0.9963,-7.2809,-6.3612,-79.6522,-7.513,1.8087
120,-0.843,-7.1276,-6.3612,-80.6957,-7.8609,1.6
125,-0.9197,-7.2425,-6.2845,-80.7652,-8.2783,1.6
130,-0.7281,-7.2809,-6.3612,-80.2783,-9.0435,1.6
135,-0.8047,-7.1276,-6.5528,-80.2087,-9.8087,1.4609
140,-0.6514,-7.1276,-6.7444,-80.4174,-10.3652,1.3913
145,-0.5365,-7.1276,-6.6294,-80.6957,-10.9217,1.2522
150,-0.6514,-7.0509,-6.6677,-80.9739,-11.2,1.3913
155,-0.4982,-7.1276,-6.7061,-81.3913,-11.3391,1.4609
160,-0.4215,-7.0126,-7.0509,-81.9478,-11.2696,1.3217
165,-0.3449,-6.8593,-6.936,-83.0609,-11.1304,1.2522
170,-0.3832,-6.7827,-7.2042,-83.8957,-10.713,1.9478
175,-0.3449,-6.7061,-7.2042,-84.6609,-10.5043,2.5043
180,-0.3066,-6.7827,-7.2809,-85.6348,-10.3652,3.1304
185,-0.4982,-6.7061,-7.3575,-86.7478,-10.2261,3.687
190,-0.2299,-6.5528,-7.7024,-88.1391,-10.1565,4.5217
195,-0.3449,-6.5911,-7.6257,-89.5304,-10.2261,5.4261
200,-0.5748,-6.3229,-7.6641,-91.0609,-10.087,5.9826
205,-0.5365,-6.7444,-7.6641,-92.3826,-9.5304,6.3304
210,-0.8814,-6.4761,-7.6641,-93.5652,-8.5565,6.8174
215,-0.6898,-6.1696,-7.6257,-94.6783,-7.6522,7.2348
220,-0.8047,-6.3995,-7.7407,-94.8174,-6.7478,8.1391
225,-0.958,-6.3229,-7.6641,-94.4,-5.6348,8.8348
230,-0.9197,-6.2845,-7.7024,-93.6348,-4.9391,9.6
235,-0.9197,-6.2079,-7.6641,-92.7304,-4.313,9.9478
240,-0.7664,-6.1696,-7.7024,-91.4783,-3.8957,10.087
245,-0.8047,-6.0929,-7.7407,-90.5043,-3.687,10.087
250,-0.8814,-6.0546,-7.779,-89.7391,-3.5478,10.087
255,-0.8047,-6.1696,-7.9323,-88.9739,-3.5478,9.7391
260,-0.4982,-6.3229,-8.3921,-88.487,-3.687,9.5304
265,-0.8814,-6.0546,-8.0856,-88.0696,-3.9652,9.2522
270,-0.843,-5.9396,-8.3538,-87.513,-4.2435,8.6957
275,-0.9197,-5.9396,-8.3155,-87.0957,-4.6609,8.0
280,-0.843,-5.8247,-8.3921,-86.5391,-5.0783,7.4435
285,-0.8047,-5.748,-8.3538,-85.8435,-5.5652,6.7478
290,-0.843,-5.9013,-8.3921,-85.5652,-5.9826,5.8435
295,-0.958,-5.7864,-8.3921,-85.2174,-6.6087,5.0087
300,-1.0346,-5.7097,-8.4688,-85.0087,-7.2348,4.313
305,-0.9963,-5.8247,-8.4688,-84.5217,-7.7217,3.687
310,-1.0346,-5.7864,-8.6221,-83.4783,-8.1391,3.0609
315,-1.073,-5.9013,-8.5838,-82.5043,-8.6261,2.3652
320,-1.1496,-5.9396,-8.5454,-80.9739,-9.2522,1.7391
325,-1.1113,-6.0929,-8.6604,-79.1652,-9.9478,0.9043
330,-1.1113,-6.0546,-8.6221,-77.0087,-10.9217,-0.0696
335,-1.2646,-5.9396,-8.7754,-74.5739,-11.7565,-1.1826
340,-1.3795,-5.978,-8.7754,-72.2087,-12.4522,-2.3652
345,-1.3029,-5.9013,-8.9286,-69.9826,-12.8696,-3.5478
350,-1.4562,-6.0163,-8.8903,-67.9652,-13.1478,-4.3826
355,-1.3412,-5.9396,-9.1202,-66.1565,-13.2174,-5.4261
360,-1.5328,-5.7864,-9.2352,-64.6261,-13.1478,-6.2609
365,-1.3795,-5.5948,-8.8903,-63.1652,-13.1478,-6.9565
370,-1.4562,-5.4798,-9.4651,-62.0522,-13.2174,-7.5826
375,-1.4179,-5.4798,-9.3885,-61.2174,-13.287,-8.0
380,-1.3412,-5.2116,-9.4651,-60.3826,-13.5652,-8.6957
385,-1.3412,-5.0966,-9.5801,-59.7565,-13.6348,-9.3217
390,-1.1879,-5.0583,-9.4651,-59.2,-13.9826,-10.0174
395,-1.1496,-5.0583,-9.4268,-58.5739,-14.1913,-10.6435
400,-1.1113,-5.02,-9.5418,-58.087,-14.4,-11.0609
405,-1.1879,-5.1732,-9.5034,-57.6696,-14.4696,-11.2
410,-1.2646,-5.0966,-9.5801,-57.0435,-14.5391,-11.4783
415,-1.2646,-5.0966,-9.4651,-56.2087,-14.5391,-11.4087
420,-1.073,-5.1732,-9.3502,-55.2348,-14.4,-11.4783
425,-1.2646,-4.9433,-9.81,-53.3565,-14.4,-11.4087
430,-1.073,-5.0583,-9.7334,-51.2,-14.2609,-11.3391
435,-1.2263,-5.1349,-9.81,-48.5565,-14.2609,-11.2
440,-1.073,-5.0966,-9.925,-45.8435,-14.1217,-11.2
445,-1.0346,-5.1732,-10.0782,-42.9217,-13.7739,-11.2
450,-1.1879,-4.9433,-10.1549,-40.0,-13.3565,-11.0609
455,-1.1879,-5.0966,-10.2698,-36.8,-12.8696,-10.6435
460,-1.2263,-4.9433,-10.3465,-33.8087,-12.1043,-10.2261
465,-1.1113,-4.9433,-10.3082,-30.7478,-11.5478,-9.6
470,-1.2263,-4.9433,-10.4231,-27.7565,-10.9913,-8.9043
475,-1.3029,-4.79,-10.6147,-24.9043,-10.713,-8.2087
480,-1.1879,-4.79,-10.653,-21.913,-10.2261,-7.4435
485,-1.4179,-4.4068,-10.5764,-19.3391,-9.9478,-6.7478
490,-1.3795,-4.4452,-10.6914,-16.9739,-9.5304,-5.913
495,-1.4562,-4.3685,-10.7297,-15.0261,-9.2522,-5.0087
500,-1.4562,-4.2536,-10.7297,-13.0783,-9.3217,-4.4522
505,-1.5328,-4.1003,-10.6914,-11.1304,-9.3913,-3.8957
510,-1.8011,-3.832,-11.0363,-9.5304,-9.5304,-2.9913
515,-1.5711,-3.832,-10.8446,-8.0696,-9.6,-2.2261
520,-1.6478,-3.7554,-10.9213,-6.7478,-9.3913,-1.3913
525,-1.7244,-3.8704,-10.8063,-5.4261,-9.1826,-0.7652
530,-1.7244,-3.947,-10.8063,-4.313,-8.6957,0.2783
535,-1.7627,-3.7554,-10.7297,-3.687,-8.2783,0.8348
540,-1.8011,-3.947,-10.8063,-2.9913,-7.7217,1.6
545,-1.6478,-3.8704,-10.6914,-2.0174,-6.9565,2.1565
550,-1.5328,-4.0236,-10.768,-0.9043,-6.3304,2.3652
555,-1.4562,-4.0236,-10.6914,0.3478,-5.4261,2.5739
560,-1.3795,-4.062,-10.6147,2.0174,-4.5217,2.9913
565,-1.4562,-3.832,-10.5381,3.8261,-3.4783,3.2
570,-1.3029,-4.2536,-10.3465,6.0522,-2.1565,3.3391
575,-1.3029,-4.1003,-10.1549,8.8348,-0.7652,3.5478
580,-1.1496,-3.947,-10.0016,11.8261,0.6261,3.8957
585,-1.2646,-4.1003,-10.2315,14.9565,2.087,4.313
590,-1.2263,-4.0236,-10.1166,18.0174,3.3391,5.0087
595,-1.3412,-3.947,-10.0016,21.0783,4.5217,5.5652
600,-1.2646,-3.947,-10.1166,23.7913,5.3565,6.1913
605,-1.3029,-3.832,-10.0399,26.1565,5.913,6.9565
610,-1.2646,-3.832,-9.8866,27.9652,6.4696,7.7913
615,-1.2646,-3.7937,-9.8483,29.2174,6.9565,8.4174
620,-1.2263,-3.7554,-9.6567,29.8435,7.0261,9.0435
625,-1.2646,-3.7937,-9.7717,30.1913,6.9565,9.5304
630,-1.2646,-3.7554,-9.4651,30.4,7.0261,9.8087
635,-1.3412,-3.9853,-9.6567,30.6087,6.8174,9.8783
640,-1.5328,-3.832,-9.3885,30.6783,6.6087,9.9478
645,-1.5328,-3.8704,-9.2352,30.7478,6.1913,10.1565
650,-1.6478,-3.9087,-9.1969,30.7478,6.0522,10.5043
655,-1.5328,-3.9853,-9.0819,30.7478,6.2609,10.9217
660,-1.4562,-4.062,-9.0819,31.0261,6.6087,11.2696
665,-1.4562,-4.2536,-8.9286,31.3739,6.9565,11.6174
670,-1.4945,-4.2536,-8.852,32.0,7.3739,11.687
675,-1.5711,-4.3685,-8.7754,32.4174,7.513,11.7565
680,-1.4179,-4.5218,-8.8903,32.9043,7.7217,11.687
685,-1.4562,-4.5601,-8.9286,33.1826,8.2087,11.4783
690,-1.6478,-4.5601,-8.9286,33.5304,8.8348,11.4087
695,-1.3795,-4.4452,-9.0436,33.9478,9.7391,11.1304
700,-1.3412,-4.5601,-8.852,34.4348,10.6435,10.9913
705,-1.3412,-4.4835,-8.9286,34.7826,11.5478,10.5739
710,-1.2263,-4.4835,-8.737,34.8522,12.5217,10.2957
715,-1.073,-4.5601,-8.852,34.9217,13.4957,10.2261
720,-1.1496,-4.4068,-8.7754,34.8522,14.6783,10.0174
725,-1.073,-4.4068,-8.737,34.6435,15.4435,9.8087
730,-0.958,-4.5984,-8.7754,34.7826,16.0696,9.8087
735,-0.843,-4.4835,-8.6987,34.6435,16.6261,9.8087
740,-0.843,-4.6368,-8.5071,34.713,17.0435,9.7391
745,-0.8814,-4.3302,-8.5071,34.8522,17.3217,9.7391
750,-0.8047,-4.6751,-8.5454,34.9217,17.4609,10.0174
755,-0.7281,-4.79,-8.4688,35.1304,17.6696,10.2957
760,-0.6131,-4.8667,-8.4688,35.5478,18.0174,10.5043
765,-0.4215,-4.8667,-8.3921,36.1043,18.3652,10.9217
770,-0.3449,-5.02,-8.5071,36.8,18.713,11.0609
775,-0.3066,-4.905,-8.6221,38.1217,19.0609,11.1304
780,-0.3832,-4.8667,-8.2772,39.7217,19.4087,10.9217
785,-0.3066,-5.02,-8.4305,41.9478,19.9652,10.2957
790,-0.2682,-5.0966,-8.3155,44.4522,20.313,10.1565
795,-0.1916,-5.0966,-8.3538,46.6783,21.0087,10.087
800,-0.2299,-5.02,-8.4688,48.8348,21.7043,10.1565
805,-0.1533,-5.0583,-8.4305,50.7826,22.7478,10.3652
810,-0.1533,-5.0583,-8.2389,52.6609,23.7913,10.713
815,-0.1533,-5.02,-8.3538,54.2609,24.8348,10.9913
820,-0.2299,-5.0583,-8.3921,55.8609,25.8087,11.1304
825,-0.1533,-5.1349,-8.2772,57.6,26.713,11.4087
830,-0.1916,-5.02,-8.2772,59.2,27.2696,12.1043
835,-0.2299,-5.0966,-8.2772,60.6609,28.0348,12.6609
840,-0.3449,-4.79,-8.0473,62.1217,28.5913,13.2174
845,-0.3832,-4.7134,-7.8557,63.8609,29.0783,13.7739
850,-0.5365,-4.79,-7.9323,65.3217,29.5652,14.2609
855,-0.3449,-4.6368,-7.9323,67.0609,30.1217,14.4
860,-0.2299,-4.5601,-7.7024,68.8696,30.7478,13.7043
865,-0.3832,-4.7134,-7.6257,70.0522,31.0957,14.4
870,-0.4598,-4.8284,-7.5491,70.7478,31.4435,14.4696
875,-0.4598,-4.5601,-7.5491,70.9565,31.7217,14.5391
880,-0.4215,-4.8284,-7.4341,70.8174,32.2087,13.9826
885,-0.4215,-4.6368,-7.4341,70.8174,32.6957,12.0348
890,-0.4982,-4.7134,-7.3192,70.4696,32.8348,12.3826
895,-0.4982,-4.5218,-7.3575,69.6348,32.8348,12.4522
900,-0.5748,-4.7134,-7.3575,68.2435,32.9739,12.2435
905,-0.5365,-4.6368,-7.2042,66.6435,32.9043,12.1739
910,-0.6898,-4.5984,-7.3192,65.113,32.6261,11.2
915,-0.4598,-4.6368,-7.2042,64.1391,32.3478,10.9913
920,-0.3066,-4.6751,-7.0509,62.8174,32.2087,11.2696
925,-0.4598,-4.6751,-7.0509,61.4957,32.4174,11.0609
930,-0.3066,-4.7134,-7.0509,60.5217,32.7652,11.3391
935,-0.4598,-4.5984,-6.8977,59.4087,33.113,10.8522
940,-0.5365,-4.7134,-6.8977,58.2261,33.6,9.0435
945,-0.4598,-4.79,-6.6677,57.1826,33.9478,9.1826
950,-0.5748,-4.5984,-6.7827,56.0696,34.0174,9.6696
955,-0.3832,-4.6368,-6.5528,54.8174,34.0174,9.6
960,-0.5748,-4.6368,-6.5911,53.7043,33.9478,9.5304
965,-0.3832,-4.5218,-6.5911,52.4522,33.8087,9.3217
970,-0.2299,-4.1386,-6.1696,51.687,33.8087,9.113
975,-0.4215,-4.6368,-6.0546,51.8957,33.5304,7.5826
980,-0.2299,-4.4452,-6.0929,51.3391,33.3217,8.5565
985,-0.1916,-4.3302,-5.978,50.9217,33.1826,8.4174
990,-0.0383,-4.3302,-5.863,50.6435,33.0435,8.4174
995,-0.2299,-4.3685,-5.863,50.9217,32.9043,8.4174
1000,-0.0766,-4.2152,-5.5564,51.1304,32.6261,7.0261
1005,0.2682,-3.7171,-5.4032,51.5478,32.4174,5.8435
1010,-0.2299,-3.9853,-5.4798,53.4261,32.0696,2.5739
1015,-0.1533,-3.832,-5.02,55.0957,31.7217,2.9217
1020,0.115,-3.832,-5.2499,56.6261,31.2348,3.4783
1025,-0.0766,-3.6787,-5.1349,58.5739,31.0261,3.687
1030,-0.1533,-3.6021,-4.9433,60.8696,30.7478,3.2
1035,-0.2299,-3.5638,-4.7517,63.3739,30.5391,2.9217
1040,-0.3066,-3.1423,-4.5601,65.5304,30.4696,2.5043
1045,-0.3832,-3.4488,-4.6751,68.4522,30.7478,-0.8348
1050,-0.1916,-3.2955,-4.3302,69.7739,31.2348,1.3217
1055,-0.2299,-3.5255,-4.5218,71.0957,31.7217,3.4783
1060,-0.1533,-3.7171,-4.3302,71.3739,32.0696,3.5478
1065,-0.1533,-3.5255,-4.2536,70.6783,32.1391,3.1304
1070,-0.0766,-3.3722,-4.062,69.4261,32.0696,2.5043
1075,-0.6131,-3.2955,-3.832,68.8,31.7217,0.2087
1080,-0.115,-3.6404,-3.832,68.313,31.513,-0.6957
1085,-0.3066,-3.5638,-3.9087,67.0609,31.2348,1.3217
1090,-0.2299,-3.4871,-3.9087,65.1826,30.9565,2.5739
1095,-0.3449,-3.4105,-3.7554,62.7478,30.887,3.2
1100,-0.1533,-3.7554,-3.6021,60.8696,31.1652,4.5913
1105,-0.1533,-3.9087,-3.6021,58.5043,31.5826,4.8
1110,-0.115,-3.6404,-3.4105,56.3478,32.4174,4.8696
1115,0.2299,-3.6021,-3.2189,54.8174,33.113,4.8
1120,-0.115,-3.947,-3.3339,55.2348,33.7391,1.3217
1125,0.115,-3.947,-3.6021,54.7478,34.2957,3.5478
1130,0.3066,-4.062,-3.1423,53.7043,34.5739,5.0087
1135,0.3066,-4.062,-2.9123,52.8696,35.0609,5.6348
1140,0.4982,-4.1769,-2.7974,53.1478,36.0348,6.1217
1145,0.4982,-4.1386,-2.7207,54.4696,36.9391,6.5391
1150,0.4982,-4.062,-2.7207,56.2087,38.4,6.9565
1155,0.4598,-4.0236,-2.7591,58.087,40.2783,7.7913
1160,0.4598,-3.9853,-2.6058,60.0348,42.1565,8.4174
1165,0.3832,-3.8704,-2.7207,62.9565,43.9652,7.5826
1170,0.4982,-3.7554,-2.7591,65.1826,45.7739,8.7652
1175,0.3832,-3.5255,-2.989,66.5043,47.513,10.3652
1180,0.5365,-3.4105,-3.0656,66.9913,49.4609,11.5478
1185,0.4598,-3.1423,-2.9507,66.8522,51.6174,12.5217
1190,0.5748,-3.2572,-3.0273,66.9217,53.7043,13.4261
1195,0.4598,-3.2189,-2.6058,67.5478,55.7913,13.4261
1200,0.5365,-3.2955,-2.7591,70.1217,57.5304,13.0087
1205,0.3066,-3.1423,-2.6824,74.3652,58.713,7.7913
1210,0.1916,-3.947,-3.0273,79.513,59.3391,7.7217
1215,0.3449,-4.2152,-3.2572,80.5565,60.8696,9.4609
1220,0.2682,-4.3685,-2.9507,80.487,62.887,9.4609
1225,0.0766,-4.6368,-3.1806,81.113,64.2087,9.9478
1230,0.115,-4.7134,-3.1039,83.4783,64.1391,10.4348
1235,0.6131,-5.02,-2.874,86.5391,62.4,10.2957
1240,-0.1533,-5.1732,-3.2955,91.687,59.0609,5.3565
1245,0.0766,-5.4798,-3.4105,92.5217,55.6522,6.4
1250,0.3449,-5.4798,-3.5255,90.5043,52.1043,7.7913
1255,0.0766,-5.4032,-3.3339,86.9565,48.0,8.2087
1260,0.2299,-5.5564,-3.2955,83.2,42.7826,7.3739
1265,0.1916,-5.4415,-3.4105,79.4435,36.8,5.6348
1270,0.1916,-5.1349,-3.3339,75.687,31.0957,4.313
1275,-0.1916,-4.9816,-3.6787,71.5826,26.7826,2.1565
1280,-0.3449,-4.905,-3.2189,66.4348,23.8609,3.2696
1285,-0.3449,-5.02,-2.9507,61.4957,23.0957,6.4
1290,-0.1916,-5.02,-3.1806,56.2783,24.3478,8.6261
1295,-0.2682,-5.4415,-2.6824,50.0174,26.1565,11.0609
1300,-0.4598,-5.863,-2.4908,45.0087,27.4087,12.0348
1305,-0.6514,-5.9013,-2.3375,42.5043,28.6609,12.8
1310,-0.7664,-6.3995,-2.3375,41.0435,31.1652,14.5391
1315,-0.6898,-6.6677,-2.2609,37.3565,33.6,13.8435
1320,-0.6514,-7.0893,-2.1459,33.6,34.4348,12.1043
1325,-0.6131,-7.0893,-2.3375,30.5391,34.2261,10.2957
1330,-0.8047,-7.4725,-2.0693,26.9217,34.0174,8.6261
1335,-0.7664,-7.5874,-2.2992,25.113,32.1391,7.4435
1340,-0.6131,-7.6641,-2.6824,23.8609,29.4957,6.9565
1345,-0.3449,-7.6257,-2.9123,22.1217,25.9478,5.7739
1350,-0.4215,-7.4341,-2.874,20.2435,21.287,3.8957
1355,-0.2299,-7.3192,-3.0273,18.713,15.7913,2.5739
1360,-0.115,-6.9743,-3.2189,16.3478,10.9217,1.6696
1365,0.0766,-6.6677,-2.989,12.5913,6.6087,1.1826
1370,0.115,-6.4378,-3.0656,7.7217,3.3391,0.3478
1375,0.0,-6.1696,-2.874,2.9913,1.0435,-0.2087
1380,-0.0383,-5.748,-2.7974,-1.1826,-0.487,-0.6261
1385,0.0,-5.6331,-2.9123,-5.2174,-1.6,-1.2522
1390,-0.0766,-5.7864,-2.874,-9.1826,-2.4348,-1.6
1395,-0.0383,-5.5948,-3.0656,-13.4957,-2.7826,-2.5043
1400,-0.3832,-5.4798,-3.3722,-18.7826,-3.3391,-3.2
1405,-0.4598,-5.6714,-3.2955,-24.6957,-4.1739,-3.3391
1410,-0.5748,-5.6714,-3.4871,-29.8435,-4.7304,-2.8522
1415,-0.4982,-5.978,-3.7937,-33.6,-5.1478,-2.0174
1420,-0.4982,-6.0929,-3.9087,-36.6609,-5.5652,-0.7652
1425,-0.4598,-6.4378,-3.7937,-39.513,-6.0522,1.0435
1430,-0.3066,-6.8977,-4.3685,-41.1826,-6.7478,4.1739
1435,-0.2682,-7.3575,-5.0966,-42.9217,-7.8609,5.7043
1440,-0.3066,-7.779,-6.1696,-46.4,-9.113,6.887
1445,-0.1916,-8.1622,-6.5145,-51.8957,-9.3913,10.2261
1450,0.1916,-8.9286,-7.779,-58.3652,-7.7913,14.6783
1455,0.4215,-9.925,-9.7334,-65.1826,-4.6609,20.5217
1460,0.3449,-10.3465,-11.4578,-74.6435,-2.087,26.1565
1465,1.8011,-12.6457,-12.8756,-87.2348,-1.3217,33.3913
1470,2.4142,-15.7113,-13.9103,-101.7043,-3.0609,36.7304
1475,4.1386,-20.3481,-16.8993,-113.3217,-8.7652,37.7739
1480,5.9396,-26.5177,-21.536,-125.6348,-18.2957,35.2696
1485,6.0929,-35.408,-27.4757,-137.4609,-26.8522,28.2435
1490,6.6677,-43.6085,-31.1544,-141.4957,-28.313,22.5391
1495,5.7097,-52.039,-34.5649,-131.1304,-21.5652,24.6957
1500,6.4378,-53.3419,-32.8022,-111.0261,-14.0522,31.513
1505,2.3375,-47.4405,-28.6636,-71.6522,-10.8522,23.2348
1510,-0.5365,-38.8951,-24.3717,-22.6087,-15.6522,9.4609
1515,-0.8814,-33.262,-20.9612,8.9739,-19.8957,-1.7391
1520,-0.9197,-25.7513,-17.0525,18.9217,-12.8,-8.7652
1525,-1.4945,-18.6237,-13.4504,14.9565,6.1913,-14.4696
1530,-0.9963,-12.2242,-9.81,4.0348,37.0783,-14.887
1535,-0.4598,-6.6677,-6.821,-5.913,59.9652,-13.5652
1540,0.0766,-2.8357,-5.2116,-11.8261,73.8783,-17.3913
1545,0.6898,1.6861,-3.6787,-10.2261,81.113,-25.9478
1550,0.4982,5.6331,-2.7591,-2.2261,84.9391,-37.287
1555,-0.4982,8.3921,-1.9543,8.1391,87.8609,-45.3565
1560,0.0383,10.883,-1.3029,18.8522,93.7043,-49.7391
1565,-0.958,12.5691,-0.0766,26.2957,100.2435,-52.9391
1570,-1.9927,12.6074,0.2682,29.913,107.6174,-51.0609
1575,-1.7244,11.6111,0.5748,28.6609,114.2261,-42.0174
1580,-2.0693,9.7717,-0.3066,17.6696,115.1304,-32.8348
1585,-1.6478,8.5838,-0.4215,-4.0348,104.9739,-25.113
1590,-0.6898,7.2425,-0.843,-30.5391,88.8348,-17.0435
1595,0.3449,5.978,-1.5711,-56.5565,73.5304,-10.0174
1600,0.7664,4.9816,-2.031,-81.4609,59.3391,-5.6348
1605,1.4562,5.02,-1.2646,-103.0261,45.0783,0.0696
1610,1.6478,4.79,-1.9927,-115.2696,30.2609,5.9826
1615,2.4142,5.02,-3.0656,-127.8609,14.887,6.6783
1620,1.5328,4.2152,-4.1769,-144.1391,0.0696,2.1565
1625,0.958,3.0273,-4.6368,-162.4348,-11.4087,0.487
1630,0.4982,2.031,-4.6368,-176.8348,-19.2,0.487
1635,0.1533,1.3795,-4.79,-186.4348,-22.4,1.9478
1640,-0.2299,0.3449,-4.9816,-192.2087,-20.5217,4.1043
1645,-0.3449,-0.5748,-4.8667,-194.9217,-14.4696,6.1913
1650,-0.2682,-1.1496,-4.8284,-196.0348,-5.6348,7.513
1655,-0.115,-1.5711,-4.9433,-196.5913,3.4087,9.1826
1660,-0.0383,-1.8394,-5.0583,-195.6174,11.3391,8.9739
1665,0.0383,-1.8777,-5.2499,-194.3652,17.6696,8.0696
1670,0.3066,-1.8777,-5.0966,-194.3652,22.3304,6.887
1675,0.3832,-1.9543,-5.0966,-195.4783,24.9739,5.3565
1680,0.4982,-1.9543,-5.1732,-197.0087,25.8783,2.6435
1685,0.5748,-2.0693,-4.905,-198.6783,25.7391,-0.9739
1690,0.4215,-2.0693,-4.8284,-199.7913,25.113,-4.3826
1695,0.5748,-2.2226,-4.9433,-200.3478,24.1391,-7.3739
1700,0.9197,-2.3759,-4.7134,-199.7217,23.1652,-10.0174
1705,0.9963,-2.4142,-4.4835,-198.4696,22.9565,-11.9652
1710,1.1879,-2.5291,-4.2152,-196.5913,23.2348,-13.4957
1715,1.3029,-2.6058,-4.1386,-194.3652,22.7478,-14.7478
1720,1.4945,-2.4525,-3.7171,-191.7217,21.7043,-15.4435
1725,1.6861,-2.4142,-3.4488,-189.5652,21.1478,-15.6522
1730,1.6095,-2.4142,-3.4105,-187.3391,21.287,-15.513
1735,1.6861,-2.3759,-3.2955,-184.4174,21.8435,-15.3043
1740,1.7244,-2.4142,-3.1806,-179.687,22.4,-14.887
1745,1.916,-2.4142,-3.2955,-173.4261,23.2348,-14.6087
1750,1.9927,-2.3375,-3.3339,-166.887,24.4174,-13.9826
1755,2.1076,-2.3375,-3.6021,-161.2522,26.1565,-13.3565
1760,2.031,-2.2226,-3.5638,-157.2174,28.1043,-13.0087
1765,1.9543,-2.2226,-3.5255,-154.9913,30.0522,-13.287
1770,1.9543,-1.9543,-3.832,-154.9217,32.0,-13.7043
1775,1.9927,-2.031,-3.7937,-156.6609,34.1565,-14.5391
1780,1.7627,-1.916,-3.5638,-159.3043,37.0783,-16.1391
1785,1.7244,-2.031,-3.4871,-161.9478,40.4174,-17.3913
1790,1.6861,-2.031,-3.4488,-164.1043,43.8957,-18.3652
1795,1.8394,-1.9543,-3.6787,-165.4261,47.3043,-18.5043
1800,1.9927,-1.8394,-3.947,-165.5652,50.7826,-18.5043
1805,2.2992,-1.7627,-4.4068,-164.7304,54.4,-18.5043
1810,2.4908,-1.4562,-4.4835,-163.5478,57.6696,-18.713
1815,2.6441,-1.2646,-4.6368,-160.9739,60.8,-19.6174
1820,2.6441,-0.9963,-4.8284,-157.6348,63.7913,-21.4261
1825,3.0656,-0.9963,-4.6751,-153.8783,65.8783,-23.7217
1830,2.8357,-0.7664,-4.8667,-150.4696,67.687,-26.5739
1835,2.9123,-0.843,-4.7134,-148.2435,69.0783,-29.287
1840,2.7207,-0.7281,-5.0966,-146.2957,69.2174,-31.513
1845,2.5291,-0.4598,-5.4032,-143.513,68.6609,-32.9739
1850,2.1459,-0.2299,-5.6714,-141.0087,68.8,-34.5739
1855,1.4945,-0.115,-5.748,-139.8261,67.8957,-36.313
1860,1.1113,-0.4982,-5.7097,-144.9739,66.3652,-36.1043
1865,9.6184,-0.6898,0.3832,-152.0696,63.1652,-32.1391
1870,27.0158,4.1386,-6.4378,54.8174,-3.8957,15.0261
1875,24.64,4.2536,-23.3371,383.513,-15.4435,94.9565
1880,15.1365,3.2189,-27.2074,438.6087,54.6783,85.7043
1885,-0.5365,-3.7171,-12.4158,225.7391,43.8261,39.7913
1890,-9.7717,8.6987,-3.832,31.2348,-9.3913,0.2783
1895,-11.1895,13.9103,-11.9559,-45.4261,-51.8261,-22.6087
1900,-7.7407,8.9286,-25.9045,-98.5043,-82.087,-21.9826
1905,-5.863,11.0746,-28.3954,-161.3217,-75.8957,-19.6174
1910,-3.7937,16.6693,-35.3696,-187.2,-41.2522,-18.0174
1915,-0.3832,15.3281,-36.4043,-186.3652,-27.5478,-11.4783
1920,6.9743,16.5544,-36.366,-153.1826,-31.8609,-19.3391
1925,7.5491,15.1365,-30.1581,-117.3565,2.9913,-30.0522
1930,9.1969,18.1638,-19.8499,-109.3565,32.2087,-36.0348
1935,10.1549,9.0053,-17.8956,-108.0348,-0.3478,-32.6957
1940,11.4195,1.8777,-22.5323,-99.4087,-51.0609,-22.9565
1945,10.0016,-3.2955,-24.64,-99.8261,-99.0609,-13.0087
1950,8.2772,-3.9087,-29.1618,-90.8522,-131.5478,-8.5565
1955,10.883,-3.2572,-30.273,-73.113,-146.0174,-9.3913
1960,10.768,-2.2226,-30.0814,-68.3826,-151.7217,-9.1826
1965,7.9323,-1.6478,-28.5486,-68.0348,-146.7826,-8.9739
1970,4.4835,-1.2263,-28.587,-63.513,-128.7652,-7.8609
1975,1.8011,-2.4908,-26.5943,-62.4696,-96.9043,-8.2087
1980,2.9507,1.6095,-24.7166,-61.8435,-63.6522,-8.8348
1985,2.1076,3.9087,-20.693,-65.9478,-34.1565,-10.4348
1990,1.3795,3.4488,-19.5434,-63.7913,-11.2696,-11.3391
1995,1.9927,0.6898,-17.9339,-59.8957,6.9565,-11.8261
2000,2.8357,0.6514,-17.3974,-59.0609,22.4696,-12.8696
2005,3.1806,1.8011,-16.7843,-60.313,36.3826,-13.0087
2010,2.989,2.2226,-16.631,-64.0,48.8348,-12.9391
2015,2.7591,2.1076,-15.9796,-70.6783,57.7391,-13.5652
2020,2.4908,1.073,-15.673,-76.4522,63.8609,-15.0957
2025,1.7244,2.1459,-16.0179,-83.0609,66.9913,-20.8696
2030,2.4525,0.843,-14.7533,-98.7826,67.3391,-23.513
2035,2.2226,0.3832,-14.4084,-110.6783,65.9478,-27.1304
2040,2.6441,-0.5365,-13.7187,-121.6,63.6522,-31.4435
2045,2.6441,-1.5711,-13.2971,-133.4957,61.287,-37.0783
2050,2.031,-0.9963,-12.5691,-149.7043,59.0609,-42.5043
2055,2.9123,-1.7627,-11.726,-170.713,56.0696,-47.0261
2060,2.6824,-0.958,-10.2698,-194.6435,57.2522,-54.2609
2065,1.6095,-0.0766,-7.8173,-215.1652,57.8783,-60.8
2070,-0.8047,-0.4598,-4.79,-228.5217,52.8,-64.4174
2075,-1.0346,0.7664,-3.4488,-231.6522,38.7478,-66.2261
2080,0.5365,1.7244,-2.7974,-226.8522,24.4174,-64.0
2085,1.5711,2.3375,-2.3375,-214.3304,15.1652,-60.1739
2090,2.3759,2.4908,-1.5711,-194.2957,9.7391,-58.9913
2095,1.6861,2.989,-0.9963,-167.5826,9.1826,-60.5217
2100,2.4525,4.3302,-1.3795,-137.7391,9.113,-60.8
2105,2.4525,4.062,-1.0346,-108.2435,11.5478,-58.7826
2110,2.1843,3.3722,-1.1496,-77.913,13.3565,-57.6
2115,2.874,4.3685,-1.8011,-48.8348,13.7739,-57.9478
2120,2.2226,4.8667,-2.5291,-23.7913,14.1217,-57.1826
2125,2.6441,4.8284,-2.8357,-5.5652,14.0522,-52.3826
2130,2.6441,4.6368,-2.9123,9.3217,13.5652,-47.3043
2135,2.874,4.905,-3.7554,23.2348,12.0348,-43.687
2140,2.6441,4.7517,-3.5255,31.7913,9.7391,-40.487
2145,2.031,4.4452,-3.832,39.513,5.7043,-35.3391
2150,1.8777,3.8704,-4.4452,48.9739,0.2783,-28.4522
2155,1.4179,3.5638,-5.0583,57.9478,-6.4,-20.1043
2160,1.4562,2.031,-5.3648,65.8783,-13.1478,-11.8957
2165,1.4562,2.4525,-6.2462,76.5217,-16.2783,-10.9217
2170,1.3412,2.874,-6.6294,81.113,-17.6,-11.2696
2175,1.1879,2.8357,-7.5108,85.1478,-19.3391,-11.3391
2180,1.2263,2.7591,-8.3538,89.0435,-20.5217,-9.9478
2185,1.1496,2.7207,-9.0053,87.2348,-21.1478,-9.3217
2190,0.4982,3.1806,-8.9286,80.4174,-20.8,-7.7913
2195,0.6131,3.5255,-9.1586,76.4522,-18.9913,-5.2174
2200,1.1879,3.7937,-8.9286,75.6174,-17.6,-2.9913
2205,1.8394,4.1003,-9.0053,76.8696,-17.2522,-1.6696
2210,1.4562,3.4488,-9.2735,78.1217,-17.5304,-0.2783
2215,1.6861,3.4871,-9.4651,78.4,-17.6696,1.113
2220,1.916,3.4871,-10.0016,78.887,-18.0174,2.2957
2225,1.916,3.4488,-10.1932,79.6522,-18.5739,3.1304
2230,1.8394,3.2955,-10.7297,80.1391,-18.7826,3.5478
2235,1.9543,2.7591,-11.1895,79.6522,-19.4783,3.4087
2240,1.8777,2.7591,-11.4195,77.5652,-20.0348,3.6174
2245,2.1076,2.4525,-11.8027,73.7391,-20.313,4.0348
2250,2.2226,2.4525,-11.8027,68.9391,-20.3826,4.2435
2255,2.3759,2.4908,-11.9559,63.7217,-20.0348,4.0348
2260,2.1076,2.2992,-11.9943,58.5739,-19.6174,3.4783
2265,2.0693,1.9927,-11.9943,53.3565,-18.4348,3.2
2270,2.0693,1.9543,-11.9176,47.9304,-16.7652,2.9217
2275,2.1843,1.8011,-11.9943,42.8522,-14.6783,2.713
2280,1.9927,1.9927,-11.9559,38.1913,-12.4522,2.5043
2285,2.0693,1.9927,-11.6877,34.1565,-9.7391,2.4348
2290,1.9927,2.1076,-11.5727,31.1652,-6.5391,2.4348
2295,1.9927,1.9543,-11.4578,29.0783,-2.9913,2.5043
2300,1.916,2.1459,-11.1129,27.7565,0.487,2.713
2305,1.8777,2.3375,-10.5764,27.687,3.8261,3.0609
2310,1.8011,2.1459,-10.5381,28.2435,7.2348,3.4783
2315,1.8011,2.1843,-10.4614,29.5652,10.2957,4.1043
2320,1.6861,2.2609,-10.1549,30.8174,13.0783,4.8696
2325,1.8011,2.1459,-10.1549,31.3043,15.5826,5.7739
2330,1.5711,2.2226,-10.0782,31.4435,17.6696,6.2609
2335,1.8777,2.1076,-9.7717,30.8174,19.687,6.887
2340,1.6861,1.8394,-9.6184,29.913,21.0087,7.1652
2345,1.916,1.5711,-9.5801,29.0087,21.3565,7.7913
2350,2.031,1.8777,-9.5801,27.4087,21.4261,8.1391
2355,2.0693,1.6861,-9.5418,25.3217,20.8,8.2783
2360,2.3759,1.3795,-9.3885,23.0957,19.5478,7.7913
2365,1.9543,1.4179,-9.1969,20.2435,18.0174,7.0957
2370,2.2226,1.3795,-9.0436,16.7652,16.5565,6.7478
2375,2.3759,1.1113,-8.9286,14.4,15.1652,5.9826
2380,2.1843,1.2263,-9.0053,12.2435,13.4261,4.5913
2385,2.1843,1.0346,-8.967,9.3913,11.3391,3.4087
2390,2.1076,1.1496,-8.967,7.513,9.9478,2.4348
2395,2.1076,0.958,-9.0436,6.3304,8.5565,1.7391
2400,1.9543,0.9963,-8.9286,5.0087,7.3043,0.9739
2405,1.916,1.1496,-9.1202,3.3391,6.2609,0.5565
2410,1.8394,1.2263,-9.0053,2.0174,5.2174,0.0696
2415,1.8777,1.3412,-8.9286,1.6696,4.1739,-0.0696
2420,1.9543,1.1496,-8.8903,1.8783,3.2696,0.0
2425,1.9543,1.2646,-8.8137,2.4348,2.4348,-0.0696
2430,1.916,1.4945,-8.9286,3.2696,1.6696,-0.0696
2435,1.9543,1.5711,-8.6987,4.1739,0.487,0.0
2440,2.031,1.6095,-8.8903,5.287,-0.6957,0.2783
2445,2.0693,1.8011,-8.967,6.4,-2.0174,0.3478
2450,2.0693,1.6095,-9.0053,7.4435,-3.4783,0.487
2455,2.0693,1.6095,-9.0053,8.4174,-4.8,0.5565
2460,2.1459,1.5328,-8.967,9.3217,-6.1217,0.6261
2465,2.031,1.6861,-8.9286,10.3652,-7.4435,0.7652
2470,1.9927,1.7244,-9.1586,11.1304,-8.6957,0.7652
2475,1.9927,1.6478,-9.3118,12.0348,-9.7391,0.9043
2480,2.1459,1.6861,-9.0053,12.5913,-10.5043,0.9739
2485,2.1459,1.6095,-9.3502,12.9391,-11.7565,0.9043
2490,1.9927,1.5711,-9.4651,13.287,-12.7304,0.7652
2495,2.0693,1.5711,-9.4651,13.4261,-13.6348,0.7652
2500,2.031,1.6861,-9.3502,13.5652,-14.1913,0.6957
2505,2.1459,1.6095,-9.5801,13.4957,-14.9565,0.6957
2510,1.9543,1.5328,-9.7334,13.3565,-15.7217,0.6957
2515,2.031,1.6095,-9.3885,13.3565,-16.487,0.487
2520,1.9927,1.6478,-9.8483,13.3565,-17.2522,0.3478
2525,2.1459,1.7244,-9.5801,13.2174,-18.087,0.0
2530,1.9927,1.6478,-9.5034,13.0783,-19.0609,-0.0696
2535,1.9543,1.6095,-9.6184,12.8696,-19.6174,-0.0696
2540,1.8394,1.6095,-9.695,12.7304,-20.0348,-0.1391
2545,1.8394,1.4562,-9.8866,12.1739,-20.2435,-0.2783
2550,1.9543,1.4179,-10.0016,11.5478,-20.313,-0.2087
2555,1.916,1.5328,-10.0399,10.8522,-20.1043,-0.4174
2560,1.8394,1.6095,-10.0399,10.1565,-19.5478,-0.4174
2565,1.8777,1.4179,-9.9633,9.3217,-18.8522,-0.6261
2570,2.031,1.1496,-9.8866,8.6261,-18.2261,-0.8348
2575,1.8394,1.4945,-10.0016,8.1391,-17.5304,-1.0435
2580,1.8394,1.4945,-9.8866,7.6522,-16.9043,-1.3217
2585,1.916,1.6478,-9.8866,7.1652,-16.4174,-1.6
2590,1.9543,1.5328,-9.8866,6.5391,-16.0696,-1.7391
2595,1.8394,1.5711,-9.81,5.9826,-15.8609,-1.9478
2600,1.8394,1.5328,-10.0016,5.4261,-15.4435,-2.1565
2605,1.9543,1.5711,-9.81,4.7304,-15.3043,-2.2957
2610,1.8777,1.5711,-9.695,4.1739,-15.0261,-2.5043
2615,1.8777,1.5711,-10.0016,3.7565,-14.8174,-2.8522
2620,1.8777,1.4179,-9.7334,3.2,-14.6783,-2.9217
2625,1.8394,1.4945,-9.8483,2.7826,-14.6087,-3.1304
2630,1.7244,1.6478,-9.7334,2.2261,-14.7478,-3.4087
2635,1.6095,1.6478,-9.695,1.9478,-14.9565,-3.5478
2640,1.8011,1.6478,-9.695,1.4609,-15.1652,-3.7565
2645,1.6478,1.4179,-9.5418,1.2522,-15.3739,-3.8261
2650,1.5711,1.5711,-9.6567,0.9739,-15.7217,-4.0348
2655,1.5711,1.5711,-9.5034,0.9043,-16.0696,-4.1739
2660,1.5711,1.6478,-9.6567,0.8348,-16.487,-4.313
2665,1.5711,1.5711,-9.3885,0.9043,-16.8348,-4.313
2670,1.5711,1.5328,-9.5034,0.9739,-16.9043,-4.313
2675,1.4179,1.6478,-9.5034,1.113,-17.0435,-4.5217
2680,1.3795,1.6478,-9.5418,1.5304,-17.3217,-4.5217
2685,1.4179,1.6861,-9.5418,1.9478,-17.5304,-4.5217
2690,1.3795,1.5711,-9.5034,2.5043,-17.6,-4.4522
2695,1.3795,1.6095,-9.3502,2.9913,-17.8783,-4.4522
2700,1.4179,1.6861,-9.4268,3.5478,-18.0174,-4.5913
2705,1.2646,1.6478,-9.5034,4.0348,-18.2261,-4.5217
2710,1.3029,1.4179,-9.5034,4.5913,-18.2957,-4.5913
2715,1.1879,1.6095,-9.5801,5.1478,-18.5043,-4.5217
2720,1.073,1.6861,-9.6184,5.7739,-18.5043,-4.4522
2725,1.2263,1.5711,-9.5034,6.3304,-18.5043,-4.313
2730,1.3029,1.6861,-9.5801,6.8174,-18.3652,-4.2435
2735,1.1879,1.4945,-9.6567,7.4435,-17.8783,-4.2435
2740,1.0346,1.6478,-9.4268,7.8609,-17.9478,-4.1043
2745,1.2263,1.5328,-9.5801,8.2087,-18.0174,-4.1739
2750,1.073,1.6095,-9.6184,8.487,-18.087,-4.2435
2755,0.958,1.6095,-9.7334,8.8348,-18.2957,-4.2435
2760,1.0346,1.4945,-9.695,9.113,-18.1565,-4.313
2765,1.073,1.5711,-9.7717,9.3217,-18.087,-4.1043
2770,0.8814,1.5711,-9.695,9.6,-17.8783,-4.0348
2775,0.9197,1.4562,-9.5418,9.9478,-17.8087,-4.0348
2780,0.9963,1.6095,-9.6184,10.2261,-17.5304,-3.9652
2785,0.843,1.3412,-9.9633,10.5043,-17.2522,-3.8957
2790,0.8814,1.6478,-10.0016,10.713,-16.9043,-3.8261
2795,0.9963,1.4562,-9.9633,10.8522,-16.6261,-3.7565
2800,0.8814,1.5328,-9.9633,10.713,-16.1391,-3.6174
2805,0.9197,1.3412,-9.925,10.5043,-15.513,-3.6174
2810,0.8814,1.5711,-10.0399,10.2261,-14.8174,-3.4783
2815,0.8814,1.4562,-10.0399,9.9478,-14.2609,-3.3391
2820,0.843,1.4562,-10.0016,9.6696,-13.4957,-3.2
2825,0.8814,1.2646,-9.7717,9.2522,-12.7304,-3.1304
2830,0.7281,1.4562,-9.9633,8.9739,-12.0348,-2.9217
2835,0.8047,1.4562,-10.0016,8.6261,-11.4783,-2.8522
2840,0.7664,1.3412,-9.8866,8.3478,-10.7826,-2.713
2845,0.7281,1.3412,-9.925,7.8609,-10.1565,-2.6435
2850,0.6898,1.4179,-10.0399,7.5826,-9.3217,-2.5739
2855,0.7281,1.3029,-9.9633,7.2348,-8.7652,-2.3652
2860,0.7664,1.3412,-9.925,6.887,-8.2087,-2.2957
2865,0.7664,1.4945,-9.8483,6.6087,-7.6522,-2.2261
2870,0.6131,1.5328,-10.0399,6.2609,-7.0957,-2.087
2875,0.7664,1.4562,-9.8483,6.0522,-6.5391,-1.9478
2880,0.7664,1.4179,-9.7717,5.7739,-6.0522,-1.9478
2885,0.6898,1.4945,-9.81,5.7043,-5.6348,-1.8087
2890,0.7281,1.073,-9.8866,5.4261,-5.0087,-1.7391
2895,0.8814,1.3795,-9.8866,5.2174,-4.3826,-1.6
2900,0.7281,1.3029,-9.8866,4.9391,-3.8261,-1.6
2905,0.6898,1.2263,-9.81,4.8696,-3.2696,-1.5304
2910,0.7664,1.4945,-9.81,4.7304,-2.8522,-1.5304
2915,0.8047,1.2646,-9.925,4.6609,-2.2957,-1.3217
2920,0.8047,1.3412,-9.7717,4.5913,-1.8087,-1.2522
2925,0.6514,1.3029,-9.7717,4.5217,-1.2522,-1.113
2930,0.6898,1.3029,-9.8483,4.3826,-0.9043,-1.0435
2935,0.7664,1.3412,-9.8483,4.313,-0.3478,-0.9043
2940,0.7281,1.3412,-9.7334,4.313,0.0,-0.9043
2945,1.1879,1.1879,-10.0399,4.2435,0.3478,-0.9043
2950,0.7664,1.4179,-9.7717,4.1739,0.7652,-0.6957
2955,0.6514,1.4562,-9.8483,4.2435,0.9739,-0.6957
2960,0.7664,1.4562,-9.6567,4.1739,1.3217,-0.6261
2965,0.7664,1.4945,-9.8866,4.1739,1.6,-0.6957
2970,0.7281,1.5328,-9.81,4.1043,1.8783,-0.6261
2975,0.7281,1.3412,-9.6567,4.1739,2.1565,-0.5565
2980,0.8047,1.3029,-9.695,4.1739,2.4348,-0.3478
2985,0.8047,1.4562,-9.8483,4.313,2.713,-0.4174
2990,0.8047,1.4179,-9.81,4.313,2.7826,-0.3478
2995,0.6898,1.4179,-9.81,4.3826,2.9217,-0.2783
