timestamp,accX,accY,accZ,gyroX,gyroY,gyroZ
0,-1.6478,-7.6641,-4.6368,17.9478,-3.8957,16.5565
5,-1.7244,-7.5874,-4.4835,18.087,-4.9391,16.8348
10,-1.6861,-7.5108,-4.4452,18.0174,-5.4957,16.8348
15,-1.6095,-7.4341,-4.3685,18.087,-6.1217,17.2522
20,-1.6861,-7.4725,-4.2536,17.9478,-6.4,17.2522
25,-1.5711,-7.4341,-4.4452,17.7391,-6.8174,17.6696
30,-1.6095,-7.3575,-4.3685,17.2522,-7.0261,17.7391
35,-1.4562,-7.4725,-4.3302,16.3478,-7.3043,18.3652
40,-1.4562,-7.4341,-4.4835,15.3739,-7.4435,18.5043
45,-1.4562,-7.3575,-4.5218,14.3304,-7.6522,19.0609
50,-1.4179,-7.5108,-4.3302,13.2174,-7.8609,19.2696
55,-1.3412,-7.5491,-4.1386,12.0348,-8.1391,19.8261
60,-1.3795,-7.5491,-4.3302,10.6435,-8.2783,20.0348
65,-1.4179,-7.6257,-4.3302,9.6,-8.4174,20.5913
70,-1.4179,-7.6641,-4.2536,8.6261,-8.3478,20.8
75,-1.4179,-7.6257,-4.1003,8.0,-8.0696,21.4261
80,-1.4562,-7.6257,-4.1003,7.5826,-7.3739,21.8435
85,-1.4179,-7.8173,-3.8704,7.0957,-6.6087,22.3304
90,-1.3795,-7.6641,-4.0236,6.6783,-5.7739,22.4
95,-1.3795,-7.6257,-3.832,6.4696,-5.0087,22.4
100,-1.3412,-7.6257,-3.7171,6.0522,-4.0348,22.0522
105,-1.3412,-7.5108,-3.8704,5.7043,-3.3391,21.8435
110,-1.4562,-7.5108,-3.6787,5.0783,-2.6435,21.2174
115,-1.4179,-7.4341,-3.4871,4.3826,-1.8783,21.0087
120,-1.5328,-7.3575,-3.5255,3.4783,-1.2522,20.5217
125,-1.4562,-7.1276,-3.5255,2.2261,-0.6261,20.1043
130,-1.3029,-6.9743,-3.4871,0.8348,0.0696,19.4087
135,-1.2646,-6.8593,-3.6021,-0.6261,0.9043,18.9217
140,-1.1496,-6.8977,-3.4488,-1.9478,1.9478,18.0174
145,-1.0346,-6.7061,-3.2572,-3.2,2.9913,17.3913
150,-0.958,-6.5911,-3.2189,-4.4522,4.0348,16.487
155,-0.8814,-6.5911,-3.1039,-5.5652,5.2174,15.9304
160,-0.958,-6.6294,-3.1039,-6.9565,6.4696,15.0957
165,-0.958,-6.5911,-3.0656,-8.6261,7.7217,14.6087
170,-0.958,-6.6294,-3.0273,-10.087,9.0435,14.1217
175,-0.843,-6.7444,-3.0273,-11.5478,10.3652,14.1217
180,-0.7281,-6.7061,-3.1423,-12.6609,12.1043,13.8435
185,-0.6898,-6.7444,-2.7591,-13.6348,14.1913,13.9826
190,-0.4982,-6.7444,-2.7974,-13.9826,16.1391,13.7739
195,-0.4598,-6.8593,-2.6824,-14.0522,18.2261,13.9826
200,-0.4215,-6.8977,-2.6824,-13.913,20.2435,13.7739
205,-0.3066,-7.0509,-2.6441,-13.6348,22.0522,13.7739
210,-0.4215,-7.0126,-2.6058,-13.1478,23.513,13.4957
215,-0.3449,-7.0893,-2.2992,-12.3826,24.6957,13.4261
220,-0.3066,-7.2042,-2.6058,-11.7565,25.3217,13.287
225,-0.4598,-7.3192,-2.2226,-11.2,25.8783,13.4957
230,-0.4982,-7.3192,-2.2609,-10.4348,26.087,13.4957
235,-0.7664,-7.5108,-2.2226,-9.8087,26.2957,13.4957
240,-0.8814,-7.5874,-2.2609,-9.1826,26.2957,13.6348
245,-0.9963,-7.779,-2.3375,-8.8348,26.0174,13.8435
250,-1.3029,-7.894,-2.3759,-8.6261,25.8087,13.5652
255,-1.3029,-8.2772,-2.4908,-8.6261,25.5304,13.5652
260,-1.4562,-8.4305,-2.4525,-8.4174,25.4609,13.0087
265,-1.4179,-8.852,-2.4525,-8.0696,25.8783,12.5217
270,-1.4945,-9.1202,-2.3375,-7.6522,26.7826,11.8261
275,-1.7244,-9.3502,-2.4142,-7.0261,27.8957,11.0609
280,-1.6478,-9.5418,-2.3375,-6.0522,29.2174,10.0174
285,-1.6478,-9.8483,-2.1843,-4.5913,30.7478,8.9739
290,-1.6861,-9.8483,-2.0693,-2.6435,32.2783,7.6522
295,-1.7244,-9.9633,-2.1076,-0.3478,33.5304,6.4
300,-1.5711,-9.9633,-2.2992,2.4348,34.5739,4.7304
305,-1.4562,-9.9633,-2.1459,5.6348,35.4087,3.1304
310,-1.4562,-10.0399,-2.031,9.113,36.2435,1.5304
315,-1.3795,-10.0782,-2.1843,12.8,37.2174,-0.0696
320,-1.4179,-10.0782,-2.1843,17.2522,38.2609,-1.113
325,-1.3795,-9.9633,-2.3375,20.8,39.0261,-1.8087
330,-1.2646,-9.8483,-2.2226,23.9304,39.5826,-2.2957
335,-1.3795,-9.5418,-2.2609,26.5739,39.7913,-2.3652
340,-1.4179,-9.5418,-2.1843,28.5913,39.7913,-2.2957
345,-1.4179,-9.3502,-2.1843,30.1913,39.5826,-1.8087
350,-1.3029,-8.967,-2.1076,31.0261,39.2348,-1.2522
355,-1.3029,-8.6604,-2.2609,31.2348,38.7478,-0.2783
360,-1.3412,-8.4305,-2.1843,30.2609,37.9826,0.5565
365,-1.1496,-8.1622,-2.3759,27.687,36.8,1.6
370,-1.1879,-7.9706,-2.4525,22.8174,34.8522,2.7826
375,-1.3795,-7.8173,-2.6058,17.9478,32.9739,3.9652
380,-1.6095,-7.6257,-2.874,12.7304,30.8174,5.2174
385,-1.916,-7.6257,-3.2189,6.9565,28.2435,6.8174
390,-2.1843,-7.5874,-3.4105,0.487,25.1826,8.487
395,-2.5675,-7.8173,-3.9087,-6.6087,21.7739,10.1565
400,-2.9123,-8.0473,-4.062,-13.7739,18.1565,11.5478
405,-3.1806,-8.6221,-4.4452,-20.8,14.3304,12.8696
410,-3.6787,-9.1202,-4.5601,-26.7826,10.087,13.7043
415,-3.832,-9.7717,-4.8667,-32.1391,5.7043,14.8174
420,-3.8704,-10.3082,-4.9433,-36.7304,0.2087,16.0696
425,-3.832,-11.1895,-5.2116,-41.9478,-4.0348,17.3217
430,-3.4105,-11.841,-5.6331,-45.7043,-7.6522,18.087
435,-3.1806,-12.4924,-5.5948,-48.6957,-10.713,18.2261
440,-2.9123,-13.1439,-5.748,-50.5739,-13.8435,17.3217
445,-2.7974,-13.5654,-6.1696,-51.3391,-17.3217,15.7913
450,-2.7591,-13.7187,-6.4761,-51.5478,-21.1478,13.913
455,-2.6058,-13.757,-6.7827,-51.5478,-25.3217,12.3826
460,-2.5291,-13.8336,-7.0509,-51.6174,-29.0783,10.6435
465,-2.3759,-13.7187,-7.0126,-51.4783,-32.487,8.6261
470,-2.1843,-13.6037,-6.9743,-49.6,-35.2696,5.8435
475,-1.9927,-13.2971,-7.0126,-44.1739,-36.2435,4.1043
480,-1.8011,-13.0672,-7.0509,-37.2174,-34.5739,3.2
485,-1.7627,-12.3775,-7.0893,-28.8696,-30.7478,2.713
490,-1.6478,-11.8027,-7.0893,-20.1043,-25.2522,2.1565
495,-1.6095,-11.2662,-7.2425,-12.5217,-18.7826,1.1826
500,-1.5711,-10.5381,-7.4725,-6.8174,-11.8957,-0.1391
505,-1.8777,-10.0016,-7.6641,-3.7565,-5.7739,-1.3217
510,-1.916,-9.6184,-7.779,-3.3391,-0.6261,-2.3652
515,-2.1459,-9.4651,-7.9706,-5.2174,3.4783,-2.9217
520,-2.3375,-9.1969,-8.1622,-8.5565,6.887,-2.9913
525,-2.4142,-9.0436,-8.3921,-12.4522,10.087,-2.5043
530,-2.5675,-8.852,-8.737,-16.9043,12.1739,-1.7391
535,-2.6058,-8.6987,-8.8903,-20.1739,13.8435,-0.7652
540,-2.6058,-8.5838,-9.3118,-23.0261,15.513,0.487
545,-2.4908,-8.2772,-9.5801,-25.7391,17.1826,1.9478
550,-2.1843,-8.0089,-9.695,-28.1043,19.3391,3.2696
555,-1.8394,-7.8173,-9.8866,-30.0522,21.7739,4.3826
560,-1.6478,-7.5491,-9.9633,-31.3739,24.7652,5.2174
565,-1.4179,-7.3192,-10.0399,-32.0696,27.7565,5.913
570,-0.958,-7.2042,-9.925,-31.9304,30.8174,6.4
575,-0.6131,-7.1659,-9.8483,-30.4696,34.087,6.887
580,-0.4598,-7.2809,-10.0016,-27.4087,38.2609,7.0261
585,-0.1533,-7.3575,-9.8483,-23.9304,41.1826,7.3043
590,-0.3832,-7.4341,-9.6184,-19.9652,44.0348,7.6522
595,-0.3449,-7.5874,-9.4651,-15.8609,46.7478,8.4174
600,-0.3449,-7.779,-9.1969,-11.8261,48.9043,9.3217
605,-0.3832,-8.2005,-9.2735,-8.487,50.2261,10.087
610,-0.1916,-8.5071,-8.9286,-6.0522,50.9913,10.4348
615,-0.3066,-8.5838,-8.6987,-4.2435,50.9913,10.713
620,-0.1533,-9.0053,-8.3155,-2.7826,50.713,10.5739
625,-0.3449,-9.1969,-8.2389,-1.8087,50.3652,10.2261
630,-0.3832,-9.3118,-8.0089,-1.0435,50.2261,9.5304
635,-0.4982,-9.3502,-7.7024,-0.2087,50.6435,8.9043
640,-0.7281,-9.1969,-7.5874,0.2087,51.4783,8.2783
645,-1.0346,-8.9286,-7.3192,0.6957,52.6609,7.3739
650,-1.3795,-8.8137,-7.1659,1.113,54.0522,6.4696
655,-1.6861,-8.5838,-7.0893,1.3217,55.3739,5.3565
660,-2.0693,-8.2772,-6.821,1.5304,56.5565,4.1739
665,-2.2992,-8.0089,-6.7061,1.8087,57.6696,2.713
670,-2.3759,-7.7407,-6.6294,2.1565,58.9913,1.1826
675,-2.4908,-7.5491,-6.3612,2.5043,60.8,-0.3478
680,-2.4142,-7.3958,-6.3612,2.8522,63.0261,-2.1565
685,-2.2609,-7.2809,-6.3612,2.8522,66.2957,-3.8261
690,-2.0693,-7.0509,-6.1313,2.8522,69.2174,-5.1478
695,-1.9543,-6.9743,-6.2079,2.9217,72.0,-6.6087
700,-1.6861,-6.7444,-6.0929,2.713,74.5043,-7.7217
705,-1.3029,-6.821,-5.978,2.6435,76.7304,-8.9739
710,-0.958,-6.7444,-5.9013,2.3652,78.4696,-9.8783
715,-0.6131,-6.821,-5.748,2.2957,79.513,-10.8522
720,-0.4598,-6.9743,-5.4798,2.6435,80.0696,-11.687
725,-0.0766,-7.2042,-5.3648,3.1304,80.2087,-12.5217
730,0.1533,-7.4725,-5.2116,3.8261,79.6522,-13.2174
735,0.3066,-7.5874,-5.0583,5.0087,78.1217,-13.913
740,0.3832,-7.8557,-4.8284,6.6783,76.313,-14.2609
745,0.4598,-8.1239,-4.7134,8.4174,74.2957,-14.6783
750,0.4215,-8.3921,-4.6751,9.9478,72.2087,-14.887
755,0.4215,-8.5454,-4.4835,11.8261,70.1217,-15.4435
760,0.3832,-8.852,-4.4452,13.7043,68.313,-16.0
765,0.4982,-8.9286,-4.2536,15.2348,66.8522,-16.6957
770,0.3449,-9.0053,-4.2919,16.5565,65.6696,-17.4609
775,0.1916,-9.0436,-4.2919,17.3217,64.8348,-18.5739
780,0.1533,-8.9286,-4.2536,17.6,64.0,-19.8261
785,0.0,-8.7754,-4.1003,17.3217,63.513,-21.7739
790,0.115,-8.737,-4.062,16.1391,63.0261,-23.6522
795,-0.0383,-8.4688,-4.1769,14.6783,62.7478,-25.7391
800,-0.0383,-7.9706,-4.062,13.0783,62.1217,-27.8261
805,-0.2299,-7.779,-3.7171,11.4087,61.4957,-29.913
810,-0.0766,-7.6641,-3.6021,9.9478,60.313,-31.3043
815,-0.1533,-7.3958,-3.6404,8.7652,58.7826,-32.3478
820,-0.1916,-7.0509,-3.5255,7.8609,56.6957,-32.6261
825,-0.3449,-6.5528,-3.3339,6.7478,54.1217,-32.6957
830,-0.4215,-6.2845,-3.1423,5.4957,51.1304,-32.2087
835,-0.4215,-6.0546,-3.0656,4.3826,47.5826,-31.2348
840,-0.4982,-5.5564,-3.1423,2.7826,42.6435,-30.1913
845,-0.6898,-5.3265,-2.9123,1.6696,38.0522,-29.1478
850,-0.7664,-5.1732,-2.8357,0.6957,33.2522,-27.9652
855,-0.843,-4.9816,-2.6441,-0.4174,28.3826,-27.2696
860,-0.958,-4.9816,-2.6058,-1.2522,23.3043,-26.3652
865,-1.0346,-4.9816,-2.4525,-2.0174,18.4348,-25.8087
870,-1.1113,-5.02,-2.2992,-2.7826,13.7739,-25.113
875,-1.2263,-5.0583,-2.2992,-3.4087,9.1826,-24.8348
880,-1.2646,-5.2499,-2.1459,-3.8957,4.8,-24.487
885,-1.1496,-5.3648,-2.1459,-4.7304,0.5565,-24.4174
890,-1.1879,-5.5181,-2.1076,-5.6348,-4.4522,-24.487
895,-1.3029,-5.5564,-2.031,-6.7478,-8.487,-24.9739
900,-1.3029,-5.7097,-2.0693,-7.6522,-12.7304,-25.3913
905,-1.2646,-5.9396,-2.1076,-8.487,-16.8348,-26.2957
910,-1.2646,-6.1696,-2.1076,-9.3217,-21.0783,-27.2
915,-1.1879,-6.3995,-2.031,-9.7391,-25.2522,-28.6609
920,-1.1879,-6.5911,-1.9927,-9.8783,-29.4957,-30.1913
925,-1.2263,-6.7827,-1.9543,-9.4609,-33.8087,-31.9304
930,-1.1496,-7.0126,-1.7627,-8.1391,-38.1913,-33.6
935,-1.1496,-7.3192,-1.8011,-6.0522,-42.2957,-35.4087
940,-1.1113,-7.5491,-1.6095,-3.3391,-46.1913,-37.287
945,-0.9197,-7.779,-1.5328,0.6957,-50.2261,-38.887
950,-0.958,-7.894,-1.3795,4.5217,-53.3565,-40.0696
955,-0.8047,-8.0473,-1.3412,9.0435,-56.0696,-41.113
960,-0.7281,-8.1622,-1.3412,13.7043,-58.2261,-41.7391
965,-0.4598,-8.3921,-1.3795,18.4348,-59.7565,-42.1565
970,-0.3449,-8.4688,-1.2646,23.2348,-60.3826,-41.7391
975,-0.2682,-8.5838,-1.1113,28.3826,-60.3826,-40.8348
980,-0.0383,-8.8137,-0.8814,34.8522,-60.1739,-39.0261
985,0.0766,-8.9286,-0.6898,42.2957,-60.1043,-37.0783
990,0.5365,-9.0819,-0.4982,50.3652,-59.9652,-34.2261
995,0.8047,-9.2352,-0.4215,58.9913,-60.1739,-30.4
1000,1.2646,-9.2735,-0.3832,69.7739,-60.2435,-26.5739
1005,1.6095,-9.1202,-0.5748,78.9565,-60.2435,-22.5391
1010,2.0693,-9.1969,-0.3066,87.7913,-59.8957,-17.8783
1015,2.5675,-8.8903,-0.3066,96.1391,-59.0609,-13.287
1020,2.989,-8.6604,-0.3449,103.9304,-57.3913,-8.0
1025,3.4105,-8.2772,-0.2299,111.0261,-55.0957,-2.713
1030,3.6787,-7.894,-0.1916,117.913,-52.4522,3.0609
1035,3.8704,-7.5491,-0.1916,124.2435,-49.4609,8.7652
1040,3.9087,-7.5108,-0.4598,129.3913,-45.913,15.0957
1045,3.8704,-7.4725,-0.7664,133.1478,-41.3913,22.5391
1050,3.947,-7.5108,-1.1496,135.2348,-34.4348,28.9391
1055,3.6021,-7.6257,-1.3795,135.4435,-27.7565,34.4348
1060,3.3722,-7.7407,-1.6478,134.5391,-20.313,39.8609
1065,3.2189,-7.894,-2.1076,132.8696,-12.8,44.313
1070,3.2189,-7.9323,-2.5291,129.6696,-5.7043,47.8609
1075,3.2189,-7.6257,-3.1039,124.3826,0.6261,49.5304
1080,3.4488,-7.3575,-3.6404,117.6348,6.4696,50.2957
1085,3.5638,-7.2809,-4.2152,110.1913,13.2174,50.0174
1090,3.7554,-6.936,-5.1349,102.6783,21.4957,50.2261
1095,3.7171,-6.7061,-5.863,96.1391,31.2348,50.4348
1100,3.7554,-6.5528,-6.936,90.087,44.1043,50.3652
1105,4.1769,-6.3229,-8.2389,86.6783,55.3043,49.5304
1110,4.5218,-6.2845,-9.3885,83.8957,67.2,48.2783
1115,5.02,-5.9396,-10.768,80.7652,80.2783,46.6087
1120,5.4415,-5.9013,-11.6494,76.5217,94.8174,45.4957
1125,5.5948,-5.6331,-12.3008,72.2087,109.9826,43.8261
1130,5.9013,-5.748,-12.9139,68.8,125.0783,42.1565
1135,5.8247,-5.863,-12.7607,67.0609,138.8522,40.2087
1140,5.6331,-6.4761,-12.6074,67.9652,150.6783,38.1913
1145,5.1349,-6.8593,-11.8793,73.1826,160.0,35.2
1150,4.5601,-7.1276,-11.3428,81.7391,167.7913,32.8348
1155,4.1769,-7.0509,-10.8446,92.2435,172.7304,32.4174
1160,3.5638,-6.7444,-10.0782,98.713,178.5739,34.0174
1165,2.874,-6.7061,-9.4651,101.9826,185.3217,36.7304
1170,2.1459,-6.2079,-8.6604,102.4696,191.9304,40.6261
1175,1.4945,-5.978,-7.5874,100.313,197.8435,43.9652
1180,0.6514,-5.1349,-6.9743,95.7913,203.2696,48.2087
1185,-0.2682,-4.5984,-6.0163,89.1826,208.6957,52.4522
1190,-1.1113,-3.7937,-4.9816,82.2957,213.7739,57.4609
1195,-2.031,-3.1039,-3.947,76.8696,217.6,62.6087
1200,-2.4908,-2.6058,-3.2189,72.6261,219.2696,70.0522
1205,-3.2572,-1.8011,-2.2609,67.9652,217.113,77.3565
1210,-3.7171,-1.1113,-1.6478,64.6957,211.4087,85.913
1215,-4.4835,-0.115,-0.9963,61.7043,202.2957,95.6522
1220,-5.1732,0.8814,-0.5365,58.713,190.6783,106.9913
1225,-5.4415,2.031,-0.4215,55.8609,177.113,117.287
1230,-5.3648,3.0656,0.0383,53.4957,162.087,126.3304
1235,-4.8284,4.3302,0.115,51.6174,145.6,132.313
1240,-4.3685,4.9816,-0.4598,50.2957,127.513,135.4435
1245,-3.4105,5.978,-0.8814,48.6957,108.7304,135.513
1250,-2.6058,6.4378,-2.1459,44.5913,90.9913,131.8261
1255,-1.916,6.3229,-3.3339,35.2696,71.513,125.0087
1260,-1.4945,5.5948,-4.2152,26.5043,56.487,116.2435
1265,-1.4179,4.5984,-4.7517,20.4522,43.0609,105.3913
1270,-1.1879,3.3339,-5.3648,19.9652,32.6957,94.4
1275,-1.0346,2.4908,-6.0929,23.7913,26.8522,84.4522
1280,-1.0346,1.916,-6.2845,28.6609,24.9043,76.5217
1285,-0.6514,0.843,-6.0929,33.113,25.7391,69.3565
1290,-0.4598,-0.1533,-5.6714,36.9391,28.1739,63.0261
1295,-0.4598,-1.2646,-5.3648,40.2783,32.0696,57.4609
1300,-0.3449,-2.1843,-5.4032,42.7826,37.6348,54.0522
1305,-0.2682,-2.9507,-5.9396,43.2,46.2609,52.5217
1310,-0.1533,-3.7937,-6.1696,40.0696,53.287,53.7739
1315,-0.0383,-4.5218,-6.6677,35.6174,58.2957,55.7913
1320,-0.1533,-5.2499,-6.3229,30.887,59.6174,58.3652
1325,-0.1533,-5.748,-6.3612,27.3391,58.087,59.9652
1330,-0.4215,-6.6677,-6.0546,26.0174,54.8174,61.4957
1335,-0.4215,-7.7407,-5.1349,27.687,50.9913,62.3304
1340,-0.3832,-8.6987,-4.4835,31.9304,47.0957,63.2348
1345,-0.2299,-9.5418,-3.947,38.4,42.5739,63.1652
1350,-0.3449,-10.0016,-3.0273,47.1652,37.4957,63.0261
1355,-0.5365,-10.3465,-2.3375,58.2957,31.2348,62.8174
1360,-1.1879,-10.2698,-1.916,74.5043,26.9913,63.4435
1365,-2.031,-10.0016,-1.4562,89.8087,24.0696,64.0696
1370,-2.7207,-9.4268,-0.9197,105.4609,22.1913,65.7391
1375,-3.6021,-8.967,-0.3832,120.9043,21.913,68.6609
1380,-3.7937,-8.2772,-0.3066,135.7913,24.9043,73.6696
1385,-3.4488,-7.4725,-0.5748,147.7565,30.8174,78.6783
1390,-2.9507,-6.0546,-1.3412,153.4609,37.2174,83.6174
1395,-2.6058,-5.0966,-2.2992,151.3043,42.2261,88.1391
1400,-1.9927,-3.8704,-3.0656,141.4261,45.913,92.9391
1405,-1.5328,-3.1423,-3.6021,129.3217,47.3739,97.8783
1410,-0.7664,-2.9507,-4.2536,118.2609,46.7478,102.5391
1415,0.0383,-2.6441,-5.3265,111.7217,45.4261,107.1304
1420,0.9963,-2.6058,-6.4378,105.3217,42.3652,112.0
1425,1.6095,-2.8357,-6.8977,99.2696,37.0783,116.8696
1430,1.916,-3.2572,-7.2042,95.4435,30.3304,122.2957
1435,2.031,-3.5638,-7.6257,93.6348,23.1652,127.513
1440,1.7627,-3.8704,-7.7407,93.8435,14.7478,132.7304
1445,0.7664,-4.0236,-7.779,94.5391,5.1478,135.9304
1450,-1.4562,-4.8667,-6.7061,96.2783,-8.9043,137.6
1455,-2.9123,-6.2462,-5.2499,101.7043,-26.3652,139.8957
1460,-5.02,-8.3921,-3.2572,110.0522,-51.2,138.6435
1465,-8.0473,-11.6877,-0.2299,121.5304,-76.6609,130.5043
1470,-13.0672,-16.0945,4.1386,135.4435,-104.0696,120.6957
1475,-18.3938,-21.1528,8.967,160.7652,-130.8522,112.3478
1480,-27.514,-31.9208,19.6966,205.4957,-151.6522,108.4522
1485,-38.7035,-53.1503,40.1214,285.4957,-166.1217,107.4087
1490,-50.3146,-80.8559,45.4096,420.7304,-181.8435,107.3391
1495,-76.1425,-90.5892,12.4924,504.487,-186.2261,114.713
1500,-111.6654,-88.0601,-22.3024,353.1826,-153.8087,131.8261
1505,-108.5998,-88.8648,-28.8169,34.5043,-113.7391,97.1826
1510,-66.2175,-76.8322,-27.3224,-217.113,-168.8348,-46.5391
1515,-44.0684,-61.1975,-31.6526,-267.8261,-236.0348,-158.7478
1520,-23.452,-42.8038,-30.5413,-149.0087,-266.6435,-173.9826
1525,-10.5764,-31.7675,-23.7586,28.1043,-277.0783,-133.7739
1530,-3.2955,-24.2951,-15.4814,190.2609,-287.3043,-101.9826
1535,0.6514,-18.7003,-8.1622,311.4435,-299.7565,-85.4261
1540,5.7097,-13.4504,-2.031,393.9478,-306.8522,-65.113
1545,10.8063,-8.3155,2.031,432.6261,-305.3913,-45.3565
1550,12.5691,-3.9087,3.4105,423.7217,-295.3739,-31.2348
1555,18.0105,0.4598,5.5948,373.5652,-274.713,-16.0
1560,21.536,5.6714,8.3538,289.3217,-238.1217,-5.0087
1565,22.8772,8.4688,11.9559,166.9565,-184.7652,1.3913
1570,21.3827,11.3811,11.9943,89.1826,-151.7217,1.5304
1575,22.5707,13.1439,10.9596,28.9391,-131.2696,2.2261
1580,19.8882,13.2971,6.7444,-5.2174,-115.7565,2.9217
1585,14.4851,12.4158,0.6898,-12.8,-111.513,5.3565
1590,9.4268,11.4961,-3.8704,-7.2348,-119.5826,7.8609
1595,8.2772,9.3118,-6.2079,0.2087,-132.5913,4.1043
1600,3.2189,7.0126,-7.1276,11.687,-137.4609,-7.3739
1605,-1.8394,4.1003,-6.821,25.7391,-137.8783,-14.4
1610,-4.8667,0.3449,-7.0126,43.7565,-142.8174,-23.0957
1615,-6.3229,-3.0656,-5.6714,64.6261,-144.8348,-39.1652
1620,-5.978,-6.0546,-5.5181,87.3043,-141.3565,-56.0696
1625,-6.7061,-8.6987,-4.9816,113.8783,-133.0783,-78.1913
1630,-7.7407,-10.653,-4.4068,140.313,-122.3652,-93.3565
1635,-8.8137,-13.3738,-3.4488,164.1043,-111.7913,-93.8435
1640,-8.9286,-15.7113,-1.9543,184.9739,-101.6348,-82.3652
1645,-8.967,-17.3208,-0.3832,203.2696,-93.1478,-67.9652
1650,-8.1239,-17.8573,0.6898,216.0,-86.9565,-56.4174
1655,-7.0126,-17.1292,0.7664,220.5217,-85.7739,-50.5043
1660,-5.5948,-15.1748,0.1916,212.1739,-92.1043,-49.6
1665,-5.2116,-11.9559,-0.6131,191.0957,-108.5217,-53.4261
1670,-5.02,-9.3118,-0.958,160.2783,-125.7739,-56.4174
1675,-3.0273,-6.0929,-1.6095,140.3826,-141.8435,-57.7391
1680,-2.6058,-3.2572,-0.843,126.6783,-151.3739,-59.3391
1685,-2.1076,-0.4215,-0.6131,118.6087,-162.0174,-57.6
1690,1.1879,1.9927,-1.1879,112.8348,-172.8,-53.2174
1695,2.989,4.062,0.5748,107.4087,-177.1826,-51.1304
1700,4.9816,5.3648,2.2226,110.6087,-179.9652,-48.487
1705,6.4761,5.5181,3.2572,124.3826,-178.0174,-42.9217
1710,8.2389,5.2116,4.062,138.9913,-171.5478,-36.8
1715,9.1586,4.4835,5.5181,150.9565,-159.1652,-35.8261
1720,8.5071,3.2572,7.5108,162.1565,-144.0696,-36.8
1725,8.6221,1.0346,8.967,169.1826,-132.6609,-35.687
1730,9.7717,-1.6478,10.5764,175.7217,-119.0261,-36.0348
1735,10.3465,-4.79,12.0326,184.3478,-101.2174,-39.6522
1740,10.5381,-7.6257,13.7187,196.0348,-79.5826,-45.8435
1745,10.0016,-9.5801,14.2552,210.4348,-55.3739,-53.8435
1750,8.0856,-11.5727,14.83,226.0174,-31.1652,-59.4783
1755,6.3229,-13.1055,15.0216,237.3565,-13.4261,-56.0
1760,5.2116,-13.2588,14.6,240.4174,-1.9478,-48.6261
1765,3.8704,-12.6457,14.2168,235.9652,4.8,-42.5043
1770,3.0656,-11.0363,13.4888,223.6522,7.0957,-40.2087
1775,1.7627,-9.1586,12.9906,211.4783,6.4696,-39.1652
1780,1.916,-7.5108,12.3008,200.0696,4.9391,-38.1913
1785,1.8777,-6.3612,11.841,190.0522,5.7739,-39.0261
1790,2.031,-5.02,11.1512,181.0087,9.0435,-40.9739
1795,2.3375,-3.7171,10.8063,172.4522,15.7217,-43.8261
1800,2.7207,-2.4142,10.653,165.0087,24.9043,-46.0522
1805,3.4105,-1.0346,10.5381,158.3304,34.713,-46.8174
1810,4.2919,0.2682,10.768,152.1391,42.9217,-46.1913
1815,4.9433,1.7627,10.9979,146.9217,48.5565,-45.1478
1820,5.5564,3.1423,11.4961,142.9565,52.313,-44.0348
1825,6.0163,4.1769,11.5727,139.4087,52.9391,-42.9217
1830,6.7061,5.5181,11.6494,137.3913,52.7304,-40.4174
1835,6.1696,5.9013,10.6147,136.2783,51.8261,-35.7565
1840,5.4032,6.2079,10.0782,131.9652,50.7826,-33.6
1845,4.5218,6.1313,9.6567,124.9391,48.9739,-32.7652
1850,4.1386,5.6714,9.1586,116.9391,46.5391,-32.0696
1855,3.8704,4.905,9.0819,108.5913,45.3565,-31.3739
1860,3.2955,4.2152,9.0053,100.8,46.3304,-30.5391
1865,2.9123,3.4105,8.9286,93.2174,48.0696,-29.2174
1870,2.7207,2.4142,9.0819,84.3826,50.713,-27.1304
1875,2.2992,1.3412,9.4651,72.487,52.6609,-25.6696
1880,1.9543,0.1533,9.7334,63.1652,54.7478,-24.5565
1885,1.6478,-0.7281,9.6567,56.3478,57.8783,-23.4435
1890,1.1113,-1.073,9.5034,52.5217,61.7043,-22.887
1895,0.2299,-0.7281,9.0436,49.8783,65.113,-22.1217
1900,-0.115,-0.7664,8.6221,46.1217,66.3652,-20.5913
1905,-0.3449,-0.2682,8.3921,41.7391,66.713,-19.1304
1910,-0.6898,0.4982,8.3538,36.0348,66.7826,-16.4174
1915,-0.7664,1.4179,8.3538,29.4261,65.8783,-11.687
1920,-0.4598,2.4908,8.2005,22.0522,64.0,-4.0348
1925,-0.1916,3.5255,8.0856,13.6348,62.0522,1.5304
1930,-0.1916,4.4452,8.0089,7.1652,60.7304,6.0522
1935,0.0766,5.1732,8.4305,0.4174,59.3391,10.6435
1940,0.7664,5.4415,8.852,-6.3304,57.3913,14.2609
1945,1.3795,5.5564,9.3502,-12.0348,55.0957,15.1652
1950,1.3029,5.4798,9.7717,-16.487,52.1043,13.6348
1955,1.1496,5.2499,10.0782,-19.8957,47.7913,11.5478
1960,1.2263,4.8284,10.1932,-22.6087,43.2696,10.0174
1965,1.073,4.5601,10.2315,-25.1826,40.2087,8.0696
1970,0.843,4.1769,10.0016,-27.7565,37.3565,6.2609
1975,0.6131,3.6404,9.81,-30.3304,34.2261,4.8696
1980,0.2299,3.3722,9.81,-31.7217,32.4174,4.313
1985,-0.0383,3.1423,9.7334,-31.2348,31.0261,4.5913
1990,-0.3449,2.7591,9.5418,-29.4957,30.1217,4.6609
1995,-0.6898,2.3759,9.6184,-26.9913,29.4261,4.8696
2000,-1.1879,2.3375,9.3885,-23.9304,28.5217,5.287
2005,-1.5328,2.3375,9.5034,-21.7043,27.2696,5.7739
2010,-1.8777,2.5675,9.5418,-20.1739,25.3913,6.1217
2015,-1.9927,2.6824,9.4268,-19.8957,23.7913,6.1217
2020,-1.9927,2.7591,9.4268,-21.4261,22.4,4.9391
2025,-2.2609,3.0656,9.5034,-24.5565,20.3826,2.713
2030,-2.5675,3.0273,9.7334,-28.313,18.0174,1.2522
2035,-2.6058,2.8357,9.925,-29.913,16.0,0.3478
2040,-2.8357,2.6441,10.1932,-29.8435,13.8435,-0.7652
2045,-2.7207,2.4525,10.3465,-28.4522,11.3391,-1.7391
2050,-2.7207,2.2609,10.2315,-26.087,8.7652,-2.9913
2055,-2.5291,2.2226,10.2315,-23.4435,6.2609,-4.5913
2060,-2.5675,1.9543,10.2315,-20.3826,4.0348,-5.7739
2065,-2.1843,1.6861,10.1549,-17.8783,2.087,-6.3304
2070,-2.2609,1.4562,10.0016,-16.6957,0.5565,-7.3739
2075,-2.1459,1.3795,9.7717,-16.3478,-0.5565,-8.487
2080,-1.9927,0.9963,9.4651,-16.6957,-0.2783,-9.0435
2085,-2.1076,0.843,9.2735,-17.1826,1.5304,-9.1826
2090,-2.2226,0.5365,9.3118,-16.5565,4.0348,-9.0435
2095,-2.4908,0.2682,9.5034,-14.3304,6.2609,-8.2783
2100,-2.9123,0.1916,9.4268,-10.713,7.8609,-6.8174
2105,-3.2189,-0.0766,9.5801,-6.887,8.4174,-3.9652
2110,-3.4488,-0.3066,9.6567,-3.2,7.9304,-1.1826
2115,-3.4105,-0.3832,9.9633,0.4174,6.8174,1.2522
2120,-3.4488,-0.4982,10.1549,4.0348,5.3565,2.7826
2125,-3.4105,-0.5365,10.3465,6.887,3.8957,3.8261
2130,-3.3722,-0.5748,10.3082,9.3217,2.4348,4.6609
2135,-3.3722,-0.5748,10.2698,11.687,1.4609,5.3565
2140,-3.2572,-0.6514,10.2698,13.5652,0.8348,5.3565
2145,-3.1423,-0.6898,10.2315,15.4435,0.4174,4.9391
2150,-2.9507,-0.6131,10.1166,17.4609,0.2783,4.3826
2155,-2.7974,-0.8814,10.0782,19.1304,0.2087,4.1043
2160,-2.874,-0.8814,9.9633,20.5217,0.1391,3.5478
2165,-2.9123,-0.958,9.925,21.287,-0.4174,3.2
2170,-2.874,-0.9963,9.81,21.0087,-1.3217,3.2
2175,-2.989,-1.1496,9.4651,19.3391,-2.6435,2.9913
2180,-2.7974,-1.3412,9.5034,16.487,-3.8957,1.5304
2185,-2.874,-1.6861,9.3118,13.3565,-4.4522,0.9043
2190,-2.6824,-2.1076,9.0436,11.6174,-4.6609,0.0
2195,-2.4908,-2.1459,9.1202,10.5739,-4.7304,-0.3478
2200,-2.0693,-2.4908,8.7754,10.3652,-5.287,-1.113
2205,-1.8394,-2.6824,8.5071,10.9913,-6.7478,-1.6696
2210,-1.6861,-2.8357,8.3538,11.4087,-9.3217,-2.8522
2215,-1.7244,-2.9123,8.3155,11.7565,-12.7304,-4.1739
2220,-1.6861,-3.0273,7.8173,11.2696,-17.2522,-4.9391
2225,-1.5711,-3.2189,7.5491,9.3217,-22.1913,-4.8
2230,-1.1496,-3.2955,7.4725,6.4696,-26.9217,-3.8261
2235,-1.073,-3.5638,7.3192,3.1304,-31.0261,-2.2957
2240,-1.1113,-3.7937,7.3192,1.8087,-33.8087,-0.6261
2245,-1.0346,-3.9853,7.1659,2.2957,-35.6174,2.0174
2250,-1.2646,-3.832,7.2809,4.0348,-36.313,4.6609
2255,-1.1113,-3.832,7.2425,6.4,-36.1739,7.3739
2260,-0.7664,-3.7171,7.5491,8.9043,-34.5043,8.9043
2265,-0.3832,-3.2955,7.6257,11.3391,-31.3043,9.9478
2270,0.0766,-3.0273,7.779,13.1478,-27.3391,10.087
2275,0.4598,-2.6441,8.0856,14.7478,-22.9565,9.6696
2280,0.6898,-2.2992,8.3155,16.3478,-18.5739,8.1391
2285,0.8047,-2.031,8.5838,18.6435,-13.0087,7.2348
2290,0.843,-1.5328,8.967,20.8,-8.7652,5.913
2295,0.843,-1.2646,9.0436,22.7478,-5.1478,5.3565
2300,0.8814,-1.073,8.967,23.8609,-2.6435,4.0348
2305,0.958,-0.8814,9.1969,23.7217,-0.9739,2.7826
2310,0.958,-0.7664,9.2735,23.0261,0.5565,1.8783
2315,0.9197,-0.6898,9.1969,21.7043,1.7391,1.6
2320,0.9963,-0.6514,9.3885,19.8957,2.713,1.7391
2325,0.958,-0.7664,9.3118,17.6696,3.2,2.713
2330,0.8047,-0.8814,9.6184,14.7478,3.4087,4.0348
2335,0.843,-0.8047,9.5801,11.687,3.1304,6.5391
2340,0.843,-0.958,9.695,7.513,2.8522,8.487
2345,0.843,-1.1879,9.6184,3.6174,2.3652,10.7826
2350,0.8814,-1.3795,9.5034,-0.4174,1.9478,12.8696
2355,0.8814,-1.4945,9.6184,-4.5913,1.1826,14.8174
2360,0.7281,-1.6478,9.5801,-8.5565,-0.0696,15.4435
2365,0.7281,-1.7244,9.4651,-11.687,-1.3913,15.8609
2370,0.6514,-1.8394,9.4651,-13.6348,-2.9217,15.513
2375,0.6898,-1.8011,9.3118,-14.887,-4.313,15.0261
2380,0.8814,-1.916,9.1202,-15.4435,-5.5652,13.6348
2385,0.9963,-1.8777,9.0819,-16.0,-6.6087,11.7565
2390,0.8814,-1.9543,9.0436,-16.3478,-7.5826,9.6696
2395,1.0346,-1.8011,8.967,-16.3478,-7.8609,7.7217
2400,1.1879,-1.916,8.9286,-16.0,-7.6522,5.3565
2405,1.3795,-1.916,8.6987,-15.3043,-6.7478,3.3391
2410,1.2646,-1.7244,8.737,-14.2609,-5.4261,1.0435
2415,1.3795,-1.916,8.3921,-13.4261,-3.6174,-1.0435
2420,1.3029,-1.6095,8.4305,-12.8,-1.6,-3.1304
2425,1.3029,-1.6861,8.4305,-12.2435,0.3478,-4.8
2430,1.2263,-1.5328,8.4305,-11.687,2.3652,-6.4696
2435,1.2646,-1.5328,8.3538,-11.1304,4.3826,-7.5826
2440,0.958,-1.4945,8.3921,-10.6435,6.6783,-8.487
2445,0.9963,-1.4562,8.3538,-10.1565,8.487,-8.5565
2450,0.9197,-1.4562,8.4305,-9.7391,10.1565,-8.5565
2455,0.9197,-1.4179,8.3155,-9.113,11.7565,-8.2087
2460,0.6898,-1.3412,8.5454,-8.2087,13.4957,-7.8609
2465,0.6898,-1.1496,8.6987,-7.0261,14.8174,-7.0957
2470,0.4982,-1.1113,8.6987,-5.4957,16.2783,-6.6783
2475,0.4982,-0.9197,8.7754,-4.0348,17.6696,-5.6348
2480,0.3449,-0.7664,8.852,-2.2261,19.0609,-4.8696
2485,0.2682,-0.6898,9.0053,-0.6261,20.2435,-3.8261
2490,0.1533,-0.6131,9.0819,1.0435,21.4957,-2.9913
2495,0.0383,-0.5365,9.0436,2.5739,22.1217,-1.9478
2500,-0.115,-0.4598,9.2735,3.4783,22.5391,-1.4609
2505,0.0,-0.3066,9.3885,4.0348,22.6087,-0.6261
2510,-0.3066,-0.2299,9.4268,4.4522,22.4696,-0.2783
2515,-0.3832,-0.1533,9.5034,4.5217,22.1913,0.2783
2520,-0.3832,-0.2682,9.6567,4.1739,21.4957,0.5565
2525,-0.4215,-0.1533,9.3885,3.3391,20.3826,1.0435
2530,-0.5748,-0.115,9.6184,2.2261,19.2,1.113
2535,-0.4982,-0.3066,9.6184,1.113,18.087,1.4609
2540,-0.8047,-0.3066,9.7717,-0.1391,16.5565,1.113
2545,-0.8814,-0.1916,9.7334,-1.3913,15.3043,1.0435
2550,-0.8047,-0.3066,9.7334,-2.087,14.0522,0.6957
2555,-0.958,-0.4598,9.5801,-2.6435,12.8,0.487
2560,-0.9963,-0.3066,9.4268,-2.8522,11.7565,-0.0696
2565,-0.9197,-0.2682,9.5034,-2.8522,10.8522,-0.487
2570,-1.073,-0.2682,9.3502,-2.8522,9.8783,-1.1826
2575,-1.1113,-0.3066,9.3885,-2.713,9.113,-1.6
2580,-1.0346,-0.3449,9.4651,-2.5739,8.6261,-2.2957
2585,-1.1113,-0.3066,9.3502,-2.3652,8.1391,-2.4348
2590,-1.0346,-0.2682,9.2735,-2.2957,7.8609,-2.9913
2595,-1.0346,-0.3066,9.1969,-2.1565,7.5826,-2.8522
2600,-1.2263,-0.6131,9.3502,-1.8783,7.4435,-3.0609
2605,-1.1113,-0.4982,9.2735,-1.6,7.2348,-2.7826
2610,-0.958,-0.4598,9.2735,-1.3217,7.1652,-2.713
2615,-0.9963,-0.6898,9.1202,-1.0435,6.9565,-2.2957
2620,-0.958,-0.6514,9.1586,-0.6957,6.887,-2.087
2625,-0.9197,-0.8047,9.1586,-0.5565,6.7478,-1.5304
2630,-0.9197,-1.0346,9.1969,-0.4174,6.6087,-1.0435
2635,-0.9963,-0.9963,9.0436,-0.4174,6.5391,-0.2087
2640,-0.8814,-1.1113,9.1969,-0.487,6.2609,0.2087
2645,-0.843,-1.1496,9.1202,-0.4174,6.0522,0.9043
2650,-0.958,-1.073,8.8903,-0.2087,5.9826,1.3217
2655,-1.0346,-1.1879,9.0436,-0.2087,5.8435,1.8783
2660,-0.9963,-1.1496,8.8903,0.0696,5.8435,2.2957
2665,-0.8814,-1.1496,9.0053,0.3478,5.7043,2.713
2670,-0.9963,-1.1113,8.967,0.6261,5.6348,2.7826
2675,-0.9197,-1.073,9.0436,0.9739,5.4957,3.0609
2680,-0.9963,-1.0346,9.0053,1.3217,5.3565,2.9217
2685,-0.9197,-1.073,9.0053,1.4609,5.287,2.9913
2690,-0.958,-1.073,8.967,1.6696,5.0087,2.7826
2695,-0.7281,-1.0346,9.0053,2.0174,4.5913,2.7826
2700,-0.7664,-1.0346,9.0819,2.087,4.1739,2.6435
2705,-0.8047,-1.0346,9.0436,2.1565,3.7565,2.713
2710,-0.6898,-0.9963,9.0053,2.1565,3.3391,2.4348
2715,-0.7664,-0.843,9.0053,2.2261,2.8522,2.4348
2720,-0.7281,-0.8047,9.0819,2.1565,2.4348,2.0174
2725,-0.6898,-0.8814,9.0436,1.7391,1.8087,1.9478
2730,-0.6514,-0.843,9.0819,1.5304,1.1826,1.4609
2735,-0.6898,-0.843,9.1202,1.1826,0.6957,1.3217
2740,-0.6131,-0.9197,8.967,0.6957,0.0696,0.8348
2745,-0.5365,-0.8814,9.0436,0.2087,-0.3478,0.5565
2750,-0.4982,-0.8814,9.1586,-0.2783,-0.8348,0.1391
2755,-0.4598,-1.073,9.0053,-0.5565,-1.3217,-0.2087
2760,-0.4982,-0.958,9.1586,-1.0435,-1.2522,-0.3478
2765,-0.4598,-0.9963,9.1969,-1.2522,-1.2522,-0.3478
2770,-0.4598,-1.073,9.0819,-1.4609,-1.2522,-0.487
2775,-0.3832,-1.0346,9.0819,-1.6696,-1.113,-0.6261
2780,-0.3832,-0.958,9.1202,-1.9478,-0.8348,-0.8348
2785,-0.1533,-1.2646,9.0436,-2.087,-0.6261,-0.8348
2790,-0.3449,-1.1879,9.2735,-2.087,-0.2783,-0.9043
2795,-0.1916,-1.1113,9.0436,-2.2261,0.2087,-0.8348
2800,-0.1916,-1.0346,9.0436,-2.1565,0.7652,-0.9043
2805,-0.1533,-1.0346,8.967,-2.0174,1.2522,-0.6957
2810,-0.1533,-1.2263,8.967,-2.087,1.7391,-0.6261
2815,0.0383,-1.2263,9.1586,-2.0174,2.2261,-0.487
2820,-0.0766,-1.2263,9.0819,-2.1565,2.5739,-0.487
2825,-0.0766,-1.1113,9.0819,-2.3652,2.9217,-0.2783
2830,-0.0383,-1.2263,9.0819,-2.5043,3.1304,-0.487
2835,-0.0766,-0.9963,9.0819,-2.7826,3.687,-0.2783
2840,0.0,-1.1113,9.0053,-2.9913,3.8261,-0.4174
2845,-0.0766,-1.073,8.967,-2.9913,4.1043,-0.2087
2850,-0.1533,-1.0346,9.0819,-2.9217,4.2435,-0.4174
2855,-0.1916,-0.9963,9.0436,-2.8522,4.313,-0.3478
2860,-0.0766,-1.1113,9.0436,-2.3652,4.5913,-0.487
2865,-0.0383,-0.8814,9.1969,-2.087,4.5913,-0.487
2870,-0.1533,-0.9963,9.1202,-1.6,4.7304,-0.6261
2875,-0.0383,-0.8814,9.3118,-1.2522,4.6609,-0.6957
2880,-0.115,-0.958,9.1202,-0.9739,4.7304,-0.9043
2885,-0.0383,-0.8047,9.0819,-0.8348,4.8,-0.8348
2890,-0.1916,-0.8047,9.1586,-0.6261,4.8,-0.9739
2895,-0.0766,-0.8814,9.1202,-0.5565,4.7304,-0.9043
2900,-0.0766,-0.7664,9.2352,-0.2783,4.8,-1.0435
2905,-0.0383,-0.8814,9.0819,0.0,5.0087,-1.0435
2910,-0.115,-0.8814,9.1969,0.0696,4.9391,-1.0435
2915,-0.2299,-0.9197,8.967,0.2087,5.0087,-0.9043
2920,-0.1916,-0.8047,9.0819,0.1391,4.8696,-1.0435
2925,-0.1533,-0.9197,9.0053,0.0,4.8,-0.9739
2930,-0.2682,-0.9197,9.1202,-0.0696,4.9391,-0.9739
2935,-0.3832,-0.8047,9.0436,-0.3478,4.8,-0.6957
2940,-0.3066,-0.843,9.0436,-0.3478,4.8696,-0.7652
2945,-0.3832,-0.8814,9.0053,-0.487,4.8,-0.6261
2950,-0.3449,-0.9197,9.0819,-0.5565,4.9391,-0.6957
2955,-0.3449,-0.9197,8.967,-0.6261,5.2174,-0.487
2960,-0.3832,-0.9197,8.9286,-0.5565,5.4957,-0.4174
2965,-0.3832,-0.843,9.0819,-0.3478,5.9826,-0.4174
2970,-0.3449,-0.8814,9.0436,-0.2087,6.2609,-0.5565
2975,-0.4215,-0.843,9.1202,-0.0696,6.3304,-0.5565
2980,-0.3449,-0.843,9.1202,0.0,6.5391,-0.7652
2985,-0.4215,-0.9197,9.0819,0.0696,6.6087,-0.6957
2990,-0.4215,-0.8814,9.0053,0.0696,6.6783,-0.9043
2995,-0.4598,-0.7664,9.1969,0.0,6.6087,-0.7652
