timestamp,accX,accY,accZ,gyroX,gyroY,gyroZ
0,-0.5365,-9.2352,-2.874,-31.9304,5.287,1.3217
5,-0.4982,-9.3118,-2.9507,-32.9043,4.8,1.4609
10,-0.4598,-9.5034,-3.1039,-33.113,4.5217,1.5304
15,-0.4215,-9.695,-3.1423,-32.0696,4.3826,1.8087
20,-0.3832,-9.6567,-3.0273,-30.5391,4.1739,2.5043
25,-0.4215,-9.5801,-3.0656,-29.6348,4.1739,3.3391
30,-0.4598,-9.5801,-3.1039,-29.8435,3.8261,3.8261
35,-0.3066,-9.5034,-2.6441,-30.3304,3.1304,4.313
40,-0.2682,-9.3502,-3.1039,-30.3304,2.2957,5.0087
45,-0.3066,-9.2735,-3.0656,-30.6783,2.1565,5.3565
50,-0.0383,-9.1969,-3.1039,-31.0261,2.3652,5.5652
55,-0.0766,-9.0819,-2.9507,-31.7913,2.8522,6.1217
60,-0.0766,-9.0436,-3.2189,-33.3217,3.0609,6.6783
65,-0.1916,-9.0819,-3.1423,-35.2696,2.9913,7.3043
70,-0.1916,-9.3118,-3.2955,-37.2174,2.5739,7.7217
75,-0.3066,-9.3885,-3.2955,-38.4,2.3652,7.9304
80,-0.2299,-9.695,-3.4488,-38.4,2.3652,7.7217
85,-0.2682,-9.8483,-3.5255,-37.5652,2.5739,6.9565
90,-0.3449,-9.6567,-3.5638,-36.5217,2.5739,6.3304
95,-0.2299,-9.9633,-3.5255,-35.687,2.2957,5.5652
100,-0.3066,-10.0016,-3.4105,-35.8957,2.1565,4.313
105,-0.1916,-10.0399,-3.3339,-35.8261,2.0174,3.6174
110,-0.1916,-10.0399,-3.4488,-35.687,2.2261,3.4087
115,0.0,-10.1549,-3.5255,-34.9913,2.713,3.4783
120,-0.0383,-10.0782,-3.5638,-34.0174,3.5478,3.5478
125,-0.115,-9.925,-3.5638,-32.6957,4.4522,3.687
130,-0.0766,-9.5801,-3.5255,-31.3043,4.6609,3.8261
135,0.0766,-9.4268,-3.7554,-30.2609,5.0783,4.0348
140,-0.115,-9.2735,-3.6404,-29.0783,5.7043,4.1739
145,-0.3832,-9.1202,-3.7937,-28.8696,6.4696,4.313
150,-0.4982,-8.852,-3.6021,-29.913,6.4696,4.5217
155,-0.6514,-8.9286,-3.7554,-32.487,6.1913,4.5217
160,-0.6131,-9.2352,-3.6404,-35.4087,5.913,4.5913
165,-0.4598,-9.3502,-3.6787,-37.7043,5.7739,4.6609
170,-0.3449,-9.4651,-3.6787,-38.1913,5.9826,4.7304
175,-0.3449,-9.5034,-3.6787,-38.1217,6.6783,4.7304
180,-0.4215,-9.3885,-3.4488,-38.7478,7.0261,4.7304
185,-0.1533,-9.5034,-3.7171,-39.7913,6.7478,4.5913
190,-0.1533,-9.4268,-3.7937,-41.0435,6.1913,4.3826
195,-0.1533,-9.5418,-3.9087,-41.2522,5.5652,4.5217
200,-0.3066,-9.5801,-3.832,-40.5565,5.1478,5.0783
205,-0.0383,-9.4268,-4.1769,-39.7217,5.287,5.7739
210,-0.115,-9.4651,-4.2152,-38.9565,5.8435,6.4
215,-0.1916,-9.5034,-4.1386,-38.5391,6.4,6.8174
220,-0.2299,-9.3118,-4.0236,-38.1913,6.4,7.0957
225,-0.2299,-9.1969,-3.7937,-37.4957,6.0522,7.513
230,0.3066,-9.3885,-4.0236,-35.5478,5.7739,8.3478
235,0.115,-9.3118,-4.062,-33.9478,6.4696,7.7913
240,0.0,-9.3118,-4.1769,-32.6957,7.0261,7.3739
245,-0.2299,-9.2352,-4.1769,-32.0,7.3043,6.887
250,-0.2299,-9.1586,-4.2152,-32.487,7.0261,6.6087
255,-0.3832,-9.3118,-4.1386,-33.5304,6.887,6.3304
260,-0.2299,-9.3885,-4.2536,-34.2261,6.887,5.9826
265,-0.2682,-9.3118,-4.4068,-34.087,7.513,5.6348
270,-0.3449,-9.3885,-4.2152,-34.087,7.7913,5.4957
275,-0.4982,-9.2352,-4.2536,-34.713,7.7217,5.3565
280,-0.5365,-9.1202,-4.4068,-35.6174,7.0957,5.6348
285,-0.4215,-9.1969,-4.3685,-36.1043,6.1913,6.0522
290,-0.3832,-9.1969,-4.3685,-36.0348,5.2174,6.6783
295,-0.4215,-9.1202,-4.4068,-35.1304,4.9391,7.3043
300,-0.4598,-9.0819,-4.4835,-34.0174,4.9391,8.0
305,-0.4598,-8.852,-4.5218,-33.9478,5.0087,8.3478
310,-0.3449,-8.6221,-4.1769,-34.6435,5.0087,8.2783
315,-0.2299,-8.6221,-4.4452,-35.8261,5.0783,8.0696
320,-0.3449,-8.5071,-4.3685,-36.3826,5.1478,7.8609
325,-0.3832,-8.5071,-4.2919,-36.313,4.7304,7.7217
330,-0.6131,-8.4688,-4.4835,-35.6174,4.0348,7.513
335,-0.5748,-8.3155,-4.5984,-36.5913,2.7826,6.6783
340,-0.7664,-8.1239,-4.5601,-38.6087,1.8783,5.4957
345,-0.7281,-8.5071,-4.7517,-40.5565,1.3913,4.3826
350,-0.6898,-8.5454,-4.7134,-42.0174,1.2522,3.4087
355,-0.4982,-8.737,-4.6751,-42.4348,1.3913,2.713
360,-0.2682,-8.737,-4.6751,-42.713,1.6696,2.5043
365,-0.3832,-8.6604,-4.7134,-43.3391,1.8783,2.6435
370,-0.4215,-8.6604,-4.5984,-44.6609,1.7391,2.9217
375,-0.3449,-8.6987,-4.8284,-45.6348,1.0435,3.3391
380,-0.4982,-8.852,-4.6368,-45.2174,0.1391,3.4783
385,-0.5748,-8.6987,-4.5984,-44.6609,-1.1826,3.6174
390,-0.5748,-8.5838,-4.7517,-45.4957,-2.713,3.7565
395,-0.6131,-8.5071,-4.5218,-47.2348,-4.2435,4.2435
400,-1.073,-8.1239,-4.3302,-49.113,-5.4957,5.0087
405,-0.6131,-8.5454,-4.9816,-49.5304,-6.9565,6.1217
410,-0.5748,-8.8903,-4.905,-48.9739,-7.4435,6.1217
415,-0.3066,-8.967,-5.1732,-46.9565,-7.3739,6.1217
420,-0.6514,-9.0436,-5.3265,-44.5913,-6.8174,5.913
425,-0.5365,-9.0053,-5.2882,-42.8522,-6.887,5.4957
430,-0.4982,-8.8137,-5.2882,-41.8087,-7.4435,5.0087
435,-0.4215,-8.6604,-5.0583,-41.1826,-8.0696,4.5913
440,-0.5365,-8.4305,-4.905,-40.2783,-8.4174,4.1043
445,-0.5748,-8.1239,-4.7134,-39.8609,-8.6261,3.6174
450,-0.6131,-7.7407,-4.7517,-40.6957,-8.8348,3.5478
455,-0.5748,-7.6257,-5.0583,-43.0609,-9.2522,3.6174
460,-0.5748,-7.4725,-4.905,-46.1913,-9.6,3.4087
465,-0.7281,-7.894,-5.0966,-49.4609,-10.2957,3.3391
470,-0.6514,-8.0473,-4.5984,-51.4783,-11.1304,3.2
475,-0.6898,-8.3921,-4.9816,-52.1043,-11.8261,2.9913
480,-0.6898,-8.4688,-5.02,-52.1739,-13.0783,3.2
485,-0.6514,-8.4688,-5.0966,-52.8696,-14.2609,3.8261
490,-0.843,-8.5454,-5.1349,-53.5652,-15.3043,4.5913
495,-0.8047,-8.5454,-5.2116,-54.3304,-16.6261,4.8
500,-0.9197,-8.737,-5.02,-54.1217,-17.8087,4.8696
505,-0.9963,-9.0053,-5.0966,-52.6609,-18.8522,4.3826
510,-1.1496,-9.0053,-5.1732,-51.0609,-20.0348,4.0348
515,-1.1113,-8.7754,-5.1732,-49.6,-21.4261,3.7565
520,-0.9963,-8.7754,-5.0966,-48.6957,-22.8174,3.6174
525,-0.7664,-8.7754,-5.5181,-47.3739,-24.2087,3.7565
530,-0.843,-8.9286,-5.2882,-45.8435,-25.2522,3.8261
535,-0.8047,-8.8903,-5.3265,-44.0348,-26.087,3.4087
540,-0.7664,-8.5071,-5.5181,-42.5043,-26.5043,3.2696
545,-0.7664,-8.2005,-5.4415,-41.8087,-27.1304,3.6174
550,-0.6898,-7.7407,-5.4798,-42.2261,-27.5478,4.0348
555,-0.6131,-7.5491,-5.6331,-43.687,-28.1739,4.5217
560,-0.3832,-7.7407,-5.4798,-45.6348,-29.1478,5.0783
565,-0.6131,-7.5491,-5.4415,-47.3043,-29.9826,4.9391
570,-0.6131,-7.6257,-5.1732,-48.1391,-30.887,4.313
575,-0.4982,-7.6641,-5.3648,-48.5565,-31.6522,4.0348
580,-0.7664,-7.6257,-5.2499,-48.487,-32.0696,3.7565
585,-0.6514,-7.779,-5.4415,-48.1391,-32.8348,3.6174
590,-0.7281,-7.6257,-5.4798,-48.1391,-33.2522,2.9913
595,-0.7281,-7.779,-5.3265,-48.0696,-33.5304,2.087
600,-0.6898,-7.779,-5.3648,-48.1391,-33.6,1.3913
605,-0.7281,-7.7024,-5.2499,-47.9304,-33.7391,0.6957
610,-0.6131,-7.5874,-5.5948,-47.7217,-33.5304,-0.487
615,-0.5748,-7.6641,-5.6331,-47.513,-32.8348,-1.4609
620,-0.6131,-7.6641,-5.7097,-46.6783,-31.9304,-2.5043
625,-0.4598,-7.4341,-5.4415,-44.9391,-30.7478,-3.1304
630,-0.4982,-7.3575,-5.9013,-43.2,-29.8435,-3.4783
635,-0.4215,-7.0509,-5.7864,-42.9913,-28.3826,-4.2435
640,-0.2682,-6.9743,-6.0163,-44.5217,-27.0609,-4.3826
645,-0.1533,-6.8977,-5.9396,-46.4,-25.6,-3.7565
650,-0.1916,-6.8593,-6.0929,-47.8609,-24.0696,-2.9217
655,-0.2299,-6.821,-5.863,-49.3913,-22.6783,-2.4348
660,-0.3832,-6.8593,-6.0163,-50.4348,-21.8435,-2.3652
665,-0.3449,-6.8593,-5.978,-51.1304,-20.8696,-2.4348
670,-0.5365,-6.8593,-6.1313,-51.6174,-19.8261,-2.087
675,-0.5748,-7.0509,-6.1696,-51.2,-18.5043,-1.113
680,-0.7664,-7.0509,-6.4378,-50.4348,-16.7652,-0.3478
685,-0.7664,-7.3192,-6.3995,-50.087,-15.3043,0.6957
690,-0.843,-7.3192,-6.4378,-49.8087,-14.1913,1.4609
695,-0.958,-7.5874,-6.5145,-49.2522,-13.0087,1.8087
700,-0.958,-7.4341,-6.7444,-48.1391,-11.3391,1.6
705,-0.9197,-7.4725,-6.7061,-47.4435,-9.6,0.9043
710,-0.7281,-7.3958,-6.821,-47.0957,-7.3739,0.4174
715,-0.7281,-6.936,-6.6294,-46.887,-5.2174,0.0696
720,-0.6514,-6.7061,-6.7444,-47.513,-3.5478,0.2783
725,-0.4598,-6.7827,-6.6677,-48.4174,-2.087,0.6261
730,-0.6131,-6.7061,-6.7827,-48.9739,-0.5565,1.8087
735,-0.8814,-6.8593,-6.821,-49.1826,0.6261,2.7826
740,-0.843,-6.936,-7.0126,-49.2522,2.087,2.7826
745,-0.9197,-7.1276,-7.0509,-49.0435,3.5478,2.8522
750,-1.1113,-7.1276,-7.0893,-48.8348,5.2174,3.3391
755,-1.2646,-7.2042,-7.0893,-48.8348,6.9565,4.1739
760,-1.4179,-7.2809,-6.9743,-48.6957,8.6261,5.4261
765,-1.4179,-7.3192,-6.821,-48.7652,10.087,6.9565
770,-1.4562,-7.1276,-6.7061,-48.8348,10.713,8.7652
775,-1.6095,-7.1276,-6.7827,-49.2522,10.5739,10.6435
780,-1.7627,-7.0509,-6.7827,-50.0174,10.087,12.313
785,-1.5711,-7.0509,-6.8593,-50.713,9.6696,13.9826
790,-1.5328,-7.0126,-6.936,-51.8261,9.2522,14.9565
795,-1.4562,-7.2042,-7.0126,-52.7304,9.113,16.0
800,-1.3029,-7.2809,-7.0893,-53.0783,9.3217,16.7652
805,-1.1879,-7.5874,-7.2425,-52.7304,9.6,17.1826
810,-1.1113,-7.5491,-7.2042,-51.3391,9.8783,17.2522
815,-1.073,-7.6257,-7.3575,-49.5304,10.2957,16.9043
820,-1.1113,-7.6641,-7.2809,-47.9304,10.6435,16.5565
825,-0.9963,-7.5874,-7.3192,-45.913,10.8522,16.2783
830,-1.073,-7.3192,-7.1276,-44.1739,11.0609,16.0696
835,-1.1113,-7.1659,-7.2809,-42.6435,11.4783,15.9304
840,-1.1496,-6.8593,-7.1659,-42.087,11.7565,15.8609
845,-1.0346,-6.6294,-7.2809,-42.1565,12.1043,15.6522
850,-0.843,-6.5528,-7.2042,-42.9913,13.0783,15.5826
855,-0.843,-6.7827,-7.2425,-44.1739,13.9826,15.4435
860,-0.9963,-6.5911,-7.3575,-45.3565,14.9565,15.3043
865,-0.9963,-6.5528,-7.5874,-46.7478,15.7913,15.2348
870,-1.1113,-6.5911,-7.3958,-47.8609,16.4174,15.2348
875,-1.4179,-6.5911,-7.4725,-48.487,16.487,15.3043
880,-1.2646,-6.7827,-7.4725,-48.6261,16.4174,15.513
885,-1.4562,-6.821,-7.4725,-48.0696,16.2087,15.5826
890,-1.5711,-6.8977,-7.4725,-46.887,16.0696,15.3043
895,-1.8011,-6.9743,-7.3192,-45.3565,16.0696,14.887
900,-1.7627,-6.8593,-7.4725,-43.6174,16.3478,14.6783
905,-1.8011,-6.5145,-7.4725,-42.3652,16.6261,14.6783
910,-1.8011,-6.6294,-7.2042,-41.7391,17.0435,14.8174
915,-1.8011,-6.5145,-7.2425,-41.3913,17.3913,14.887
920,-1.8777,-6.5145,-7.2425,-41.3913,17.8087,14.887
925,-1.7627,-6.5145,-7.0509,-41.113,18.2261,15.0261
930,-1.6478,-6.4761,-7.1276,-40.7652,18.6435,15.0261
935,-1.4562,-6.3612,-7.2042,-40.3478,19.1304,15.1652
940,-1.2646,-6.2845,-7.0509,-39.6522,19.8261,15.3043
945,-1.1113,-6.2845,-7.0893,-39.1652,20.4522,15.2348
950,-1.3029,-6.2079,-6.8977,-38.6087,21.1478,15.1652
955,-1.3412,-6.0546,-7.0893,-38.4,21.6348,14.8174
960,-1.3795,-6.3229,-6.936,-38.3304,22.4,14.6087
965,-1.1496,-6.1696,-7.0509,-38.3304,23.1652,14.4
970,-1.073,-6.3229,-6.8977,-38.6783,24.0696,14.4696
975,-1.1496,-6.5145,-6.936,-38.9565,24.7652,14.3304
980,-1.1879,-6.2845,-6.821,-39.0261,25.5304,13.9826
985,-1.2263,-6.3229,-6.7444,-39.0261,26.3652,13.7043
990,-1.073,-6.3995,-6.5528,-38.8174,27.5478,13.287
995,-0.843,-6.2462,-6.5911,-38.3304,29.0087,12.8696
1000,-0.9197,-6.3229,-6.6677,-37.4957,30.7478,12.5217
1005,-0.843,-6.2845,-6.6294,-36.3826,32.8348,12.1043
1010,-0.843,-6.3229,-6.7444,-35.1304,35.2,11.8261
1015,-0.8814,-6.1696,-6.821,-34.087,37.8435,11.3391
1020,-0.8814,-5.978,-6.7444,-33.6696,40.4174,10.713
1025,-0.9963,-6.0546,-6.4761,-33.6696,42.9913,10.087
1030,-0.8047,-5.978,-6.6677,-33.8087,45.5652,9.7391
1035,-0.7664,-6.1313,-6.5145,-33.8087,48.0696,9.4609
1040,-0.8047,-6.0546,-6.4761,-33.8087,50.713,9.4609
1045,-0.7281,-6.0163,-6.2845,-33.6696,53.1478,9.6696
1050,-0.6898,-6.0546,-6.2462,-33.2522,55.5826,10.0174
1055,-0.7664,-5.9396,-6.0929,-32.8348,57.8783,10.4348
1060,-0.6514,-6.0163,-6.1696,-32.2783,60.0348,10.9913
1065,-0.7281,-5.748,-6.0163,-31.8609,62.1217,11.4087
1070,-0.6131,-5.9013,-5.978,-31.513,64.2087,11.4783
1075,-0.4982,-5.6331,-6.0546,-31.5826,66.5043,11.4087
1080,-0.5748,-5.4798,-5.9013,-32.2783,69.0783,11.1304
1085,-0.4982,-5.4415,-6.0163,-33.3217,71.9304,10.5739
1090,-0.4598,-5.5181,-5.863,-34.3652,75.0609,9.8087
1095,-0.3066,-5.4798,-5.7097,-35.1304,78.5391,8.5565
1100,-0.3449,-5.6331,-5.7097,-35.3391,82.2957,7.1652
1105,-0.3449,-5.748,-5.748,-34.9913,86.1913,5.4261
1110,-0.2299,-5.748,-5.5181,-34.1565,90.2261,3.3391
1115,-0.1916,-5.9396,-5.5181,-32.8348,94.4696,1.3913
1120,-0.1533,-6.0929,-5.3648,-31.1652,98.7826,-0.2087
1125,-0.3832,-6.1313,-5.3648,-28.8696,103.3739,-1.5304
1130,-0.2682,-6.0163,-5.2499,-26.9913,107.7565,-2.2957
1135,-0.3832,-5.5948,-5.2116,-25.2522,111.8609,-2.8522
1140,-0.4215,-5.6331,-5.0966,-24.0696,115.687,-3.2696
1145,-0.4598,-5.3648,-4.905,-23.3043,119.4435,-3.5478
1150,-0.4215,-5.3648,-4.7134,-22.887,122.9913,-3.8261
1155,-0.2682,-5.2882,-4.7134,-22.7478,126.6087,-4.5913
1160,-0.2299,-5.1732,-4.5218,-22.9565,130.087,-5.6348
1165,-0.1916,-5.4415,-4.5218,-23.0957,133.8435,-7.3739
1170,-0.0383,-5.4415,-4.2919,-22.887,137.3217,-9.2522
1175,-0.115,-5.6331,-4.3302,-22.4696,140.9391,-11.2696
1180,0.115,-5.4798,-4.062,-21.2174,144.4174,-13.4261
1185,0.3832,-5.978,-3.6404,-19.687,148.3826,-15.6522
1190,0.3449,-5.8247,-4.0236,-16.7652,152.3478,-17.8783
1195,0.4598,-5.748,-3.7171,-14.8174,156.1043,-20.6609
1200,0.6131,-5.8247,-3.6404,-12.5217,160.3478,-23.3043
1205,0.843,-5.8247,-3.4105,-9.3913,164.8696,-26.1565
1210,1.0346,-5.978,-3.1806,-6.2609,169.6,-29.0783
1215,0.8814,-5.7864,-3.2572,-2.5043,175.1652,-31.513
1220,1.3029,-5.863,-3.4488,1.0435,179.8261,-34.2261
1225,1.1113,-5.748,-3.2572,5.0783,185.6,-36.9391
1230,1.1879,-6.0546,-3.2572,10.087,192.0,-39.513
1235,1.1496,-5.3648,-3.2189,13.913,197.8435,-42.0174
1240,1.2263,-5.6331,-3.2955,16.487,204.0348,-44.9391
1245,0.843,-5.7097,-2.989,18.6435,210.2957,-47.6522
1250,0.958,-5.9396,-2.874,21.7739,216.7652,-50.6435
1255,1.4945,-6.2079,-2.6441,24.6261,222.0522,-53.9826
1260,1.3795,-6.2845,-2.5675,28.7304,227.7565,-57.2522
1265,1.2263,-6.3612,-2.4908,33.6,232.9739,-60.2435
1270,0.7664,-6.1696,-2.5675,38.5391,237.9826,-62.6783
1275,0.843,-5.748,-2.4142,42.8522,242.4348,-64.5565
1280,0.3832,-5.2116,-2.4525,45.7739,246.1217,-66.6435
1285,0.4598,-4.8284,-2.2226,46.2609,249.2522,-68.4522
1290,0.7281,-4.6751,-2.2609,44.7304,252.0348,-70.4
1295,0.8047,-4.4068,-1.9543,42.2261,254.5391,-71.9304
1300,1.0346,-4.3302,-1.5711,38.6087,256.8348,-73.1826
1305,1.1496,-4.0236,-1.3029,34.2261,258.6435,-74.1565
1310,1.5711,-4.062,-0.958,29.913,259.3391,-75.6174
1315,1.6095,-3.9087,-0.5748,26.713,260.0348,-77.7739
1320,1.6861,-3.4871,-0.4215,24.2783,261.287,-80.2087
1325,1.916,-3.2572,-0.1533,22.4,262.4696,-82.6435
1330,1.8394,-3.0273,-0.2299,20.5217,264.5565,-85.7739
1335,1.8777,-2.6058,-0.1916,18.3652,266.9913,-90.0174
1340,1.3795,-1.8394,-0.0383,14.6087,269.7043,-93.8435
1345,1.1496,-0.6898,-0.3449,6.7478,273.3217,-95.7217
1350,1.0346,0.4982,0.0,-7.9304,278.3304,-95.1652
1355,1.1496,1.6095,0.115,-27.9652,282.3652,-93.0783
1360,1.2263,2.3759,-0.2299,-52.1043,282.8522,-90.2261
1365,1.4562,2.5291,-0.958,-76.5217,278.9565,-87.5826
1370,2.0693,1.6095,-1.9543,-96.4174,270.9565,-85.6348
1375,2.2992,0.3066,-3.5638,-108.1739,261.3565,-83.9652
1380,2.2609,-1.2646,-4.9816,-113.1826,254.3304,-79.7913
1385,1.916,-2.3375,-5.02,-114.5043,252.1739,-72.0696
1390,1.6095,-3.0656,-4.8284,-112.1391,253.6348,-62.7478
1395,1.3412,-3.1806,-4.5218,-104.4174,256.0696,-53.7739
1400,1.3412,-3.4871,-4.4068,-91.0609,258.9913,-46.4
1405,1.4562,-3.9087,-4.9433,-71.6522,262.8174,-40.3478
1410,1.1496,-3.832,-5.4032,-49.113,267.5478,-35.8261
1415,0.4215,-2.7591,-6.0929,-28.9391,272.6957,-32.2783
1420,-0.2682,-1.4945,-6.7061,-16.3478,274.6435,-30.2609
1425,-1.1113,-0.5365,-7.2042,-12.6609,272.7652,-29.287
1430,-1.6095,-0.115,-8.2389,-16.5565,268.0348,-27.5478
1435,-0.8047,-0.958,-8.7754,-25.3217,262.4,-24.2087
1440,0.4215,-2.3375,-9.925,-32.4174,257.5304,-19.6174
1445,3.0273,-4.062,-10.4614,-36.5217,255.7913,-13.5652
1450,6.2462,-5.1349,-9.3502,-36.1739,258.9913,-9.5304
1455,9.5034,-6.2845,-7.7407,-30.9565,268.5217,-9.6696
1460,14.5617,-6.4378,-6.7444,-27.4087,278.4,-12.4522
1465,23.8352,-5.2499,-3.1039,-27.6174,285.6348,-24.2087
1470,30.1198,-5.4415,-4.1386,-18.4348,295.8609,-49.3217
1475,36.1744,-4.905,-4.5601,-10.2261,288.9739,-83.687
1480,48.7434,-5.1732,-2.7591,4.4522,265.3913,-134.9565
1485,60.3162,-2.2609,-7.5491,37.0087,238.6783,-192.6957
1490,75.2611,-1.073,-15.558,52.6609,205.6348,-247.0261
1495,89.133,-0.2682,-17.589,49.113,168.5565,-296.2783
1500,101.7404,-1.6478,-20.1565,25.8087,123.5478,-358.6783
1505,92.352,3.1806,-15.1365,-14.1217,100.1043,-438.6783
1510,64.2248,7.9323,-10.9979,-48.6261,88.0,-510.9565
1515,52.3455,4.3685,-9.5034,-80.6261,56.0,-538.0174
1520,44.1833,-0.1533,-8.5838,-99.4087,11.1304,-552.2087
1525,36.4809,-4.3685,-7.2042,-101.3565,-21.7043,-560.5565
1530,31.8825,-7.779,-4.2919,-103.8609,-38.887,-557.4957
1535,24.9465,-10.768,1.7244,-100.5913,-49.113,-538.1565
1540,17.4357,-10.3465,5.4415,-72.9739,-63.8609,-506.6435
1545,10.4614,-8.7754,7.0509,-19.4783,-78.8174,-465.6696
1550,1.073,-6.5145,7.4341,50.7826,-81.8087,-419.4783
1555,-9.925,-3.832,6.2079,126.9565,-74.0174,-357.6348
1560,-16.5161,0.3449,4.4452,199.0261,-66.5739,-260.9391
1565,-12.4924,3.2572,0.5365,252.3826,-64.5565,-131.0609
1570,-1.7627,7.9706,-2.9123,268.5217,-65.1826,-6.6783
1575,4.4068,11.1129,-3.5638,237.8435,-71.1652,90.0174
1580,4.4835,12.799,-2.4908,184.3478,-83.8957,152.2783
1585,8.4688,13.872,-2.6824,129.3913,-109.4957,192.2087
1590,8.4688,12.4158,-2.989,76.6609,-133.913,203.8957
1595,9.2352,10.4614,-3.4105,39.8609,-149.2174,191.1652
1600,9.4651,8.3538,-3.9853,20.1739,-154.713,169.3217
1605,11.3045,7.7407,-4.4068,13.6348,-149.0783,146.087
1610,11.8793,7.0509,-4.4068,16.5565,-133.9826,118.5391
1615,12.3775,7.1659,-3.947,26.4348,-115.2696,85.6348
1620,12.6074,6.2462,-3.0273,37.4261,-95.8609,55.7217
1625,12.5307,4.8284,-2.1459,49.5304,-76.8,30.1913
1630,12.8756,3.6021,-1.8011,60.8696,-57.6,10.9217
1635,13.3355,2.7207,-1.7244,68.0348,-37.1478,-3.1304
1640,13.4121,2.4142,-1.7244,69.5652,-17.7391,-12.8696
1645,14.0252,2.1076,-1.8011,65.3913,-0.9739,-19.4087
1650,13.6037,2.2609,-1.5328,57.9478,14.887,-24.6957
1655,12.3775,1.9927,-1.7627,48.8348,29.287,-27.8957
1660,10.9596,2.031,-1.3412,39.0261,41.6,-27.7565
1665,8.967,1.9543,-1.7244,29.9826,50.9217,-25.1826
1670,6.936,1.7244,-1.7627,24.0,56.1391,-20.9391
1675,5.2116,1.4945,-1.3795,22.7478,57.7391,-17.2522
1680,3.4488,1.073,-1.2646,29.1478,57.6696,-15.3043
1685,1.916,0.7664,-1.4945,41.113,57.2522,-14.8174
1690,1.0346,1.073,-1.7244,54.2609,58.087,-15.3739
1695,0.1916,1.3795,-1.8394,65.8783,59.9652,-17.2522
1700,-0.1533,1.9927,-1.8011,74.9217,61.8435,-20.313
1705,0.0766,2.6441,-1.916,81.113,63.9304,-23.1652
1710,0.4215,3.2955,-2.1459,82.9913,66.4348,-24.2087
1715,1.2646,3.7554,-2.1843,79.5826,69.913,-21.913
1720,1.8777,3.6787,-1.8011,73.7391,73.1826,-17.4609
1725,2.5675,3.9087,-1.6478,67.4783,75.2696,-12.6609
1730,3.4488,3.8704,-1.4562,61.0087,75.7565,-8.5565
1735,4.0236,3.832,-1.2646,54.6783,75.5478,-5.8435
1740,4.2919,3.7554,-1.073,49.8087,74.5739,-4.1043
1745,4.5601,3.6787,-0.9963,47.0261,72.3478,-2.9217
1750,4.9816,3.6404,-1.2646,46.0522,69.5652,-2.7826
1755,5.2116,4.1003,-1.8394,45.0087,67.3391,-5.0783
1760,5.2116,4.2536,-2.2992,43.4783,66.4348,-8.5565
1765,4.7134,4.9816,-2.5291,40.5565,67.7565,-11.687
1770,4.2536,4.9816,-2.4525,36.4522,70.5391,-12.9391
1775,3.4488,5.2499,-2.989,31.3739,73.8087,-11.6174
1780,3.3339,5.7864,-3.1423,26.2261,76.2435,-6.9565
1785,3.7554,6.5528,-3.0273,17.5304,78.7478,-2.1565
1790,4.3302,6.3229,-3.1039,7.1652,83.7565,0.7652
1795,4.5601,6.1696,-2.4908,-3.3391,90.7826,3.1304
1800,4.5218,5.7097,-2.0693,-11.8957,95.8609,6.887
1805,5.1732,5.2499,-1.916,-18.4348,97.7391,11.5478
1810,5.978,4.8667,-1.916,-23.3739,100.8696,13.8435
1815,6.0163,4.2536,-1.3412,-28.313,102.6783,14.6087
1820,7.5108,4.3685,-1.0346,-29.9826,105.1826,15.8609
1825,9.8866,4.4452,-0.3832,-30.7478,108.7304,16.487
1830,10.7297,4.1003,-0.4215,-31.513,114.0174,14.887
1835,11.9943,4.1386,-0.0766,-32.487,117.913,13.2174
1840,12.8756,4.062,0.115,-33.6,121.8783,12.1043
1845,12.5307,4.062,0.0,-34.5739,125.913,11.2
1850,13.0289,4.1386,-0.115,-36.6609,127.0261,9.8783
1855,14.1019,3.947,-0.115,-38.7478,125.2174,8.0
1860,15.2132,3.7554,-0.2299,-38.1217,119.7217,4.5217
1865,15.7113,4.1769,0.0,-34.5739,112.3478,-1.6
1870,16.3245,4.8667,-0.3066,-30.9565,104.0,-8.2087
1875,16.3245,5.4415,-0.3832,-28.5217,97.1826,-15.0261
1880,17.0909,6.2079,-0.2299,-28.1043,92.6609,-20.5217
1885,17.8189,6.2845,-0.2682,-30.5391,90.0174,-23.4435
1890,16.7843,6.0929,-0.6131,-36.0348,88.8348,-25.0435
1895,15.9413,5.2882,-0.7664,-44.3826,87.5826,-24.9043
1900,15.3281,4.5601,-0.6898,-53.3565,83.8957,-22.7478
1905,13.8336,3.6787,-0.2682,-60.5913,78.9565,-19.9652
1910,13.3738,3.0656,0.1916,-64.2783,72.6957,-15.7217
1915,11.8027,2.1459,0.7281,-64.0696,65.6,-11.7565
1920,11.1895,1.7244,1.6095,-61.4957,58.0174,-8.4174
1925,10.6914,1.1113,2.1459,-56.5565,49.6696,-6.1217
1930,10.3848,0.6514,2.5675,-50.2261,40.9739,-5.7043
1935,10.0399,0.4215,2.7974,-44.6609,33.6696,-6.1217
1940,9.695,0.4598,3.2189,-38.4696,28.1043,-6.1913
1945,9.5034,0.0766,3.1806,-31.4435,25.113,-5.8435
1950,9.7717,-0.0766,3.4871,-24.7652,21.7043,-5.287
1955,10.1549,-0.115,3.0656,-17.0435,19.2,-5.6348
1960,10.3465,0.0383,2.989,-10.5739,17.9478,-7.5826
1965,10.883,0.0,2.874,-4.4522,17.8087,-9.6696
1970,11.1512,0.115,2.7974,0.3478,18.5043,-12.6609
1975,11.2279,0.2299,2.4525,4.4522,19.3391,-15.7913
1980,11.0363,0.6898,2.1843,8.2087,20.2435,-18.9217
1985,10.8446,0.7281,1.916,11.1304,20.9391,-21.2174
1990,10.8063,0.9963,1.6095,12.1043,21.4261,-22.4696
1995,10.6147,1.1113,1.4945,12.0348,21.3565,-23.3043
2000,10.1549,1.0346,1.0346,10.7826,20.5913,-23.1652
2005,9.695,1.1496,1.2263,8.8348,19.4783,-21.9826
2010,9.1202,1.0346,1.1113,7.3043,18.1565,-20.4522
2015,8.852,0.843,1.3029,5.6348,16.1391,-18.087
2020,8.5454,0.4982,1.4562,4.5217,14.6087,-14.887
2025,8.0856,0.3832,1.5711,4.5217,13.1478,-12.1739
2030,7.779,0.2299,1.4179,4.9391,12.3826,-9.1826
2035,7.3575,0.115,1.6095,5.287,11.9652,-6.1217
2040,7.1276,0.2299,1.4562,5.3565,11.8957,-3.2
2045,7.2425,0.2682,2.1843,4.8696,12.2435,-0.2783
2050,7.2809,0.6898,1.4562,4.3826,12.8696,1.3913
2055,7.2042,0.7664,1.5328,3.2,13.7043,2.2957
2060,7.1276,0.958,1.5328,1.3217,14.4696,3.687
2065,7.3192,0.9197,1.7244,0.487,13.9826,5.0087
2070,7.2425,0.6898,1.4562,0.2783,13.0087,6.8174
2075,7.6257,0.5748,1.3795,0.5565,11.8261,8.7652
2080,8.0473,0.5748,1.4945,1.5304,10.4348,10.087
2085,8.3155,0.5365,1.3412,2.2957,9.3217,10.9217
2090,8.4305,0.4982,1.3795,2.4348,8.9043,11.3391
2095,8.737,0.6131,1.4562,2.087,8.0,11.9652
2100,9.0819,0.4598,1.1496,2.2261,6.6783,13.0783
2105,9.1969,0.5748,0.9197,2.2261,5.7739,13.7739
2110,9.4651,0.4598,0.9963,2.087,4.7304,14.1913
2115,9.7717,0.4598,0.6131,2.1565,3.5478,14.1217
2120,10.0399,0.4982,0.5748,1.9478,2.713,13.2174
2125,10.3082,0.4598,0.7281,2.087,1.5304,13.2174
2130,10.4614,0.4598,0.4982,2.9217,0.7652,12.9391
2135,10.5764,0.2682,0.4982,3.7565,0.2783,12.3826
2140,10.4614,0.3449,0.6131,4.3826,-0.2783,11.1304
2145,10.5764,0.3449,0.8047,5.0087,-1.2522,10.2957
2150,10.8063,0.4598,0.7281,5.913,-1.6,9.6
2155,10.5764,0.3449,0.8814,6.6783,-1.8783,8.487
2160,10.768,0.4215,0.8047,7.3043,-2.6435,6.4696
2165,10.883,0.3449,0.9197,8.5565,-3.8261,5.3565
2170,10.8063,0.3832,0.843,9.5304,-4.2435,3.4783
2175,10.883,0.3066,0.9197,10.5043,-4.9391,1.6
2180,10.6914,0.2682,0.958,12.1043,-5.8435,0.2087
2185,10.8063,0.3449,1.2263,14.1217,-6.8174,-1.8087
2190,10.768,0.1533,1.2263,16.487,-8.5565,-3.0609
2195,10.7297,0.1533,1.073,19.1304,-9.8783,-4.8696
2200,10.8446,0.3066,1.1879,20.9391,-9.9478,-7.4435
2205,10.8063,0.4598,1.1879,22.887,-10.5739,-9.0435
2210,10.3465,0.5748,1.073,24.6957,-11.2696,-10.5739
2215,10.4998,0.8047,1.1496,26.2261,-11.7565,-12.5217
2220,10.4998,0.8814,1.1113,27.8957,-12.4522,-13.2174
2225,10.1932,1.1879,1.0346,28.6609,-12.5913,-14.4
2230,10.3465,1.2263,0.958,28.8,-12.313,-15.7913
2235,10.1549,1.4179,0.7664,28.4522,-12.0348,-16.487
2240,10.0016,1.6861,0.9197,27.8261,-11.9652,-17.1826
2245,10.1166,1.7627,0.8814,26.6435,-11.687,-17.6
2250,10.0016,1.916,0.9197,25.0435,-11.2696,-18.2261
2255,9.695,2.0693,0.9197,23.0261,-10.9913,-18.713
2260,9.9633,2.2609,1.4179,20.6609,-11.2696,-18.7826
2265,9.81,2.031,0.8814,18.2957,-11.5478,-18.2261
2270,9.7717,2.031,1.0346,16.1391,-11.5478,-17.4609
2275,9.5801,1.916,0.958,13.7043,-11.6174,-16.6957
2280,9.5034,1.9543,0.9197,11.6174,-11.9652,-16.0
2285,9.2352,1.9543,0.958,9.8087,-12.5217,-15.0261
2290,9.3885,1.8394,0.9963,8.2783,-13.287,-14.3304
2295,9.2735,1.8777,0.9963,6.9565,-13.7043,-13.7043
2300,9.1586,1.916,0.958,5.9826,-14.1913,-12.4522
2305,9.1586,2.031,0.7281,5.6348,-14.4,-10.8522
2310,9.1202,1.9927,0.6514,5.4261,-14.2609,-9.2522
2315,9.0436,1.9927,0.9197,5.0087,-13.7739,-8.0
2320,9.0819,2.2609,0.7281,4.313,-12.8696,-7.1652
2325,9.0053,2.2226,0.4598,3.4783,-12.1043,-5.9826
2330,9.1969,2.2226,0.3832,2.2957,-11.4783,-4.6609
2335,9.1202,2.2609,0.5365,0.9739,-10.8522,-3.4087
2340,9.2352,2.2992,0.4215,-0.4174,-10.2957,-2.0174
2345,9.1202,2.2226,0.2299,-1.8783,-9.6,-1.0435
2350,9.3885,2.3375,0.4215,-3.7565,-8.7652,-0.6957
2355,9.5034,2.2226,0.3449,-5.0087,-8.487,1.3913
2360,9.6567,2.2992,0.3832,-5.7739,-7.6522,2.6435
2365,9.7334,2.1076,0.0766,-6.2609,-6.8174,3.687
2370,9.9633,2.2226,0.1916,-6.6783,-5.9826,4.313
2375,9.925,1.9927,0.0,-6.6087,-5.0783,4.8
2380,9.9633,1.9927,0.0766,-6.5391,-4.5217,5.0783
2385,9.9633,2.031,-0.0383,-6.2609,-4.1043,5.2174
2390,10.1932,2.0693,-0.115,-6.1217,-3.5478,5.287
2395,10.1549,2.1076,-0.0383,-6.4,-3.0609,5.0087
2400,10.1166,2.2226,-0.0383,-6.6783,-2.9913,4.8696
2405,10.1932,2.1843,0.0383,-6.6783,-3.2696,5.0087
2410,10.0782,2.031,-0.1916,-6.7478,-3.2696,5.0087
2415,10.2315,2.1076,0.0766,-6.9565,-3.1304,5.0087
2420,10.1932,1.9927,-0.0766,-7.0957,-3.2696,5.0087
2425,10.2698,1.8777,-0.115,-7.0261,-3.4087,4.7304
2430,10.3848,1.8011,0.1916,-6.7478,-3.5478,4.5217
2435,10.1932,1.8394,0.115,-6.4696,-3.7565,4.2435
2440,10.3465,1.6861,0.1533,-5.9826,-3.9652,4.1739
2445,10.3082,1.8011,0.3832,-5.4261,-4.2435,4.0348
2450,10.1549,1.6861,0.1533,-4.8696,-4.3826,3.7565
2455,10.1932,1.8394,0.2682,-4.4522,-4.4522,3.4783
2460,10.0399,1.8011,0.0383,-3.9652,-4.3826,3.1304
2465,10.1166,1.6095,0.2299,-3.7565,-4.3826,3.1304
2470,10.1932,1.7627,0.3832,-3.6174,-4.1739,2.9217
2475,10.0016,1.916,0.3449,-3.4783,-3.9652,2.9217
2480,10.0782,1.6861,0.3066,-3.4087,-3.687,2.713
2485,10.0399,1.6478,0.4215,-3.4087,-3.4783,2.7826
2490,10.0782,1.5328,0.3449,-3.0609,-3.1304,2.7826
2495,10.0782,1.5711,0.3449,-2.6435,-2.7826,2.8522
2500,10.0399,1.3795,0.2299,-2.3652,-2.4348,3.0609
2505,9.9633,1.3795,0.2682,-2.0174,-2.0174,2.9217
2510,9.8483,1.4945,0.3449,-1.8087,-1.6696,3.0609
2515,10.0399,1.4179,0.3449,-1.2522,-1.2522,3.1304
2520,9.9633,1.3029,0.1916,-1.113,-0.9043,3.1304
2525,9.81,1.4179,0.3832,-0.7652,-0.4174,3.1304
2530,9.8866,1.4179,0.2299,-0.487,-0.1391,3.1304
2535,10.0782,1.3029,0.4982,-0.1391,0.2087,2.9217
2540,9.8483,1.4179,0.3449,0.2087,0.6261,2.8522
2545,9.81,1.3412,0.3066,0.7652,0.9043,2.6435
2550,9.8483,1.3795,0.4215,1.3217,1.0435,2.4348
2555,9.695,1.4179,0.4598,1.8087,1.1826,2.3652
2560,9.695,1.2263,0.4982,2.2261,1.4609,2.2957
2565,9.7717,1.3412,0.4982,2.5043,1.6696,2.1565
2570,9.6567,1.4179,0.4598,2.5739,1.9478,2.1565
2575,9.6567,1.4179,0.4982,2.6435,2.3652,2.087
2580,9.695,1.1879,0.4982,2.6435,2.5043,2.1565
2585,9.6184,1.4179,0.6898,2.4348,2.5739,2.1565
2590,9.7717,1.4562,0.6514,2.4348,2.6435,2.2957
2595,9.7334,1.4945,0.4598,2.2957,2.6435,2.4348
2600,9.8866,1.4562,0.4982,2.2957,2.4348,2.5043
2605,9.81,1.3029,0.4982,2.087,2.1565,2.5043
2610,9.925,1.4945,0.4982,2.0174,1.7391,2.5043
2615,9.9633,1.3795,0.4598,1.8087,1.5304,2.5043
2620,9.7334,1.3795,0.4215,1.6,1.1826,2.3652
2625,9.8483,1.4562,0.5365,1.3913,0.8348,2.2261
2630,9.9633,1.4945,0.3066,1.1826,0.5565,1.9478
2635,9.9633,1.7244,0.6514,0.9043,0.4174,1.8087
2640,9.81,1.4562,0.4215,0.4174,0.2087,1.6
2645,9.9633,1.4179,0.3832,0.0696,0.0696,1.3913
2650,9.9633,1.5328,0.3832,-0.4174,-0.0696,1.1826
2655,10.1166,1.4562,0.4598,-0.5565,-0.2087,1.113
2660,9.8866,1.4562,0.4598,-0.9043,-0.3478,1.113
2665,9.8483,1.4562,0.3449,-1.3217,-0.3478,0.9739
2670,9.9633,1.5711,0.4598,-1.5304,-0.487,0.8348
2675,9.9633,1.3412,0.3449,-1.8783,-0.5565,0.8348
2680,9.925,1.3795,0.4215,-2.087,-0.6957,0.6261
2685,9.8866,1.4945,0.2682,-2.2957,-0.8348,0.6261
2690,10.0016,1.4179,0.3449,-2.5043,-0.8348,0.5565
2695,9.81,1.7627,0.3832,-2.7826,-0.9739,0.4174
2700,10.0016,1.4945,0.4598,-2.9217,-1.113,0.3478
2705,10.0016,1.4945,0.4598,-2.9217,-1.2522,0.2087
2710,9.925,1.3795,0.4215,-3.2,-1.3913,0.2087
2715,9.8483,1.5328,0.4598,-3.3391,-1.4609,0.2783
2720,9.8866,1.5328,0.4215,-3.1304,-1.4609,0.2783
2725,9.8866,1.4945,0.3832,-3.0609,-1.4609,0.2087
2730,9.81,1.5328,0.1533,-3.1304,-1.5304,0.1391
2735,10.0016,1.3029,0.4598,-3.2696,-1.6,0.2087
2740,9.8866,1.3412,0.4982,-3.0609,-1.6696,0.2783
2745,9.925,1.3795,0.4598,-2.6435,-1.6,0.2783
2750,9.7717,1.3795,0.4215,-1.5304,-1.6,0.0
2755,9.7717,1.5328,0.3066,-0.3478,-1.5304,-0.2783
2760,9.9633,1.4179,0.3449,0.3478,-1.1826,-0.6957
2765,9.8866,1.5328,0.3449,0.7652,-0.487,-1.1826
2770,9.695,1.5328,0.1533,0.7652,0.1391,-1.3913
2775,9.81,1.5711,0.0766,0.6957,0.7652,-1.7391
2780,9.8866,1.4945,0.2682,0.6957,1.113,-1.9478
2785,9.925,1.6095,0.115,0.487,1.5304,-2.1565
2790,9.925,1.5328,0.3449,0.2783,1.6,-1.9478
2795,9.8866,1.7244,0.3832,-0.1391,1.5304,-1.6696
2800,9.81,1.6095,0.4982,-0.5565,1.1826,-1.3913
2805,9.8483,1.6095,0.4982,-0.9043,0.9739,-0.9739
2810,10.0782,1.4562,-0.115,-0.9043,0.6957,-0.8348
2815,9.7334,1.6478,0.2682,-0.6261,0.6261,-0.8348
2820,9.7334,1.5328,0.2682,-0.487,0.6957,-0.9739
2825,9.8483,1.6095,0.2682,-0.5565,0.9043,-0.9739
2830,9.925,1.4945,0.2299,-0.8348,1.113,-0.9739
2835,9.9633,1.4179,0.115,-0.9739,1.3913,-1.0435
2840,9.925,1.6478,0.2682,-1.1826,1.6696,-1.0435
2845,10.0016,1.4945,0.0766,-1.3913,1.8783,-1.113
2850,9.925,1.4945,0.1916,-1.3913,1.9478,-1.1826
2855,9.9633,1.5711,0.3449,-1.3913,1.9478,-1.113
2860,9.8483,1.7244,0.0766,-1.2522,1.8087,-1.113
2865,9.9633,1.6478,0.1916,-1.1826,1.6696,-1.1826
2870,9.81,1.7244,0.3449,-0.9739,1.5304,-1.3217
2875,9.925,1.6478,0.1916,-0.8348,1.5304,-1.2522
2880,9.8866,1.6478,0.2682,-0.6957,1.5304,-1.3217
2885,10.0399,1.6861,0.1533,-0.6957,1.5304,-1.3217
2890,9.8866,1.6861,0.115,-0.487,1.6,-1.3913
2895,9.8866,1.6095,0.2682,-0.487,1.8087,-1.4609
2900,9.8866,1.7244,0.1916,-0.487,1.9478,-1.3913
2905,9.9633,1.5711,0.3449,-0.487,2.087,-1.3913
2910,9.8866,1.6095,0.3066,-0.487,2.2957,-1.2522
2915,9.81,1.8394,0.115,-0.487,2.2957,-1.1826
2920,9.9633,1.5711,0.1533,-0.6957,2.2957,-1.2522
2925,9.8866,1.7244,0.4982,-0.8348,2.3652,-1.2522
2930,9.925,1.6478,0.2682,-0.9739,2.3652,-1.2522
2935,9.9633,1.7627,0.3832,-1.3217,2.2957,-1.1826
2940,10.0016,1.6478,0.4598,-1.4609,2.2957,-1.0435
2945,9.8483,1.6095,0.3449,-1.6696,2.2957,-1.113
2950,9.81,1.6095,0.4598,-1.8783,2.3652,-0.9043
2955,9.925,1.7244,0.3832,-1.9478,2.5043,-0.9043
2960,9.8866,1.6478,0.3066,-2.0174,2.5043,-0.8348
2965,9.8866,1.7244,0.3832,-2.2957,2.5043,-0.6261
2970,9.7717,1.6478,0.3449,-2.5043,2.5043,-0.6957
2975,9.8866,1.5328,0.2682,-2.7826,2.6435,-0.6261
2980,9.8483,1.6095,0.5365,-2.9913,2.6435,-0.6261
2985,9.7717,1.6095,0.115,-3.2,2.5739,-0.5565
2990,9.8483,1.4562,0.3066,-2.9913,2.5043,-0.4174
2995,9.81,1.4945,0.3066,-2.7826,2.5043,-0.487
