timestamp,accX,accY,accZ,gyroX,gyroY,gyroZ
0,-0.4215,-9.3885,0.4598,6.6087,2.8522,6.4
5,-0.1533,-9.3885,0.2682,6.3304,3.0609,6.6087
10,-0.1916,-9.4651,0.3832,6.3304,3.2696,6.4696
15,-0.3449,-9.3885,0.5365,6.1217,3.4783,6.6087
20,-0.3449,-9.5418,0.3449,5.9826,3.687,6.6087
25,-0.1916,-9.5034,0.4215,6.1217,3.9652,6.5391
30,-0.3066,-9.5034,0.4982,6.2609,4.1043,6.6087
35,-0.2299,-9.3885,0.5365,6.4,4.2435,6.7478
40,-0.4215,-9.5418,0.4982,6.887,4.2435,6.8174
45,-0.2299,-9.4651,0.3832,7.3739,4.1739,6.8174
50,-0.3066,-9.5034,0.4215,7.4435,3.8957,6.887
55,-0.3449,-9.4268,0.4215,7.4435,3.8261,6.9565
60,-0.3449,-9.5801,0.3449,7.3739,3.8261,7.0957
65,-0.4215,-9.5034,0.5748,7.4435,3.687,7.1652
70,-0.4982,-9.5034,0.4215,7.513,3.687,7.3043
75,-0.5365,-9.5034,0.4982,7.513,3.5478,7.513
80,-0.6131,-9.5034,0.4598,7.513,3.5478,7.5826
85,-0.6131,-9.5801,0.4982,7.513,3.6174,7.7217
90,-0.6514,-9.4268,0.6131,7.4435,3.687,7.9304
95,-0.6898,-9.4268,0.4598,7.513,3.687,7.8609
100,-0.7281,-9.3885,0.4982,7.4435,3.6174,7.7913
105,-0.6514,-9.5034,0.3066,7.4435,3.4087,7.7217
110,-0.6898,-9.2735,0.3066,7.1652,3.2696,7.6522
115,-0.5365,-9.5801,0.5365,7.0261,3.2,7.5826
120,-0.3832,-9.3885,0.4598,6.8174,3.0609,7.6522
125,-0.6131,-9.5034,0.4982,6.6087,2.9913,7.6522
130,-0.5365,-9.3118,0.6514,6.6783,2.8522,7.7217
135,-0.5748,-9.3885,0.4215,6.5391,2.9217,7.7217
140,-0.5748,-9.3118,0.5365,6.5391,3.0609,7.5826
145,-0.5365,-9.4651,0.6131,6.2609,3.2,7.513
150,-0.5748,-9.4651,0.4598,5.9826,3.4087,7.5826
155,-0.4215,-9.3885,0.6131,5.913,3.5478,7.3739
160,-0.5365,-9.3885,0.8047,5.913,3.7565,7.4435
165,-0.6898,-9.4268,0.5365,5.7043,3.8261,7.513
170,-0.6514,-9.4268,0.6131,5.7043,3.8957,7.3739
175,-0.5748,-9.3118,0.5748,5.913,3.7565,7.5826
180,-0.5748,-9.3885,0.5748,5.913,3.687,7.513
185,-0.6131,-9.4268,0.6514,6.1913,3.5478,7.7217
190,-0.5748,-9.5034,0.5748,6.9565,3.3391,8.0
195,-0.7664,-9.3885,0.4982,8.0696,3.1304,8.1391
200,-0.9963,-9.81,0.9963,9.1826,2.9913,8.6957
205,-0.2682,-9.7334,0.4982,13.1478,2.1565,10.713
210,-0.6514,-9.3885,0.3832,16.1391,1.5304,10.0174
215,-0.7281,-9.1586,0.2299,14.6087,1.6,9.3217
220,-0.6898,-9.3502,0.8047,10.7826,2.0174,8.9739
225,-0.7664,-9.4268,0.6514,8.0696,2.2957,8.6957
230,-0.7281,-9.4268,0.7664,6.6783,2.5739,8.487
235,-0.6898,-9.5801,0.7281,6.4,2.5739,8.2783
240,-0.7281,-9.3885,0.5748,6.8174,2.3652,8.1391
245,-0.8047,-9.4268,0.7664,7.0957,2.2261,8.0696
250,-0.8814,-9.3502,0.7664,6.9565,2.1565,8.1391
255,-0.6131,-9.2352,0.7281,7.0957,1.8087,8.2087
260,-0.6898,-9.3885,0.5365,7.0261,1.5304,8.2087
265,-0.6514,-9.1969,0.5748,6.8174,1.2522,8.2783
270,-0.6131,-9.3885,0.7664,6.7478,1.0435,8.1391
275,-0.843,-9.3118,0.6514,6.9565,0.8348,8.2783
280,-0.7664,-9.2352,0.7281,6.9565,0.8348,8.487
285,-0.7281,-9.2352,0.6514,6.7478,0.7652,8.6261
290,-0.843,-9.2352,0.7281,5.8435,0.8348,8.6261
295,-0.843,-9.2735,0.5365,5.287,0.7652,8.7652
300,-0.843,-9.2352,0.6898,4.5913,0.6957,8.7652
305,-0.8047,-9.2352,0.5748,3.4087,0.7652,8.8348
310,-0.8814,-9.2735,0.843,2.1565,0.6957,8.9043
315,-0.8047,-9.3885,0.7281,1.3217,0.6261,9.2522
320,-0.9197,-9.2735,0.5365,0.8348,0.6957,9.3913
325,-0.843,-9.2735,0.6514,0.7652,0.9043,9.6
330,-0.958,-9.4268,0.6898,0.7652,0.8348,9.8087
335,-0.958,-9.4268,0.5748,0.6957,0.6957,9.8783
340,-0.9963,-9.3502,0.7664,0.7652,0.487,10.0174
345,-0.9197,-9.4651,0.7281,1.3217,0.3478,10.087
350,-0.8814,-9.3118,0.6514,2.4348,0.1391,10.087
355,-1.073,-9.3118,0.6131,2.9217,0.0,10.087
360,-0.958,-9.3885,0.7281,2.8522,0.0696,10.1565
365,-1.073,-9.3502,0.7281,2.713,0.0,10.2261
370,-0.8814,-9.3885,0.7664,2.713,-0.1391,10.3652
375,-1.0346,-9.3118,0.7664,2.5043,-0.2783,10.5043
380,-0.9197,-9.3885,0.6514,1.5304,-0.4174,10.5739
385,-1.1113,-9.3118,0.7664,0.487,-0.487,10.713
390,-1.073,-9.3885,0.6514,-0.4174,-0.7652,10.713
395,-0.9963,-9.3118,0.7281,-0.9043,-0.7652,10.9913
400,-0.8047,-9.3502,0.7664,-1.5304,-0.6261,11.1304
405,-0.843,-9.2352,0.6898,-1.8087,-0.3478,11.3391
410,-0.6514,-9.3502,0.6131,-2.0174,-0.1391,11.3391
415,-0.7281,-9.2735,0.7664,-2.1565,0.2783,11.3391
420,-0.6514,-9.3118,0.843,-2.4348,0.8348,11.4087
425,-0.8047,-9.5034,0.8814,-2.4348,1.6,11.687
430,-0.5365,-9.2735,0.7281,-1.3217,2.087,12.3826
435,-0.6898,-9.3502,0.8047,-0.0696,2.9913,12.8
440,-0.6514,-9.3502,0.6514,0.487,3.687,13.6348
445,-0.7281,-9.2735,0.5748,-0.0696,4.3826,13.7043
450,-0.8047,-9.1969,0.4598,-1.8087,5.2174,14.0522
455,-0.7281,-9.2352,0.5748,-3.9652,5.913,14.2609
460,-0.9197,-9.2352,0.6131,-5.7739,6.5391,14.3304
465,-0.9197,-9.5034,0.843,-6.9565,6.887,14.6087
470,-1.1113,-9.4268,0.8814,-7.513,7.0261,14.6783
475,-1.1496,-9.4268,0.6898,-7.7913,6.887,14.9565
480,-1.3412,-9.1969,0.6898,-7.9304,6.7478,15.2348
485,-1.2646,-9.2735,0.6514,-8.2783,6.7478,15.513
490,-1.2646,-9.2352,0.6131,-8.8348,6.4696,15.6522
495,-1.5328,-9.1969,0.6131,-9.4609,6.1913,15.9304
500,-1.3412,-9.1586,0.4598,-10.2261,5.913,16.1391
505,-1.4179,-9.2735,0.5748,-10.8522,5.6348,16.3478
510,-1.4562,-9.2735,0.5748,-11.4783,5.4261,16.6957
515,-1.3795,-9.3885,0.4215,-11.8957,5.2174,16.8348
520,-1.3795,-9.3118,0.4215,-12.1739,5.0087,17.0435
525,-1.3029,-9.3502,0.5748,-12.313,4.9391,17.3217
530,-1.3029,-9.3885,0.5748,-12.3826,4.8696,17.5304
535,-1.1879,-9.1586,0.3832,-12.2435,4.8,17.6696
540,-1.1879,-9.4651,0.4215,-12.2435,4.8696,17.9478
545,-1.2646,-9.5418,0.4598,-12.0348,4.8696,18.0174
550,-1.2646,-9.3502,0.3449,-11.8957,4.8,18.2261
555,-1.1496,-9.3118,0.3449,-11.687,4.8696,18.3652
560,-1.2263,-9.3502,0.3449,-11.4783,5.0087,18.5043
565,-1.1879,-9.2735,0.2682,-11.3391,5.1478,18.8522
570,-1.3795,-9.2735,0.1916,-11.2,5.2174,19.0609
575,-1.3412,-9.3502,0.2682,-10.7826,5.2174,19.3391
580,-1.4562,-9.2352,0.2299,-10.2957,5.2174,19.4783
585,-1.3795,-9.2352,0.0383,-9.9478,5.287,19.6174
590,-1.4945,-9.3885,0.1916,-9.7391,5.4261,19.687
595,-1.5328,-9.0436,0.2682,-9.6,5.3565,19.7565
600,-1.4179,-9.2352,0.0766,-9.3913,5.4261,19.8957
605,-1.4562,-9.2352,0.1916,-9.3913,5.3565,19.8957
610,-1.5711,-9.2735,-0.0383,-9.4609,5.2174,20.1043
615,-1.6095,-9.1969,0.0383,-9.5304,4.9391,20.1739
620,-1.5328,-9.1969,0.0766,-9.6696,4.7304,20.1739
625,-1.4945,-9.1969,-0.115,-9.8087,4.5217,20.2435
630,-1.5711,-9.2352,-0.0766,-10.087,4.1739,20.3826
635,-1.6478,-9.0819,0.1533,-10.4348,3.8261,20.5217
640,-1.5711,-9.1969,-0.0383,-10.8522,3.4783,20.5913
645,-1.4945,-9.3502,-0.0766,-11.0609,2.9913,20.8
650,-1.4562,-9.0436,-0.0383,-11.4087,2.6435,21.0087
655,-1.7244,-9.0436,-0.115,-11.687,2.2957,21.1478
660,-1.6478,-9.1586,-0.0766,-12.0348,2.0174,21.4957
665,-1.6095,-9.1202,-0.0766,-12.2435,1.6696,21.8435
670,-1.6861,-9.0436,-0.1916,-12.3826,1.3913,22.1913
675,-1.7627,-9.0819,0.0,-12.4522,1.113,22.6783
680,-1.6861,-9.1586,-0.1533,-12.6609,0.7652,23.0261
685,-1.7627,-9.1202,-0.2299,-12.5913,0.5565,23.3739
690,-1.7244,-9.0436,-0.115,-12.4522,0.5565,23.7913
695,-1.8394,-9.1586,-0.2682,-12.313,0.487,24.2783
700,-1.8394,-8.852,-0.0383,-12.1739,0.4174,24.8348
705,-1.8011,-8.967,-0.3066,-11.9652,0.4174,25.3217
710,-1.8011,-9.0436,-0.1916,-12.1043,0.2087,25.6
715,-1.7627,-8.967,-0.1916,-12.5217,-0.1391,25.8783
720,-1.8011,-8.8903,-0.1533,-13.3565,-0.4174,26.1565
725,-1.5711,-8.8903,-0.1533,-14.4696,-0.487,26.5739
730,-1.5711,-9.0053,-0.0383,-15.7217,-0.487,26.8522
735,-1.5328,-8.852,-0.1916,-17.113,-0.2783,27.2696
740,-1.5328,-8.9286,-0.0766,-18.3652,0.0696,27.687
745,-1.4179,-8.9286,-0.0766,-19.5478,0.2783,28.1043
750,-1.4945,-8.967,-0.2299,-20.5913,0.6261,28.5913
755,-1.3795,-8.852,-0.1533,-21.6348,0.9043,29.0783
760,-1.3795,-8.8137,-0.2682,-22.7478,1.3913,29.6348
765,-1.3795,-8.8903,-0.2682,-23.513,1.9478,30.4
770,-1.3412,-8.9286,-0.0766,-23.6522,2.5043,31.4435
775,-1.4562,-8.967,-0.1533,-23.1652,2.8522,32.5565
780,-1.4562,-9.1202,-0.1916,-22.4,3.1304,33.5304
785,-1.5328,-9.1586,-0.3066,-21.3565,3.5478,34.5043
790,-1.5711,-9.1586,-0.2299,-20.1739,4.0348,35.5478
795,-1.5711,-9.2352,-0.1916,-19.1304,4.1043,36.5217
800,-1.7627,-9.1586,-0.4215,-18.1565,4.1739,37.5652
805,-1.6861,-9.2735,-0.3066,-17.3217,4.5217,38.887
810,-1.6478,-9.3118,-0.3449,-16.9043,4.4522,39.7913
815,-1.7244,-9.2735,-0.2682,-16.6957,4.7304,40.9043
820,-1.916,-9.2352,-0.4982,-16.7652,5.0087,41.8783
825,-1.8011,-9.1202,-0.3832,-17.113,5.3565,42.9217
830,-1.7244,-9.2352,-0.3066,-17.6,5.9826,44.4522
835,-1.7244,-9.2352,-0.5365,-17.7391,6.5391,46.0522
840,-1.9543,-8.9286,-0.6131,-18.0174,6.6087,47.0261
845,-1.9543,-8.967,-0.843,-18.5043,6.5391,47.6522
850,-1.9543,-8.9286,-0.5365,-18.8522,7.0957,48.7652
855,-2.0693,-8.8903,-0.7281,-18.6435,8.0,49.9478
860,-2.2609,-8.8137,-0.6514,-18.4348,8.7652,51.0609
865,-2.1076,-8.8137,-0.5365,-18.3652,9.3217,51.8957
870,-2.0693,-8.6604,-0.5365,-18.4348,9.8783,52.7304
875,-2.4142,-8.4688,-0.843,-19.0609,10.087,53.4261
880,-2.031,-8.3921,-0.6131,-20.1043,10.1565,53.9826
885,-1.9927,-8.3538,-0.5748,-21.4957,10.3652,54.887
890,-1.916,-8.3921,-0.5365,-23.0957,10.3652,56.1391
895,-1.9543,-8.2772,-0.4982,-24.4174,10.5043,57.6
900,-1.8777,-8.2772,-0.4982,-25.8783,10.4348,58.7826
905,-1.9543,-8.3538,-0.3449,-26.7826,10.8522,60.4522
910,-1.9543,-8.3155,-0.3832,-27.687,11.5478,62.1217
915,-1.916,-8.2389,-0.5365,-28.5913,12.4522,63.7217
920,-2.031,-8.0856,-0.8047,-29.6348,13.4957,65.7391
925,-1.9927,-8.0473,-0.8047,-31.0957,13.9826,67.0609
930,-2.2992,-7.9706,-0.6514,-33.4609,13.913,67.8957
935,-2.0693,-8.0473,-0.8814,-35.8261,13.913,69.287
940,-2.2992,-7.779,-1.0346,-37.8435,13.7739,70.6783
945,-2.2226,-7.9706,-1.1113,-38.9565,13.5652,72.3478
950,-2.3759,-7.9706,-1.3412,-39.4435,13.2174,74.9217
955,-2.3759,-7.894,-1.4179,-39.0957,13.2174,77.7739
960,-2.6058,-7.7407,-1.4945,-38.4696,12.8,79.8609
965,-2.8357,-7.6641,-1.6095,-37.8435,12.4522,81.9478
970,-2.7591,-7.7407,-1.6478,-37.7043,12.1739,84.7304
975,-3.2572,-7.5491,-1.7627,-38.4,11.5478,87.3043
980,-2.989,-7.3575,-1.4562,-41.2522,10.713,89.9478
985,-3.3722,-7.1659,-1.6095,-44.2435,9.6,91.3391
990,-3.5638,-7.0893,-1.4179,-47.4435,7.6522,92.1739
995,-3.5638,-7.0893,-1.1113,-50.087,5.5652,93.4957
1000,-3.6021,-6.8593,-1.3029,-51.687,4.1739,96.0696
1005,-3.832,-6.7061,-1.3412,-54.0522,2.4348,98.7826
1010,-4.0236,-6.5528,-1.3412,-56.487,0.1391,100.5217
1015,-4.1769,-6.4378,-1.4562,-59.4087,-2.7826,101.9826
1020,-4.2536,-6.5911,-1.3029,-61.6348,-5.913,104.2087
1025,-4.1003,-6.6677,-1.2263,-62.8174,-9.113,105.8087
1030,-3.9853,-6.821,-1.4562,-62.2609,-12.0348,107.7565
1035,-4.062,-6.821,-1.4945,-60.313,-13.9826,109.4957
1040,-4.1003,-7.1659,-1.4945,-57.4609,-14.9565,111.3739
1045,-3.947,-7.0126,-1.6861,-54.5391,-15.3043,112.6957
1050,-3.832,-7.1276,-1.8394,-51.8261,-15.8609,113.2522
1055,-4.1386,-6.936,-1.9927,-50.2957,-16.3478,114.1565
1060,-4.1003,-6.9743,-2.2609,-50.5739,-17.3217,115.4087
1065,-4.3302,-6.7444,-2.1843,-52.1043,-18.5043,116.9391
1070,-4.2919,-6.7827,-2.1076,-53.7739,-19.8261,118.9565
1075,-4.4068,-6.8977,-1.9927,-54.4696,-20.6609,121.6
1080,-4.3685,-6.7827,-2.031,-53.5652,-21.287,124.8
1085,-4.4068,-6.8593,-1.8394,-51.2,-22.3304,128.2087
1090,-4.4068,-6.5911,-1.8777,-48.2087,-23.6522,131.2696
1095,-4.1003,-6.5145,-1.8394,-45.2174,-25.2522,134.0522
1100,-3.9087,-6.3995,-2.0693,-42.0174,-26.7826,136.4174
1105,-3.6021,-6.4378,-2.031,-38.7478,-28.5217,138.4348
1110,-3.5255,-6.4378,-1.9543,-34.713,-30.1217,140.0348
1115,-3.6404,-6.5145,-2.031,-30.4696,-32.0696,141.287
1120,-3.4871,-6.821,-2.1076,-25.113,-34.2261,141.9826
1125,-4.1003,-6.8977,-2.1076,-18.087,-36.1043,141.5652
1130,-4.7134,-7.1659,-2.031,-8.9043,-38.8174,141.7043
1135,-5.2499,-7.4725,-2.2609,1.4609,-43.2696,143.0261
1140,-5.5948,-8.0473,-2.3375,12.6609,-46.887,144.4174
1145,-5.8247,-8.5071,-2.874,24.2087,-47.0261,145.8087
1150,-6.9743,-8.2005,-2.989,34.7826,-43.0609,146.5739
1155,-6.8977,-8.1239,-2.7974,40.9043,-39.7913,148.1739
1160,-6.5145,-8.0473,-3.1039,42.1565,-36.7304,149.7043
1165,-6.4378,-7.5874,-2.3375,40.0696,-32.3478,148.7304
1170,-6.1696,-7.1659,-2.1076,37.4957,-28.8,148.7304
1175,-5.5948,-6.3229,-1.5711,34.2261,-29.0087,148.8696
1180,-5.2116,-5.978,-1.1113,31.6522,-30.8174,147.687
1185,-4.5218,-5.2882,-0.958,30.3304,-33.1826,147.6174
1190,-4.2536,-4.9433,-0.6514,29.7739,-34.713,147.0609
1195,-4.3302,-4.79,-0.9197,29.8435,-36.9391,146.8522
1200,-3.7554,-4.8284,-1.073,30.1217,-39.7217,146.5043
1205,-4.4068,-4.8667,-1.0346,31.7913,-40.487,144.0
1210,-4.6751,-5.0583,-1.1879,35.0609,-41.113,141.4957
1215,-6.1313,-5.4798,-1.073,39.7913,-41.4609,138.3652
1220,-6.8977,-5.7097,-0.8047,45.2174,-43.1304,136.5565
1225,-7.5108,-5.6714,-0.7664,50.0174,-47.0957,137.3217
1230,-6.2079,-6.3995,-1.0346,54.5391,-49.8087,136.8348
1235,-7.0509,-6.2079,-0.3449,57.7391,-47.3043,129.5304
1240,-7.9323,-5.9013,-0.0766,58.2261,-46.8174,126.4696
1245,-6.7827,-5.978,0.0766,56.5565,-49.7391,128.7652
1250,-6.0163,-5.5564,-0.2299,52.5217,-51.1304,129.0435
1255,-5.0583,-4.9433,-0.4215,43.8957,-51.7565,129.0435
1260,-3.1806,-4.7134,-0.9963,30.4,-51.6174,130.2261
1265,-1.8394,-4.2919,-1.1879,13.7043,-49.8783,128.5565
1270,-1.1113,-3.8704,-1.1113,-2.087,-47.6522,124.6609
1275,-0.3066,-3.3339,-1.0346,-14.1217,-45.5652,121.0435
1280,0.0,-3.0273,-0.9963,-21.4957,-44.1043,118.3304
1285,0.2299,-2.4908,-0.8047,-24.2783,-43.2696,115.8957
1290,0.1916,-2.1843,-0.7281,-23.8609,-42.5043,113.7391
1295,0.0766,-1.9927,-0.7664,-20.9391,-41.8783,111.0957
1300,-0.4215,-1.6478,-0.5748,-16.4174,-41.2522,108.6609
1305,-0.7664,-1.5328,-0.7281,-10.7826,-41.113,106.5043
1310,-1.6478,-1.4179,-0.7281,-4.5913,-41.0435,105.1826
1315,-1.916,-1.3412,-0.843,1.7391,-41.113,104.6957
1320,-2.7207,-1.4945,-0.8814,8.2087,-41.9478,104.6957
1325,-3.3339,-1.4945,-0.9197,15.3043,-44.6609,105.113
1330,-3.7937,-1.7244,-1.073,22.6783,-49.0435,106.0174
1335,-4.0236,-2.031,-1.3029,29.7043,-55.1652,107.6174
1340,-4.1003,-2.031,-1.1496,35.8957,-62.5391,109.0783
1345,-4.1386,-1.9543,-0.9963,40.1391,-70.6087,109.1478
1350,-3.9853,-1.7244,-0.7281,41.6696,-79.2348,107.7565
1355,-4.0236,-1.8011,-0.4982,41.7391,-88.487,105.4609
1360,-3.9087,-1.8394,-0.7281,42.1565,-97.9478,103.0261
1365,-4.2919,-1.4562,-1.073,44.2435,-107.4087,101.0087
1370,-4.1769,-1.1879,-1.073,47.7217,-116.313,100.2435
1375,-4.4068,-0.8814,-1.4945,50.3652,-124.4522,99.5478
1380,-4.5601,-0.6131,-1.7244,51.2,-131.8261,98.2261
1385,-4.5984,-0.6898,-1.5711,51.687,-138.0174,97.9478
1390,-4.5218,-1.1496,-1.4562,54.4696,-141.7739,99.3391
1395,-4.1769,-1.6478,-1.3412,59.2696,-142.7478,101.913
1400,-4.1003,-2.2609,-1.7627,64.2087,-142.887,104.2783
1405,-3.4871,-2.6441,-2.1843,68.6609,-145.2522,102.3304
1410,-2.874,-3.0273,-2.5675,73.113,-148.9391,97.3913
1415,-1.2646,-3.4105,-2.4908,77.5652,-150.1217,93.7739
1420,0.9197,-3.4488,-1.6861,82.3652,-148.1043,92.9391
1425,3.1423,-3.4871,-0.9963,87.4435,-142.1217,91.3391
1430,4.1769,-3.4105,-0.6131,90.6435,-132.9391,87.2348
1435,5.4415,-3.3722,-0.843,91.9652,-123.7565,81.1826
1440,6.4378,-3.9853,-1.1113,91.6174,-115.4783,72.7652
1445,3.5255,-5.2116,-0.115,92.9391,-106.5043,61.0087
1450,-0.958,-4.8667,-1.2646,96.5565,-102.0522,52.7304
1455,-3.947,-3.7554,-1.8011,91.3391,-95.6522,56.0
1460,-7.1276,-1.5711,-1.6478,74.6435,-86.4696,68.1043
1465,-13.9103,0.115,2.0693,55.5826,-75.687,87.3043
1470,-21.4977,0.958,4.79,46.4,-76.1043,107.2
1475,-26.6326,4.6751,6.8977,48.2087,-83.7565,122.9913
1480,-31.4227,6.821,8.0856,53.9826,-86.6783,145.6
1485,-38.8951,7.6641,9.3885,66.5043,-88.487,167.2348
1490,-50.3912,9.3502,12.684,86.3304,-95.3043,193.1826
1495,-63.65,10.653,14.715,113.4609,-118.1217,228.7304
1500,-72.3104,11.7643,13.5271,145.5304,-142.6783,277.2174
1505,-71.659,11.0363,10.2315,166.4696,-168.2783,328.8348
1510,-67.1372,13.4504,9.7334,151.3739,-185.4609,364.313
1515,-62.6537,17.2825,14.6,109.1478,-202.8522,382.887
1520,-57.3655,19.62,16.7077,58.4348,-224.4174,386.087
1525,-53.5718,19.5434,15.673,15.5826,-230.9565,372.313
1530,-49.0117,13.7187,9.0819,3.2696,-206.1913,330.2957
1535,-40.7728,4.5218,4.7517,34.9217,-155.2,257.3217
1540,-29.6599,-0.843,5.6331,102.4,-103.0261,175.1652
1545,-14.9449,-2.989,5.1732,183.9304,-52.4522,97.8087
1550,-9.1586,-3.3339,6.3229,258.8522,14.8174,14.1913
1555,-1.1496,-2.4525,6.4761,314.5043,83.687,-67.1304
1560,3.6787,2.1076,9.8866,339.687,154.3652,-134.0522
1565,5.5181,7.6257,17.1675,332.2435,216.9043,-166.0522
1570,9.695,9.4268,20.5014,302.5391,246.9565,-155.3391
1575,15.6347,10.3465,18.3171,248.4174,229.0087,-126.0522
1580,14.2935,9.81,9.925,160.4174,170.3652,-94.0522
1585,8.1239,8.0473,2.4142,46.5391,86.4696,-54.1913
1590,2.9507,3.832,-1.6861,-64.7652,16.7652,-8.3478
1595,-0.2299,0.5748,-2.3759,-146.0174,-20.3826,24.8348
1600,-4.7134,-2.5675,-1.8777,-177.3217,-22.2609,38.8174
1605,-8.8137,-3.3722,-1.2263,-158.8174,7.2348,35.687
1610,-13.4888,-2.2609,-1.0346,-104.1391,59.8261,18.087
1615,-16.5161,0.5748,-1.2646,-28.9391,116.8696,0.487
1620,-16.7843,3.7554,-0.958,49.6696,158.5391,-4.8
1625,-15.3664,7.5491,0.843,111.3739,170.7826,-0.9043
1630,-11.8027,10.1549,3.3722,142.1217,151.0957,6.6087
1635,-7.5108,9.8483,4.3685,139.2,108.1739,14.0522
1640,-5.2499,8.5838,4.4452,108.7304,62.0522,21.0087
1645,-3.832,5.6714,4.2152,61.4261,25.4609,28.0348
1650,-2.7591,2.7591,3.6021,13.9826,-3.6174,34.087
1655,-2.989,0.7664,3.4105,-19.8261,-24.0,35.8957
1660,-4.4068,-0.115,3.3722,-33.3913,-34.0174,33.8783
1665,-4.9816,0.0,2.9507,-30.7478,-34.6435,31.4435
1670,-5.0966,0.6898,2.7591,-21.8435,-29.7739,29.7739
1675,-4.6751,2.1076,2.7974,-15.3739,-24.1391,28.313
1680,-4.2919,3.4105,3.2955,-14.6087,-21.0087,25.8087
1685,-3.6787,3.947,3.7554,-17.6696,-23.0957,22.4
1690,-3.2572,4.5984,4.1386,-22.0522,-29.6348,19.2
1695,-2.6824,5.02,3.7171,-24.7652,-37.913,15.5826
1700,-1.9543,5.0966,3.2572,-24.2087,-45.1478,12.313
1705,-1.2646,5.02,2.6824,-20.7304,-50.087,9.4609
1710,-0.8047,4.8284,2.6441,-15.4435,-53.3565,5.5652
1715,-0.4215,4.7134,2.3375,-9.113,-54.7478,0.5565
1720,-0.1916,4.8284,1.9927,-5.2174,-53.6348,-5.2174
1725,-0.2682,5.2499,1.916,-5.4957,-49.7391,-11.9652
1730,-0.3066,6.0546,1.4945,-10.8522,-43.5478,-18.087
1735,-0.6898,6.4378,1.4945,-19.3391,-36.313,-23.513
1740,-1.5328,7.2425,0.8047,-27.8957,-29.8435,-29.2174
1745,-2.7207,7.5874,0.6898,-34.1565,-25.2522,-34.2261
1750,-4.062,7.8557,0.958,-37.1478,-23.3739,-38.2609
1755,-4.905,7.894,1.073,-37.7739,-23.4435,-41.3217
1760,-5.8247,7.779,1.5711,-36.5217,-24.2087,-44.7304
1765,-6.5145,7.6641,1.6095,-34.1565,-24.7652,-47.9304
1770,-6.3612,7.4341,1.5711,-31.6522,-24.4174,-51.3391
1775,-6.936,7.5108,1.2263,-30.1913,-23.0957,-55.0957
1780,-7.1276,7.2042,1.0346,-30.887,-22.2609,-58.7826
1785,-7.2809,6.6677,0.4598,-32.8348,-21.6348,-63.0957
1790,-7.5491,6.4378,0.7281,-36.9391,-20.5913,-65.9478
1795,-7.6641,6.5145,1.3412,-43.8957,-19.7565,-66.7826
1800,-8.2389,6.0929,2.2609,-51.5478,-18.6435,-69.0087
1805,-8.6221,5.863,2.5675,-58.2261,-18.087,-72.9739
1810,-8.8137,5.863,2.7974,-64.1391,-17.4609,-76.9391
1815,-8.3921,6.1313,3.1806,-68.8,-16.0696,-77.7739
1820,-8.2389,6.5911,3.1806,-70.4,-13.7043,-76.5217
1825,-8.5454,6.5528,3.4871,-67.0609,-11.4783,-76.6609
1830,-9.3118,6.5911,3.6404,-59.9652,-10.7826,-76.313
1835,-9.2735,6.3229,3.6404,-51.3391,-10.8522,-74.9913
1840,-10.0016,6.0929,3.5638,-42.6435,-8.7652,-74.6435
1845,-10.8446,5.5181,3.4871,-34.3652,-5.7739,-74.1565
1850,-11.9176,5.0966,3.832,-27.0609,-3.687,-72.2783
1855,-13.4121,4.905,4.062,-20.7304,-4.5913,-68.1043
1860,-13.6037,4.3302,4.0236,-15.7217,-8.4174,-62.2609
1865,-13.872,3.832,4.062,-12.6609,-11.4783,-55.3739
1870,-14.1019,3.5638,4.2152,-11.2,-13.0783,-48.2087
1875,-14.4851,3.3339,4.5601,-10.713,-14.2609,-40.1391
1880,-14.5234,3.4871,4.8667,-9.8783,-15.8609,-30.6783
1885,-14.4084,3.4105,4.79,-6.5391,-17.2522,-20.8696
1890,-13.5654,3.3722,4.4835,-2.5739,-17.9478,-12.4522
1895,-12.799,3.2955,4.062,0.4174,-17.8087,-5.4957
1900,-11.6877,3.2572,3.947,2.713,-16.487,-0.2087
1905,-10.4614,3.1039,3.4871,4.2435,-15.0957,3.8957
1910,-9.5418,2.874,3.3339,5.2174,-14.1217,6.887
1915,-8.8137,2.6441,3.2955,5.9826,-13.7739,9.4609
1920,-8.4688,2.5291,3.1423,6.9565,-13.5652,11.2
1925,-8.0089,2.2992,3.1806,7.7217,-12.9391,12.2435
1930,-7.7407,2.1843,3.4488,8.5565,-11.8261,12.5217
1935,-7.5108,2.031,3.6787,9.113,-10.4348,12.4522
1940,-7.4725,1.8394,3.6021,9.1826,-8.6957,11.687
1945,-7.3958,1.4945,3.947,9.0435,-6.2609,10.6435
1950,-7.5108,1.073,4.3685,9.2522,-3.0609,9.5304
1955,-7.5874,0.8047,3.7937,10.0174,0.0,8.0696
1960,-7.7024,0.6514,3.4871,10.9217,3.2696,6.4696
1965,-7.7407,0.6514,3.3722,11.8261,6.1913,4.8696
1970,-7.779,0.6131,3.2572,12.5217,8.4174,3.2
1975,-8.0473,0.8047,3.0656,12.8696,9.7391,1.113
1980,-8.3155,0.9197,3.2189,12.3826,10.2957,-0.9043
1985,-8.6604,0.843,3.5255,10.713,9.6696,-2.6435
1990,-8.5071,0.9197,3.947,8.0,6.6783,-4.6609
1995,-8.2005,1.1879,4.3302,5.4957,4.0348,-7.7913
2000,-8.2389,1.1879,4.3302,4.4522,3.5478,-10.9217
2005,-8.2389,0.9963,4.0236,3.8957,2.2957,-13.287
2010,-8.0089,0.958,4.1769,2.713,0.1391,-15.1652
2015,-8.0473,0.958,3.8704,0.9043,-1.8783,-16.6957
2020,-8.2005,0.9963,4.062,-0.9739,-2.8522,-18.4348
2025,-8.0856,0.8047,3.9087,-2.4348,-3.3391,-19.5478
2030,-8.0856,0.6131,3.9853,-3.8261,-3.2,-20.1739
2035,-8.3155,0.4982,3.7937,-4.6609,-2.2261,-20.4522
2040,-8.6604,0.4598,3.7171,-4.0348,-0.7652,-20.313
2045,-8.9286,0.0766,3.832,-1.8783,0.9043,-20.0348
2050,-9.1586,0.0383,3.4488,0.9739,2.5739,-19.5478
2055,-9.6184,0.0,3.1039,3.4087,4.1739,-19.2
2060,-9.5801,0.1533,3.1039,5.0087,5.287,-19.4087
2065,-9.81,0.0766,3.2189,5.7739,5.7043,-19.2696
2070,-9.925,0.0766,3.4871,5.0783,5.4261,-18.9913
2075,-9.8483,0.3449,3.832,2.9217,4.5913,-18.2261
2080,-9.7717,0.6131,3.947,-0.0696,3.687,-16.7652
2085,-9.6184,0.8047,3.7937,-3.3391,3.4087,-15.4435
2090,-9.5801,0.8047,3.7937,-6.5391,3.9652,-14.1913
2095,-9.695,0.8047,3.832,-8.6261,5.4957,-13.0087
2100,-9.3502,0.5365,3.6404,-9.3913,7.7217,-12.0348
2105,-9.3118,0.4215,3.3339,-9.113,10.4348,-11.2
2110,-9.2735,0.3449,3.1039,-8.2087,13.0783,-10.713
2115,-9.3885,0.1533,2.989,-7.0261,16.0,-9.4609
2120,-9.3502,0.2682,2.9123,-6.1217,18.7826,-8.3478
2125,-9.5801,0.2299,2.7207,-5.913,20.9391,-7.513
2130,-9.925,0.1916,2.9507,-6.8174,22.6087,-7.1652
2135,-9.9633,0.0766,3.0273,-7.4435,24.2783,-5.7739
2140,-9.925,0.1916,3.0273,-7.8609,25.6,-3.6174
2145,-9.925,0.3066,3.0656,-8.487,26.5043,-2.087
2150,-9.6567,0.3449,3.2572,-8.9043,26.713,-0.6957
2155,-9.4268,0.2682,3.3339,-9.113,26.2957,0.5565
2160,-9.3502,0.3832,3.3339,-9.0435,25.9478,1.8087
2165,-9.1202,0.2682,3.3339,-8.9043,25.4609,2.9217
2170,-8.8903,0.6131,3.1806,-8.4174,25.0435,3.6174
2175,-8.852,0.7664,3.0273,-7.7217,24.5565,4.1043
2180,-8.737,0.8814,2.9123,-7.2348,24.0,4.5913
2185,-8.6987,0.843,2.9123,-7.2348,23.5826,4.6609
2190,-8.8137,0.843,2.8357,-7.7217,22.887,4.3826
2195,-8.7754,0.7664,2.7974,-8.3478,22.1913,3.8957
2200,-8.6604,0.7281,3.0656,-8.8348,21.913,3.2696
2205,-8.7754,0.6514,3.0273,-9.2522,21.8435,2.6435
2210,-8.852,0.7281,2.989,-9.2522,21.7739,2.0174
2215,-8.7754,0.5748,3.0656,-9.2522,21.7043,1.4609
2220,-8.6987,0.9197,3.1423,-9.1826,21.7043,0.9043
2225,-9.1202,0.8814,3.0656,-9.0435,22.0522,-0.0696
2230,-9.2735,0.9197,3.1039,-8.7652,22.3304,-0.8348
2235,-9.4268,1.073,3.1039,-8.487,22.5391,-1.5304
2240,-9.2735,1.1879,2.9123,-8.2783,22.5391,-2.3652
2245,-9.3118,1.4179,2.989,-8.2087,22.1217,-3.0609
2250,-9.4268,1.5711,2.7207,-8.487,21.3565,-3.6174
2255,-9.5801,1.7244,2.5675,-8.9043,20.313,-4.1043
2260,-9.81,1.6861,2.4525,-9.6,19.3391,-4.5217
2265,-9.695,1.7244,2.5675,-10.2957,18.5043,-4.6609
2270,-9.81,1.7627,2.6441,-11.1304,17.7391,-4.7304
2275,-9.8866,1.5328,2.6058,-11.6174,17.1826,-4.8696
2280,-9.7717,1.5711,2.5291,-11.8957,16.8348,-5.0087
2285,-9.6567,1.4562,2.5291,-12.0348,16.487,-5.287
2290,-9.6184,1.4562,2.6441,-11.8261,16.2087,-5.3565
2295,-9.6567,1.5328,2.6058,-11.2696,15.8609,-5.287
2300,-9.4651,1.4945,2.4908,-10.4348,15.6522,-5.1478
2305,-9.5034,1.4562,2.5291,-10.0174,15.5826,-4.9391
2310,-9.4268,1.4945,2.6824,-9.2522,15.3739,-4.8696
2315,-9.3885,1.3795,2.4142,-8.8348,15.4435,-5.0087
2320,-9.5418,1.2263,2.4908,-8.4174,15.4435,-4.8696
2325,-9.6567,1.2646,2.4908,-7.8609,15.5826,-5.2174
2330,-9.5418,1.3412,2.4525,-7.0957,15.7913,-5.287
2335,-9.5801,1.3029,2.3375,-5.9826,15.8609,-5.1478
2340,-9.5801,1.2263,2.2992,-4.5913,15.7217,-5.1478
2345,-9.6184,1.1879,2.1843,-3.1304,15.0957,-4.8
2350,-9.7717,1.2646,2.2609,-1.6696,14.1217,-4.313
2355,-9.695,1.2646,2.1843,-0.6957,12.6609,-3.7565
2360,-9.7334,1.2646,2.0693,0.0,11.2,-3.2696
2365,-9.6184,1.2263,2.1076,0.0696,10.0174,-2.713
2370,-9.81,1.2646,1.9543,-0.7652,9.5304,-2.4348
2375,-9.7334,1.0346,2.1076,-1.4609,8.7652,-2.087
2380,-9.81,1.3029,2.2226,-1.5304,7.8609,-1.6696
2385,-9.81,0.958,2.2609,-1.2522,6.887,-1.3913
2390,-9.6184,1.073,2.2226,-0.4174,6.0522,-1.1826
2395,-9.6184,0.9197,2.1843,0.2087,5.7739,-1.3913
2400,-9.5034,0.7664,2.2609,0.6261,5.8435,-1.5304
2405,-9.4651,0.8047,2.2226,1.2522,5.7739,-2.087
2410,-9.5034,0.843,2.3375,1.8783,5.7043,-2.4348
2415,-9.3118,0.5748,2.2226,2.2261,5.6348,-2.7826
2420,-9.3502,0.6898,2.2992,2.2261,5.913,-2.9913
2425,-9.3885,0.6514,2.3375,2.087,6.1217,-3.2696
2430,-9.3502,0.5748,2.4142,2.0174,6.4,-3.2696
2435,-9.3118,0.4215,2.4908,2.2261,6.5391,-2.9913
2440,-9.3885,0.6898,2.4142,2.4348,6.7478,-2.713
2445,-9.4651,0.6514,2.4525,2.7826,6.7478,-2.4348
2450,-9.3885,0.6898,2.2609,3.4087,6.2609,-2.0174
2455,-9.6184,0.6898,2.3375,4.1739,5.7043,-1.7391
2460,-9.6184,0.8814,2.2609,4.9391,5.0087,-1.5304
2465,-9.4651,0.8047,2.2609,5.7739,4.1043,-1.4609
2470,-9.7334,0.958,2.2609,6.1217,2.9913,-1.5304
2475,-9.695,0.9963,2.2992,6.3304,1.6696,-1.5304
2480,-9.7334,0.9963,2.1843,6.0522,0.4174,-1.6
2485,-9.81,0.958,2.3375,5.3565,-0.7652,-1.4609
2490,-9.8483,0.9963,2.1843,4.6609,-1.6,-1.5304
2495,-9.8483,0.9197,2.1076,3.7565,-2.087,-1.2522
2500,-9.81,0.9963,2.3375,2.6435,-2.087,-1.0435
2505,-9.695,0.9197,2.0693,1.8087,-1.8783,-0.7652
2510,-9.695,0.843,2.1459,0.7652,-1.4609,-0.3478
2515,-9.6567,0.843,2.0693,-0.3478,-1.0435,0.0696
2520,-9.5418,0.8814,2.1459,-1.3913,-0.5565,0.487
2525,-9.5034,0.8047,2.2226,-2.2261,0.1391,0.9739
2530,-9.5034,0.7664,2.2992,-2.5739,0.9043,1.113
2535,-9.695,0.6514,2.3759,-2.3652,1.6696,1.3913
2540,-9.6184,0.843,2.6058,-1.7391,2.4348,1.4609
2545,-9.81,1.1879,2.2992,-0.8348,2.9913,1.6
2550,-9.6567,0.7281,2.6824,0.0,3.3391,1.7391
2555,-9.5801,0.843,2.4525,0.7652,3.4087,1.7391
2560,-9.6184,0.8814,2.4908,0.9739,3.6174,1.6696
2565,-9.8866,1.0346,2.6441,0.6261,3.2696,1.6
2570,-9.695,1.073,2.6824,0.9739,1.8087,1.5304
2575,-9.7717,1.1113,2.6824,1.8087,0.2783,1.3913
2580,-9.7334,1.073,2.4142,2.5739,-0.9043,1.3217
2585,-9.695,1.0346,2.4908,2.8522,-1.5304,1.3217
2590,-9.6567,1.2646,2.4525,2.713,-2.087,0.8348
2595,-9.6567,0.9963,2.4908,2.2261,-2.5739,0.5565
2600,-9.6184,1.3029,2.6824,1.4609,-2.8522,0.2783
2605,-9.3502,1.2263,2.6058,0.5565,-2.9913,0.2087
2610,-9.2735,1.1879,2.6824,-0.1391,-2.9217,0.0696
2615,-9.3502,1.1496,2.5291,-0.4174,-2.5739,0.2087
2620,-9.2735,1.1879,2.4908,-0.3478,-2.4348,0.2783
2625,-9.3502,1.2263,2.4908,0.0,-2.3652,0.4174
2630,-9.3885,1.2263,2.4142,0.4174,-2.5043,0.5565
2635,-9.3885,1.1113,2.6441,0.5565,-2.6435,0.6261
2640,-9.3885,1.073,2.4908,0.6261,-2.8522,0.6957
2645,-9.5034,0.843,2.4908,0.7652,-3.0609,0.7652
2650,-9.3502,0.958,2.3759,0.9739,-3.0609,0.6261
2655,-9.4268,0.7281,2.3759,1.3217,-3.2,0.6957
2660,-9.5418,0.7664,2.4525,1.6,-3.1304,0.5565
2665,-9.5418,0.7664,2.2992,1.8087,-3.2696,0.7652
2670,-9.4268,0.7281,2.3759,1.9478,-3.2696,0.6957
2675,-9.4651,0.843,2.4525,1.8783,-3.4783,0.6957
2680,-9.3885,0.843,2.6058,2.087,-3.6174,0.5565
2685,-9.1969,0.8047,2.6058,2.1565,-3.687,0.2783
2690,-9.3502,1.0346,2.6824,2.3652,-3.8261,0.0
2695,-9.3118,0.958,2.6824,2.5739,-3.9652,-0.1391
2700,-9.3118,0.958,2.5291,2.6435,-3.9652,-0.2783
2705,-9.3118,0.958,3.0273,2.5739,-3.8261,-0.5565
2710,-9.3502,0.9963,2.6058,2.5043,-3.4087,-0.8348
2715,-9.3885,0.958,2.7207,2.3652,-3.0609,-1.113
2720,-9.4651,1.0346,2.6058,2.2261,-2.4348,-1.3913
2725,-9.4651,0.8047,2.7974,2.1565,-1.9478,-1.3217
2730,-9.2352,0.8047,2.6824,2.1565,-1.4609,-1.3217
2735,-9.3885,0.843,2.6824,2.2957,-1.0435,-1.1826
2740,-9.3885,0.6898,2.7591,2.3652,-0.6957,-0.9043
2745,-9.5034,0.843,2.8357,2.3652,-0.5565,-0.7652
2750,-9.4651,0.958,2.7207,2.4348,-0.5565,-0.6261
2755,-9.2352,1.0346,2.3375,2.6435,-0.8348,-0.5565
2760,-9.4268,1.1496,2.6441,2.8522,-1.2522,-0.4174
2765,-9.3502,0.9963,2.7207,3.1304,-1.6696,-0.2783
2770,-9.3885,1.073,2.6824,3.2,-2.0174,-0.4174
2775,-9.4651,1.2646,2.6058,3.2,-2.2261,-0.4174
2780,-9.4268,1.2646,2.6441,2.9913,-2.4348,-0.5565
2785,-9.4651,1.073,2.5291,2.713,-2.5043,-0.6261
2790,-9.4268,1.073,2.5675,2.3652,-2.4348,-0.6261
2795,-9.5034,1.1113,2.6441,2.0174,-2.2261,-0.8348
2800,-9.4268,1.0346,2.7974,1.6,-1.8087,-0.7652
2805,-9.3885,0.9197,2.7591,1.3217,-1.3217,-0.7652
2810,-9.3885,0.9197,2.7591,1.3217,-0.8348,-0.7652
2815,-9.3118,0.8047,2.7974,1.3913,-0.487,-0.6261
2820,-9.3502,0.9197,2.6824,1.5304,-0.1391,-0.6261
2825,-9.4268,0.9197,2.6441,1.8087,0.0,-0.6261
2830,-9.3885,1.0346,2.5291,2.1565,0.0696,-0.6957
2835,-9.4651,0.8814,2.5291,2.5739,0.0696,-0.6957
2840,-9.3118,0.9197,2.4142,2.9217,-0.0696,-0.6957
2845,-9.5418,0.9197,2.6824,3.0609,0.0,-0.6957
2850,-9.3502,0.9197,2.6824,2.9913,-0.1391,-0.7652
2855,-9.5418,0.9963,2.5291,3.0609,-0.0696,-0.7652
2860,-9.5418,1.1879,2.6058,2.9913,0.0,-0.9043
2865,-9.5034,0.9197,2.874,2.8522,0.0,-0.9043
2870,-9.4268,1.073,2.6824,2.6435,-0.1391,-0.8348
2875,-9.4651,0.9963,2.7207,2.5739,0.0,-0.9043
2880,-9.4268,0.9963,2.6824,2.5043,0.0,-0.9043
2885,-9.4651,1.073,2.5675,2.4348,0.0,-0.9739
2890,-9.3885,1.1496,2.6058,2.3652,0.0696,-0.9739
2895,-9.3885,0.9963,2.6441,2.1565,-0.0696,-1.0435
2900,-9.4268,1.1496,2.6058,1.9478,-0.2783,-0.9043
2905,-9.3502,0.958,2.6058,1.3217,-0.5565,-0.6957
2910,-9.4268,1.073,2.5675,0.7652,-0.9043,-0.6261
2915,-9.5418,1.0346,2.6058,0.1391,-1.5304,-0.4174
2920,-9.3118,1.073,2.6441,-0.3478,-2.0174,-0.2783
2925,-9.3502,0.9197,2.5291,-0.6957,-2.3652,-0.3478
2930,-9.5034,0.9197,2.5291,-0.6957,-2.5739,-0.4174
2935,-9.3885,0.958,2.5675,-0.4174,-2.3652,-0.487
2940,-9.4268,0.9963,2.4908,-0.3478,-2.2957,-0.6957
2945,-9.4651,1.0346,2.5291,0.0696,-2.2261,-0.8348
2950,-9.6184,0.9963,2.4908,0.4174,-2.087,-1.0435
2955,-9.5034,0.958,2.5675,0.5565,-1.9478,-1.1826
2960,-9.7334,0.9963,2.4908,0.487,-1.7391,-1.2522
2965,-9.5418,0.9963,2.6058,0.5565,-1.5304,-1.0435
2970,-9.5418,1.0346,2.6058,0.8348,-1.5304,-0.6957
2975,-9.6567,0.6898,2.8357,0.9043,-1.1826,-0.6957
2980,-9.4651,0.843,2.5291,0.9043,-0.7652,-0.8348
2985,-9.5034,0.9197,2.6824,0.7652,-0.4174,-0.9739
2990,-9.4651,0.958,2.6441,0.8348,-0.2783,-1.0435
2995,-9.3502,0.8814,2.6441,1.113,-0.2087,-0.7652
