timestamp,accX,accY,accZ,gyroX,gyroY,gyroZ
0,0.6898,-9.4268,-0.9963,-1.113,-6.0522,0.8348
5,0.6514,-9.3502,-0.843,-1.1826,-6.1913,0.9043
10,0.6514,-9.3502,-0.9197,-1.3913,-6.4,0.7652
15,0.5748,-9.3118,-1.073,-1.8087,-6.4696,0.6957
20,0.5748,-9.3885,-0.9197,-2.1565,-6.6087,0.7652
25,0.6514,-9.4268,-1.1113,-2.5043,-6.6087,0.487
30,0.6898,-9.4651,-1.1879,-2.8522,-6.8174,0.4174
35,0.7281,-9.4268,-1.1879,-3.1304,-6.9565,0.2783
40,0.6898,-9.3502,-0.9197,-3.4783,-7.0957,0.2087
45,0.6131,-9.4268,-1.0346,-3.7565,-7.1652,0.1391
50,0.6898,-9.4651,-0.958,-3.9652,-7.2348,0.0696
55,0.5748,-9.3118,-1.073,-4.0348,-7.0957,-0.1391
60,0.7281,-9.3885,-0.958,-4.1043,-7.0957,-0.4174
65,0.6898,-9.4651,-1.0346,-4.4522,-6.8174,-0.487
70,0.6898,-9.3502,-0.9197,-4.7304,-6.4696,-0.7652
75,0.6898,-9.5418,-0.9197,-4.6609,-6.6783,-0.9043
80,0.843,-9.4268,-1.1879,-5.0087,-6.8174,-1.113
85,0.843,-9.5034,-1.1496,-5.2174,-6.7478,-1.3217
90,0.7664,-9.4268,-0.9197,-5.287,-6.6087,-1.3913
95,0.7281,-9.3885,-0.843,-5.287,-6.4,-1.4609
100,0.6898,-9.4268,-1.0346,-5.4957,-6.2609,-1.3217
105,0.7281,-9.5034,-0.9963,-5.5652,-6.1217,-1.2522
110,0.958,-9.5801,-0.9963,-5.6348,-5.9826,-1.3217
115,0.6131,-9.4651,-1.1113,-5.6348,-5.7739,-1.0435
120,0.7281,-9.3885,-1.2263,-5.7043,-5.913,-1.0435
125,0.6898,-9.4651,-1.3795,-6.0522,-6.1217,-0.7652
130,0.7664,-9.4651,-1.3795,-6.4,-6.3304,-0.6957
135,0.6131,-9.3885,-1.4179,-6.8174,-6.4696,-0.6261
140,0.6514,-9.4268,-1.3412,-7.3739,-6.7478,-0.5565
145,0.5365,-9.1969,-1.6095,-7.7913,-6.887,-0.487
150,0.5748,-9.3118,-1.4562,-8.487,-7.0261,-0.5565
155,0.6131,-9.2352,-1.6478,-9.3217,-7.3739,-0.6261
160,0.6898,-9.1202,-1.6478,-10.0174,-7.7217,-0.6957
165,0.6898,-9.1202,-1.6095,-10.7826,-8.1391,-0.5565
170,0.6131,-9.0436,-1.5328,-11.4783,-8.487,-0.6261
175,0.6131,-9.1586,-1.5328,-12.0348,-8.6957,-0.487
180,0.6131,-9.0819,-1.6095,-12.5217,-9.0435,-0.487
185,0.4982,-9.1202,-1.4179,-13.0783,-9.4609,-0.4174
190,0.6514,-9.1586,-1.5711,-13.5652,-9.9478,-0.3478
195,0.6514,-9.1202,-1.6095,-14.0522,-10.087,0.0696
200,0.5748,-9.0053,-1.6478,-14.4696,-10.1565,0.0696
205,0.7281,-9.0053,-1.5328,-14.887,-10.087,0.2087
210,0.8047,-8.967,-1.3412,-15.3043,-9.7391,0.2783
215,0.8047,-9.1586,-1.6478,-15.8609,-9.5304,0.3478
220,0.9197,-9.0053,-1.4945,-16.4174,-9.113,0.2783
225,0.8814,-9.0053,-1.6095,-17.2522,-8.7652,0.2087
230,0.9197,-9.1586,-1.5328,-18.087,-8.3478,0.0
235,1.0346,-9.0819,-1.4945,-18.7826,-8.0,-0.2087
240,1.1113,-8.9286,-1.3029,-19.5478,-7.5826,-0.4174
245,0.9963,-9.3118,-1.4945,-20.2435,-7.2348,-0.4174
250,0.958,-9.3118,-1.4945,-20.7304,-6.8174,-0.6261
255,0.8814,-9.3502,-1.5328,-21.0087,-6.4696,-0.6261
260,0.843,-9.3118,-1.6095,-21.1478,-6.2609,-0.7652
265,0.843,-9.2735,-1.6861,-21.2174,-6.0522,-0.8348
270,0.8047,-9.2352,-1.5711,-21.3565,-5.9826,-0.6261
275,0.6131,-9.1586,-1.6861,-21.5652,-5.8435,-0.487
280,0.7664,-9.2352,-1.6861,-21.9826,-5.7043,-0.2783
285,0.7664,-9.3502,-1.7627,-22.4696,-5.5652,-0.0696
290,0.6514,-9.2352,-1.9543,-22.6783,-5.2174,0.1391
295,0.7664,-9.3118,-1.6478,-22.6087,-4.9391,0.2783
300,0.6898,-9.3885,-1.7244,-22.2609,-4.3826,0.2087
305,0.6898,-9.4651,-1.6478,-21.4957,-3.8957,0.1391
310,0.843,-9.3502,-1.5328,-20.8,-2.9217,-0.0696
315,0.8814,-9.5418,-1.6478,-20.0348,-2.0174,-0.2087
320,0.958,-9.6567,-1.7244,-19.1304,-0.8348,-0.2783
325,1.073,-9.6184,-1.6478,-18.2261,0.2087,-0.2783
330,1.1113,-9.81,-1.4179,-17.3217,1.2522,-0.4174
335,1.1113,-9.81,-1.4562,-16.2783,2.2957,-0.4174
340,1.0346,-9.7334,-1.6861,-15.3739,3.3391,-0.3478
345,1.1496,-9.7334,-1.5711,-14.6087,4.313,-0.2087
350,1.1496,-9.695,-1.7244,-14.1217,5.1478,0.0
355,1.1113,-9.695,-1.7627,-13.7739,5.913,0.487
360,0.958,-9.5801,-1.8777,-13.4957,6.5391,0.9043
365,0.9963,-9.6184,-1.8394,-13.4261,7.0957,1.2522
370,0.7664,-9.5418,-1.8394,-13.2174,7.5826,1.7391
375,0.8047,-9.3885,-1.8777,-13.2174,7.6522,2.1565
380,0.6514,-9.3885,-2.031,-13.1478,7.7217,2.5043
385,0.6131,-9.4268,-2.031,-13.2174,7.6522,2.9217
390,0.5365,-9.4268,-2.031,-13.287,7.5826,3.3391
395,0.5748,-9.5801,-1.9543,-12.5913,7.5826,3.8261
400,0.6131,-9.5801,-2.031,-11.8957,7.3043,4.1739
405,0.6131,-9.5418,-1.9543,-11.0609,7.0957,4.4522
410,0.6514,-9.5034,-1.9927,-10.2261,7.0261,4.6609
415,0.8047,-9.6184,-2.031,-9.113,6.9565,4.7304
420,0.6131,-9.5418,-1.8011,-7.7913,6.887,4.8
425,0.5748,-9.3885,-1.8011,-6.8174,7.0261,4.8
430,0.7281,-9.4651,-1.7244,-6.0522,7.4435,4.8
435,0.7281,-9.3885,-1.8777,-5.287,8.2087,4.5913
440,0.7664,-9.3502,-1.8011,-4.6609,9.2522,4.2435
445,0.6131,-9.1586,-1.916,-4.5913,10.2957,4.1739
450,0.5748,-9.1969,-1.916,-4.8696,11.1304,4.0348
455,0.6514,-9.1202,-1.8394,-5.1478,11.8261,3.8261
460,0.5748,-9.0819,-1.916,-5.5652,12.2435,3.8261
465,0.5365,-8.967,-1.8777,-5.9826,12.5913,3.8261
470,0.4982,-9.1969,-1.9927,-6.4696,12.8696,3.9652
475,0.5748,-9.1586,-2.0693,-7.0261,12.9391,3.8261
480,0.4982,-9.2735,-2.031,-7.5826,13.0087,3.8261
485,0.4982,-9.3118,-2.1843,-8.0,13.0087,3.9652
490,0.4215,-9.3118,-2.2609,-8.5565,12.9391,4.0348
495,0.4598,-9.2735,-2.4142,-8.9043,12.8,4.313
500,0.4598,-9.2352,-2.3375,-9.113,12.5217,4.4522
505,0.5365,-9.3502,-2.4142,-9.3913,12.3826,4.7304
510,0.4215,-9.3502,-2.3759,-9.4609,12.2435,5.0783
515,0.4598,-9.2735,-2.3759,-9.1826,12.313,5.6348
520,0.4598,-9.3502,-2.2992,-8.8348,12.2435,5.9826
525,0.5365,-9.3502,-2.2609,-8.487,12.1739,6.6087
530,0.5748,-9.3502,-2.3375,-8.1391,11.9652,6.887
535,0.4598,-9.3502,-2.1459,-8.0,11.687,7.3043
540,0.4598,-9.3502,-2.3375,-8.0,11.2696,7.513
545,0.4215,-9.3118,-2.3759,-8.0696,10.9913,8.0
550,0.5365,-9.3502,-2.1843,-8.0,10.7826,8.2783
555,0.6514,-9.4651,-2.2609,-7.7913,10.5739,8.5565
560,0.5365,-9.3502,-2.2226,-7.513,10.3652,8.6261
565,0.4215,-9.4651,-1.6095,-7.0957,10.0174,8.6957
570,0.3449,-9.4651,-2.2609,-6.5391,9.6,8.7652
575,0.2299,-9.4268,-2.2609,-6.1217,9.113,8.6261
580,0.2299,-9.4651,-2.3759,-5.7043,8.2783,8.4174
585,0.115,-9.3502,-2.2992,-5.0783,7.5826,8.3478
590,0.0766,-9.4268,-2.2226,-4.3826,7.1652,8.2783
595,0.0383,-9.3118,-2.3375,-3.5478,6.9565,7.8609
600,0.1533,-9.2352,-2.2226,-2.713,6.7478,7.6522
605,0.115,-9.2735,-2.3375,-1.9478,6.6783,7.3739
610,0.115,-9.0819,-2.4142,-1.3217,6.5391,7.1652
615,0.115,-9.0819,-2.4142,-0.9043,6.2609,7.0261
620,0.115,-8.8137,-2.3375,-0.7652,5.9826,6.887
625,0.3066,-9.0053,-2.4142,-0.9739,5.5652,6.8174
630,0.4215,-8.9286,-2.5291,-1.4609,5.3565,6.6783
635,0.3832,-8.8137,-2.5675,-2.0174,5.1478,6.6783
640,0.4598,-8.8137,-2.4525,-2.5739,5.0087,6.5391
645,0.5365,-8.9286,-2.4908,-2.9913,5.0087,6.4696
650,0.6514,-8.967,-2.3375,-2.9217,5.287,6.3304
655,0.7281,-9.0436,-2.4525,-2.713,5.6348,6.2609
660,0.7281,-9.0819,-2.4142,-2.087,5.9826,6.0522
665,0.7664,-9.0819,-2.4142,-1.5304,6.1913,5.913
670,0.6898,-9.0819,-2.4142,-1.1826,6.4,5.7739
675,0.5748,-8.967,-2.5675,-0.9043,6.6783,5.7739
680,0.6131,-9.0436,-2.6824,-0.9739,6.887,5.4957
685,0.4982,-8.8903,-2.6441,-1.2522,6.7478,5.4261
690,0.3449,-8.8137,-2.7974,-1.5304,6.4696,5.1478
695,0.3066,-9.0819,-2.5675,-1.7391,5.913,4.8696
700,0.1916,-9.0436,-2.6824,-1.6,5.1478,4.8696
705,0.2682,-9.1202,-2.7591,-1.3913,4.3826,4.6609
710,0.1533,-9.0436,-2.7207,-1.4609,3.4087,4.3826
715,0.115,-9.0053,-2.7591,-1.2522,2.6435,4.0348
720,0.1916,-8.9286,-2.7974,-0.9043,2.0174,3.7565
725,0.1533,-8.7754,-2.5291,-0.4174,1.8087,3.4087
730,0.1533,-8.6987,-2.5675,0.487,1.3913,3.0609
735,0.3449,-8.967,-2.6824,0.9739,2.1565,2.9913
740,0.4598,-8.8903,-2.5291,2.0174,3.0609,2.5739
745,0.5365,-8.8903,-2.6441,2.9913,3.9652,2.4348
750,0.6898,-8.7754,-2.6441,3.8261,4.6609,2.5043
755,1.3029,-8.1239,-2.1076,4.4522,5.0783,2.5739
760,0.5748,-8.8137,-3.0273,4.8,4.313,2.087
765,0.6514,-8.6604,-2.6824,3.8957,5.0087,2.5043
770,0.7664,-8.6987,-2.874,3.5478,5.287,2.2957
775,0.6514,-8.6221,-2.7591,3.687,5.7043,2.0174
780,0.5365,-8.5071,-2.7974,3.687,6.1913,1.8087
785,0.5748,-8.4688,-2.9123,3.8261,6.4696,1.7391
790,0.0383,-8.967,-3.4488,5.7043,5.287,0.6957
795,0.2682,-8.737,-2.9123,3.4783,6.0522,2.0174
800,0.3066,-8.6987,-3.1039,2.9913,5.8435,2.0174
805,0.2682,-8.5454,-3.1039,3.2,5.4957,2.0174
810,0.2299,-8.4305,-2.874,3.687,4.5913,1.8783
815,-0.0383,-8.852,-3.3339,6.0522,2.713,1.113
820,0.0766,-8.6987,-2.9507,4.9391,2.5043,2.2957
825,0.2682,-8.5454,-2.9507,4.8,2.2957,2.6435
830,0.1916,-8.3538,-3.1423,5.6348,2.1565,2.7826
835,0.9963,-7.4725,-2.4525,6.3304,1.7391,2.9913
840,0.0383,-8.3155,-3.2955,8.2783,0.0696,2.1565
845,0.2299,-8.0473,-3.0273,6.3304,0.2783,3.4087
850,0.4598,-7.4725,-2.6824,5.6348,-0.1391,3.3391
855,0.2299,-7.7024,-3.1423,6.4,-1.2522,2.9217
860,0.4215,-7.5491,-3.2572,5.0783,-1.3217,3.0609
865,0.5365,-7.4725,-2.9123,4.1043,-1.4609,2.7826
870,0.2299,-7.3958,-3.1423,3.9652,-2.087,2.1565
875,0.3832,-7.2425,-3.0273,2.713,-2.2957,2.3652
880,0.3066,-7.1659,-3.1806,1.8783,-2.713,2.087
885,0.3066,-6.936,-3.2955,0.9043,-3.2696,2.1565
890,0.1916,-6.8977,-3.1806,-0.2783,-3.7565,2.2261
895,0.0766,-6.7061,-3.1039,-1.6,-4.5913,2.3652
900,0.0766,-6.5911,-2.989,-2.7826,-5.6348,2.2261
905,0.0,-6.6294,-3.1039,-3.7565,-6.5391,2.087
910,-0.0383,-6.5911,-3.0273,-5.0783,-7.3739,2.2957
915,-0.1916,-6.2845,-2.874,-6.8174,-8.2783,2.4348
920,-0.0766,-6.3229,-2.8357,-8.487,-8.7652,2.5739
925,0.0766,-6.2845,-2.7974,-10.1565,-9.113,2.5043
930,0.0766,-6.1696,-2.989,-11.4783,-9.3217,2.6435
935,0.0766,-6.0546,-2.7207,-13.0783,-9.4609,2.6435
940,0.2299,-6.1696,-2.6058,-14.6087,-9.4609,2.7826
945,0.3449,-6.0929,-2.7591,-15.9304,-9.5304,2.8522
950,0.4215,-6.3229,-2.5675,-17.4609,-9.3217,2.9913
955,0.4982,-6.0546,-2.6441,-19.1304,-9.1826,2.8522
960,0.5365,-6.1313,-2.6824,-20.3826,-8.7652,2.5043
965,0.5365,-6.0163,-2.5291,-21.7043,-8.2783,1.8783
970,0.4598,-6.1313,-2.5675,-22.6783,-7.7913,1.3913
975,0.6514,-6.2462,-2.6824,-23.3739,-7.3043,0.9739
980,0.5748,-6.0546,-2.6058,-23.9304,-6.7478,0.6957
985,0.5748,-6.0546,-2.6058,-24.3478,-6.1913,0.3478
990,0.4215,-6.0929,-2.5291,-24.6261,-5.8435,0.2087
995,0.3066,-5.978,-2.6058,-24.8348,-5.6348,0.1391
1000,0.4598,-5.8247,-2.4142,-25.2522,-5.4261,0.2087
1005,0.3832,-5.9013,-2.5675,-25.6,-5.3565,0.0696
1010,0.1916,-6.0163,-2.2992,-26.5739,-5.0783,-0.0696
1015,0.115,-6.0163,-2.4908,-26.5043,-5.0783,-0.2087
1020,0.115,-6.1696,-2.3375,-26.1565,-5.0087,-0.2783
1025,0.1916,-6.1313,-2.2992,-25.6,-4.5217,-0.0696
1030,0.1533,-6.2079,-2.4908,-24.7652,-4.1043,-0.2783
1035,0.0766,-6.4378,-2.4525,-24.6261,-3.7565,-0.2087
1040,0.0383,-6.3612,-2.5675,-25.0435,-3.6174,-0.3478
1045,0.0766,-6.5911,-2.6824,-25.1826,-3.5478,-0.6261
1050,0.0383,-6.5528,-2.6058,-25.2522,-3.4783,-0.6261
1055,-0.115,-6.2462,-2.6441,-25.1826,-3.4087,-0.7652
1060,0.0383,-6.7444,-2.7207,-24.8348,-3.6174,-0.9043
1065,-0.1533,-6.936,-2.6058,-24.0,-3.8261,-0.9043
1070,-0.0383,-7.0893,-2.4908,-22.6783,-4.1739,-0.8348
1075,-0.0383,-7.1659,-2.5675,-20.5913,-4.5217,-0.6261
1080,-0.0383,-7.1659,-2.5675,-18.5739,-5.2174,-0.2783
1085,0.0383,-7.0893,-2.5291,-16.1391,-5.6348,-0.3478
1090,0.0383,-7.0126,-2.5291,-13.8435,-6.0522,-0.4174
1095,0.0383,-6.8593,-2.4142,-12.0348,-5.7739,-0.3478
1100,0.1916,-6.6294,-2.5291,-10.4348,-5.0783,-0.4174
1105,0.1533,-6.5528,-2.5291,-8.5565,-4.5913,-0.3478
1110,0.115,-6.7444,-2.8357,-6.6087,-4.2435,-0.487
1115,0.1916,-6.821,-2.6058,-4.9391,-4.2435,-0.9739
1120,0.3066,-7.0893,-2.6058,-3.4087,-4.4522,-1.6
1125,0.4982,-6.8977,-2.7974,-1.8087,-4.5913,-2.2957
1130,0.3832,-6.7827,-2.7591,0.487,-4.5913,-3.2
1135,0.3832,-6.6294,-2.6058,2.2957,-4.5217,-4.1739
1140,0.1916,-6.4378,-2.9123,3.6174,-4.4522,-5.287
1145,0.3066,-6.1696,-2.9123,4.3826,-4.1043,-5.9826
1150,0.2682,-6.0929,-2.8357,4.9391,-3.8261,-6.4696
1155,0.1916,-5.9013,-2.9123,5.3565,-3.4783,-6.887
1160,0.2299,-5.978,-2.7974,5.913,-3.3391,-7.513
1165,0.1916,-5.8247,-2.7974,6.6087,-3.1304,-7.8609
1170,0.0766,-5.5564,-2.8357,6.887,-3.0609,-8.1391
1175,0.0,-5.7097,-2.874,7.1652,-3.2,-8.2783
1180,0.0,-5.6331,-2.7974,6.9565,-3.687,-8.0
1185,0.0383,-5.5564,-2.7974,6.6783,-4.1043,-7.7913
1190,0.0,-5.6714,-2.7207,7.0261,-4.5913,-7.9304
1195,-0.115,-5.5948,-2.6441,7.5826,-5.0087,-7.7913
1200,-0.0766,-5.6714,-2.6824,8.4174,-5.3565,-7.2348
1205,-0.1533,-5.3648,-2.5675,9.113,-5.7739,-6.9565
1210,0.0,-5.4798,-2.5675,10.5043,-6.1913,-6.6087
1215,0.0383,-5.4032,-2.6824,12.1739,-6.2609,-6.3304
1220,0.3066,-5.3648,-2.6824,13.8435,-6.5391,-6.6087
1225,0.1533,-5.4032,-2.5291,15.6522,-6.9565,-6.887
1230,0.4598,-5.4415,-2.6441,16.9739,-7.0261,-7.2348
1235,0.4598,-5.5181,-2.4525,18.1565,-6.5391,-7.513
1240,0.5365,-5.4032,-2.4142,19.8261,-5.8435,-8.1391
1245,0.9963,-5.4415,-2.2609,21.287,-4.1739,-8.6261
1250,0.7281,-5.2882,-2.2226,21.7043,-1.8783,-8.487
1255,0.4982,-5.1349,-2.2609,22.5391,-0.7652,-8.7652
1260,0.6514,-5.2116,-1.8011,24.2087,-0.6957,-8.9043
1265,0.4598,-5.1732,-1.7244,26.713,-0.0696,-8.9739
1270,0.3066,-5.3265,-1.6095,29.0783,0.6957,-8.6957
1275,-0.0766,-5.6331,-1.4945,32.4174,2.2261,-8.5565
1280,0.0383,-5.748,-1.2263,37.3565,3.3391,-8.7652
1285,0.0,-5.6331,-0.6898,42.713,4.6609,-8.5565
1290,-0.115,-5.7097,-0.3449,47.0957,5.1478,-8.2087
1295,0.0766,-5.5948,-0.1916,51.4783,5.913,-6.9565
1300,0.0,-5.6331,0.4215,55.8609,7.4435,-6.0522
1305,0.115,-5.3648,0.9197,59.4087,8.2087,-4.9391
1310,0.5365,-5.6331,1.2646,60.7304,8.0,-3.8261
1315,0.1916,-5.978,1.3795,62.5391,7.9304,-2.5043
1320,0.0766,-5.978,1.4179,64.487,7.6522,-0.487
1325,0.5748,-6.4378,1.1496,67.0609,7.3739,2.087
1330,0.958,-7.2425,0.5748,69.6348,8.5565,4.7304
1335,0.3066,-8.2005,-0.4215,72.9739,11.0609,6.6783
1340,0.115,-8.7754,-1.1113,79.1652,13.5652,8.4174
1345,-0.2299,-9.5034,-1.6861,88.1391,16.487,9.3913
1350,-0.3832,-9.925,-2.1459,98.5043,18.7826,11.9652
1355,-0.7664,-10.0016,-1.8777,109.4261,18.5739,15.8609
1360,-1.0346,-10.1166,-1.4562,121.3217,16.2087,19.9652
1365,-1.1879,-10.3848,-1.1879,133.9826,12.7304,23.5826
1370,-1.5328,-10.7297,-0.5748,146.9913,8.5565,25.8783
1375,-1.6861,-10.9213,-0.3066,160.4174,3.0609,26.5739
1380,-1.5711,-11.3428,0.0,174.5391,-2.6435,26.0174
1385,-1.4945,-11.5727,0.2299,188.6609,-8.0696,24.6957
1390,-1.2646,-11.6494,0.5748,202.7826,-12.2435,22.8174
1395,-0.6514,-11.4195,0.8047,216.0,-15.513,20.6609
1400,-0.3066,-11.2279,0.9963,228.4522,-18.2261,18.4348
1405,-0.115,-10.9979,0.9197,239.5826,-20.5217,16.487
1410,0.0,-10.6914,1.073,248.8348,-23.2348,14.9565
1415,0.0,-9.695,1.3795,255.4435,-26.2261,13.8435
1420,-0.1533,-8.8903,2.1843,257.8783,-29.1478,12.7304
1425,0.0,-8.7754,2.0693,256.2087,-31.4435,10.8522
1430,0.115,-10.1932,2.2609,250.6435,-32.1391,8.8348
1435,0.0383,-12.1475,1.916,244.5217,-30.8174,5.7739
1440,-0.5365,-14.5617,1.1113,239.9304,-28.6609,3.0609
1445,-0.843,-16.3628,1.1496,237.2174,-26.9913,1.4609
1450,-1.4562,-19.6966,0.843,232.9043,-26.2957,-0.2087
1455,-1.4945,-23.7203,0.2299,228.3826,-26.9913,-3.8957
1460,-1.9927,-26.6326,-0.0766,229.9826,-26.9217,-7.9304
1465,-1.9543,-30.3497,-0.843,239.0957,-27.7565,-11.8261
1470,-1.7244,-34.3733,-0.4982,258.0174,-28.0348,-15.7913
1475,-0.7281,-37.8221,0.4215,285.7043,-28.2435,-18.1565
1480,0.1533,-40.4663,1.3029,315.4783,-27.7565,-19.4087
1485,0.4215,-43.3403,3.2189,340.4522,-27.687,-21.0783
1490,0.115,-46.0993,5.02,359.9304,-27.9652,-24.6957
1495,-0.2682,-48.2836,5.9396,376.2783,-30.9565,-32.2783
1500,-0.8047,-49.3182,5.4415,391.4435,-34.2957,-40.7652
1505,-0.6514,-48.9734,5.2499,401.5304,-35.3391,-46.8174
1510,2.3375,-47.7471,6.9743,405.913,-31.9304,-50.087
1515,2.4525,-43.0337,8.9286,413.0087,-24.4174,-51.0609
1520,2.6058,-34.6799,9.1586,425.9478,-17.2522,-51.8261
1525,2.1076,-23.3371,8.5454,436.7304,-13.6348,-50.2957
1530,3.2189,-15.0216,8.0089,431.513,-13.0087,-43.8261
1535,6.1313,-6.7061,8.0089,409.6696,-11.8957,-37.5652
1540,7.5874,-2.2609,8.6221,381.2174,-4.9391,-34.6435
1545,9.6184,-2.1076,6.4378,356.6609,7.4435,-36.0348
1550,7.894,-3.5638,3.2572,341.5652,22.1217,-38.9565
1555,3.9853,-5.863,-0.9963,335.9304,29.3565,-42.2261
1560,0.3449,-6.936,-3.8704,335.8609,25.2522,-43.1304
1565,-0.5748,-8.0473,-3.0273,333.0087,14.887,-40.9739
1570,-0.9197,-8.5838,-2.3375,331.9652,9.2522,-37.2174
1575,-1.073,-7.5108,-2.6058,332.1043,9.0435,-35.687
1580,-1.9543,-5.6331,-4.2536,325.7739,8.5565,-36.0348
1585,-2.7207,-2.7591,-5.2116,314.3652,6.6783,-36.2435
1590,-2.5675,0.115,-5.4415,301.287,4.3826,-36.9391
1595,-2.1843,2.6058,-5.6331,290.7826,5.0783,-38.9565
1600,-1.2263,4.0236,-5.5564,281.8087,9.0435,-40.2087
1605,-0.5365,5.2116,-3.4871,272.9043,12.9391,-41.5304
1610,0.0766,5.4798,-3.3339,268.2435,15.3043,-39.7217
1615,2.2609,5.1732,-0.4215,258.7826,14.7478,-33.7391
1620,3.5255,3.947,2.8357,247.9304,18.9913,-29.1478
1625,2.3375,2.4142,5.5181,242.087,28.1739,-24.1391
1630,1.0346,1.1496,7.3575,235.2696,32.0696,-18.3652
1635,-1.5328,-0.4215,9.0819,228.313,29.0087,-12.4522
1640,-3.6404,-1.3029,10.4231,224.0696,24.5565,-6.1913
1645,-2.4525,-0.6131,10.8446,217.3913,22.4696,0.9043
1650,-3.4488,0.958,12.4924,206.2609,24.6261,7.4435
1655,-4.2919,3.0656,14.0252,192.5565,26.4348,13.8435
1660,-3.4105,5.6331,15.673,179.4783,24.6957,20.3826
1665,-1.8777,7.3575,17.0142,166.3304,18.5043,25.9478
1670,-0.6131,7.6257,17.6273,150.4696,8.5565,29.0087
1675,1.1879,7.2809,17.4357,133.913,-0.3478,29.913
1680,2.2992,6.7444,17.2825,120.0,-3.8957,29.0783
1685,3.6021,6.3995,17.0525,109.913,-2.087,27.4087
1690,3.7171,6.3229,17.3591,100.6609,1.0435,24.7652
1695,4.79,5.978,17.6273,92.2435,2.7826,21.9826
1700,4.79,5.6331,17.5507,82.6435,4.8696,20.5217
1705,4.1769,5.4798,16.7843,70.7478,7.8609,20.6609
1710,3.7171,5.2499,15.558,57.5304,10.9913,21.3565
1715,4.3302,5.02,14.4851,45.4957,13.287,22.6783
1720,3.3722,4.8667,13.7953,35.5478,15.7217,23.9304
1725,2.4525,4.905,13.5271,29.913,16.3478,25.8087
1730,1.9543,5.02,12.8373,27.3391,15.6522,27.687
1735,1.9543,5.1732,12.8373,24.9043,14.8174,29.1478
1740,1.8394,4.9433,10.5764,22.6087,13.0087,30.5391
1745,0.9963,4.1386,9.7717,18.087,14.1913,30.5391
1750,1.1496,3.2189,9.4268,16.9043,11.9652,30.6783
1755,0.9197,2.6824,8.6987,17.6,10.087,30.1913
1760,0.7281,2.5291,8.3155,18.4348,9.5304,29.4957
1765,0.2682,2.6441,8.0089,19.2696,9.3913,29.3565
1770,0.115,2.8357,8.2389,20.6609,7.2348,28.6609
1775,0.3832,3.2572,8.0089,21.6348,5.2174,26.5739
1780,0.3832,3.7171,8.0856,20.2435,4.9391,24.487
1785,0.1533,3.5638,7.6641,16.9043,4.313,23.1652
1790,0.2299,3.4105,7.1659,13.5652,3.7565,21.8435
1795,0.115,3.0656,6.821,11.3391,2.6435,20.5217
1800,0.0766,2.8357,6.7827,10.713,1.6,19.4087
1805,-0.3832,2.6441,6.8593,11.4783,0.2783,17.9478
1810,-0.6514,2.5291,7.3192,12.3826,-0.6957,16.7652
1815,-1.2263,2.6058,7.3958,13.3565,-2.2261,15.7217
1820,-0.843,2.6824,7.7407,13.7043,-3.4783,14.9565
1825,-0.4982,2.6824,7.8557,13.4957,-5.0087,13.7043
1830,-0.3066,2.9123,7.894,13.3565,-5.913,11.4783
1835,-0.3066,3.0273,8.6604,12.8,-5.4261,9.6
1840,-0.0766,2.6441,8.9286,11.6174,-5.7043,8.4174
1845,0.0383,2.3375,9.3885,10.3652,-5.4957,7.0957
1850,-0.1533,1.8777,10.3082,9.6,-5.0783,6.1217
1855,0.1916,1.5711,9.5418,9.1826,-4.7304,5.2174
1860,0.5748,1.2263,9.695,8.6957,-3.8261,4.9391
1865,0.6131,0.6898,10.0782,7.7217,-2.7826,4.9391
1870,0.3066,0.4598,10.1932,7.3043,-2.4348,5.1478
1875,-0.3449,0.3832,10.6147,7.513,-2.3652,5.913
1880,-0.6514,0.2682,10.5381,8.2783,-3.6174,6.5391
1885,-0.3066,0.5365,10.5381,9.6696,-5.1478,6.1217
1890,-0.0766,0.6898,10.5764,10.4348,-5.9826,4.8
1895,0.2682,0.9197,10.4614,10.9217,-6.4,2.9217
1900,0.3066,1.0346,10.5381,10.7826,-6.1913,1.1826
1905,0.4982,1.0346,10.5381,10.4348,-5.7739,-0.5565
1910,0.6898,0.8047,10.4998,8.9739,-5.6348,-2.1565
1915,0.3832,0.5748,10.5381,5.913,-5.9826,-3.8261
1920,0.8814,-0.3066,10.4998,2.3652,-6.1217,-4.9391
1925,0.3832,-0.4598,10.7297,-0.2783,-4.1043,-3.687
1930,0.115,-0.7664,10.9213,-1.8783,-2.6435,-2.5043
1935,-0.3066,-0.9197,10.8446,-2.713,-2.087,-2.087
1940,-0.3832,-0.7664,10.2698,-4.0348,-1.8087,-2.087
1945,-0.3832,-0.6898,9.9633,-6.6087,-1.8087,-1.9478
1950,-0.2682,-0.4598,9.6567,-9.7391,-2.1565,-1.8087
1955,0.0,-0.5748,9.4651,-12.4522,-2.713,-1.6
1960,0.2299,-0.6131,9.4268,-13.8435,-3.2,-1.4609
1965,0.4598,-0.7281,9.1969,-14.2609,-3.7565,-1.1826
1970,0.5365,-0.9963,9.3118,-13.6348,-4.2435,-0.6957
1975,0.8047,-1.3412,9.1586,-12.3826,-4.7304,-0.0696
1980,0.8814,-1.6095,8.967,-10.8522,-4.8696,0.1391
1985,0.9197,-2.1076,9.0819,-9.1826,-4.8,0.1391
1990,0.8814,-2.4525,9.0053,-7.3043,-4.3826,0.0696
1995,0.958,-2.6441,9.0436,-5.0087,-3.9652,-0.1391
2000,0.843,-2.9123,9.3118,-2.7826,-3.4783,-0.2087
2005,0.9197,-2.7974,9.1202,-1.113,-2.5043,-0.2087
2010,1.0346,-2.7207,9.3502,0.0,-1.6696,-0.6261
2015,0.843,-2.5291,9.1969,0.6957,-1.113,-0.6261
2020,0.7281,-2.3375,9.2352,0.6261,-0.7652,-0.8348
2025,0.7281,-2.2226,9.3885,0.1391,-0.6957,-1.113
2030,0.6898,-1.9543,9.3502,-0.7652,-0.7652,-1.8087
2035,0.8814,-1.916,9.3885,-1.8087,-0.7652,-2.4348
2040,0.9197,-1.8394,9.3885,-2.9913,-0.7652,-3.1304
2045,0.958,-1.9927,9.2735,-4.3826,-0.5565,-3.4087
2050,0.958,-1.9543,9.4268,-5.7739,0.0,-3.9652
2055,0.958,-2.1076,9.2735,-6.6783,0.6957,-4.1739
2060,1.0346,-2.2226,9.3885,-7.2348,1.3913,-4.3826
2065,1.1496,-2.4142,9.5034,-7.4435,2.0174,-4.3826
2070,1.1496,-2.5291,9.2735,-7.6522,2.7826,-4.4522
2075,1.1879,-2.6441,9.5801,-7.8609,3.7565,-4.6609
2080,0.9197,-2.6058,9.5801,-7.8609,4.8,-5.0087
2085,0.9197,-2.6441,9.6567,-7.513,5.6348,-5.0087
2090,0.7664,-2.6441,9.6567,-6.4696,6.4696,-5.287
2095,0.5365,-2.6824,9.5034,-5.7739,7.0957,-5.1478
2100,0.6131,-2.8357,9.3118,-5.8435,7.4435,-4.7304
2105,1.073,-2.7974,9.1586,-6.6783,7.7217,-4.3826
2110,0.958,-2.7974,9.1586,-7.0957,8.1391,-4.4522
2115,1.0346,-2.6824,9.3885,-6.887,8.487,-4.9391
2120,0.9963,-2.6441,9.3885,-6.1913,8.9739,-5.3565
2125,0.6898,-2.6824,9.4268,-5.287,9.3217,-5.8435
2130,0.1916,-2.5675,9.7334,-4.5217,9.3913,-6.1217
2135,0.0383,-2.4525,9.7334,-3.6174,9.113,-6.1913
2140,0.0,-2.1843,9.8483,-3.0609,8.2783,-6.0522
2145,-0.1533,-2.2226,10.1166,-2.2957,7.4435,-5.8435
2150,-0.0766,-2.0693,10.1166,-0.8348,6.8174,-5.4957
2155,-0.1916,-2.0693,10.2315,0.1391,6.1217,-5.2174
2160,-0.1533,-1.9543,10.1549,0.6957,5.4261,-4.9391
2165,-0.0383,-2.1459,10.0399,0.9739,4.7304,-4.8696
2170,0.0383,-1.8394,9.695,0.9043,4.1739,-4.9391
2175,0.1533,-1.4945,9.6567,0.5565,3.6174,-4.8696
2180,0.3066,-1.5328,9.5034,0.3478,3.5478,-5.0783
2185,-0.4598,-1.2263,9.5801,0.2087,3.8261,-5.0087
2190,-0.5748,-1.3795,9.6184,0.487,3.2,-4.313
2195,-0.6514,-1.3029,9.5418,1.1826,2.7826,-3.4783
2200,-0.3449,-1.6478,9.1969,2.5043,2.1565,-2.1565
2205,-1.4179,-1.6861,9.0819,4.0348,2.1565,-0.6957
2210,-0.5365,-1.5328,9.1586,6.1217,1.113,1.3913
2215,-1.2646,-1.6861,9.5418,8.4174,0.0,2.5739
2220,-0.8814,-1.5711,8.9286,9.6696,-1.113,4.1739
2225,-0.6131,-1.5711,8.967,9.7391,-1.2522,5.5652
2230,0.3066,-1.3412,8.7754,8.8348,-0.4174,6.5391
2235,-0.1916,-1.2263,9.0053,7.7913,1.113,7.5826
2240,0.0383,-1.1113,9.2352,7.0957,1.9478,8.9739
2245,-0.2299,-0.843,9.5801,6.4696,2.8522,10.4348
2250,0.1916,-0.843,9.5418,7.0261,3.1304,12.5913
2255,0.5748,-0.843,9.1586,7.4435,3.687,14.6783
2260,1.2646,-0.9197,9.0436,7.4435,4.3826,16.1391
2265,1.6861,-1.0346,8.8137,6.887,5.3565,16.7652
2270,1.8394,-1.4945,8.9286,6.2609,6.1217,16.7652
2275,1.7627,-1.8011,8.9286,5.9826,6.3304,16.2783
2280,1.8394,-2.0693,8.967,6.1217,6.0522,15.513
2285,2.0693,-2.3759,9.0436,6.1913,5.7739,14.4
2290,2.1843,-2.8357,9.1586,6.4,5.7043,12.5217
2295,2.1459,-2.989,9.1969,6.7478,5.7739,9.9478
2300,1.9927,-3.1806,9.3885,7.3043,5.7739,7.2348
2305,2.0693,-3.1806,9.3885,7.6522,5.4957,4.1739
2310,1.916,-3.1039,9.3885,7.8609,5.2174,1.113
2315,1.6861,-2.9507,9.6567,7.9304,4.5217,-1.6
2320,1.7244,-2.7591,9.5418,7.9304,3.6174,-4.0348
2325,1.8011,-2.7207,9.5418,8.1391,2.6435,-6.1217
2330,1.8394,-2.5291,9.3502,8.0696,2.1565,-8.0
2335,1.916,-2.3375,9.3885,7.7217,2.2957,-9.6696
2340,1.916,-2.3759,9.2735,7.0261,2.7826,-11.2696
2345,1.7244,-2.2609,9.1202,6.0522,3.8261,-12.7304
2350,1.8011,-2.2609,9.3502,5.0783,4.9391,-14.0522
2355,1.6478,-2.1843,9.1202,4.5913,6.2609,-14.7478
2360,1.4179,-2.2992,9.2352,4.2435,7.7913,-15.3739
2365,1.2646,-2.2609,9.2352,3.8957,9.3217,-15.3739
2370,0.9197,-2.2609,9.0436,3.5478,10.5739,-15.0957
2375,0.6898,-2.1843,9.1969,2.9913,11.687,-14.6087
2380,0.4598,-2.2226,9.2735,2.6435,12.5217,-13.8435
2385,0.0766,-2.3375,9.3502,2.3652,12.9391,-12.8696
2390,0.0,-2.2992,9.3502,2.1565,13.1478,-11.8261
2395,-0.3832,-2.1843,9.2735,1.8087,13.2174,-10.3652
2400,-0.6131,-2.031,9.4268,1.4609,13.287,-9.2522
2405,-0.7281,-2.0693,9.4268,1.1826,13.0783,-8.2087
2410,-0.6131,-2.1843,8.9286,0.9043,12.5217,-6.887
2415,-0.8814,-1.8011,9.4651,0.7652,11.8261,-5.5652
2420,-0.958,-1.916,9.5418,0.7652,10.8522,-4.2435
2425,-1.1113,-1.8394,9.4268,0.6957,10.087,-3.0609
2430,-0.958,-2.031,9.5801,0.6261,9.2522,-1.8783
2435,-0.8814,-1.9543,9.5034,0.4174,8.7652,-1.0435
2440,-0.8047,-2.1076,9.5034,0.1391,8.4174,-0.2087
2445,-0.958,-2.031,9.5801,0.0696,8.2087,0.2783
2450,-0.843,-2.1076,9.6567,0.2087,8.1391,0.6957
2455,-0.8814,-2.1843,9.695,0.7652,8.0,0.8348
2460,-0.6898,-2.1843,9.6184,1.3217,8.0,0.9739
2465,-0.6131,-2.1076,9.5801,1.9478,7.9304,0.9739
2470,-0.6514,-2.1843,9.5034,2.6435,7.8609,1.113
2475,-0.5748,-1.9927,9.6184,3.2,7.5826,0.9043
2480,-0.6514,-1.8777,9.5801,3.7565,7.4435,1.0435
2485,-0.3832,-1.9543,9.5801,4.1739,7.0261,1.113
2490,-0.3066,-1.916,9.5418,4.5217,6.5391,1.1826
2495,-0.3066,-1.7627,9.6184,4.6609,5.9826,1.113
2500,-0.1916,-1.8777,9.5418,4.8,5.4957,1.113
2505,-0.115,-1.8011,9.4651,4.8,5.0087,1.2522
2510,-0.2299,-1.7627,9.6184,4.8,4.8696,1.3217
2515,-0.0383,-1.7244,9.4651,4.9391,4.6609,1.4609
2520,-0.0383,-1.8777,9.3502,4.8696,4.5217,1.6696
2525,-0.0383,-1.7244,9.3885,4.8,4.2435,2.087
2530,0.0766,-1.5328,9.3118,4.8,3.9652,2.5043
2535,0.0,-1.6861,9.2735,4.8696,3.6174,2.8522
2540,0.0,-1.8011,9.3885,5.0087,3.2,3.0609
2545,0.0,-1.6478,9.2352,5.1478,2.6435,3.3391
2550,0.0,-1.7627,9.3118,5.3565,2.1565,3.5478
2555,0.0,-1.7627,9.3118,5.3565,1.3913,3.4783
2560,0.0383,-1.8011,9.5034,5.3565,0.6261,3.6174
2565,0.0,-1.8011,9.5418,5.287,0.0696,3.5478
2570,0.1916,-1.7244,9.4651,5.1478,-0.5565,3.3391
2575,0.0766,-1.7244,9.5801,5.0783,-1.113,3.0609
2580,0.2682,-1.916,9.4651,5.287,-1.2522,2.9217
2585,0.3066,-1.916,9.4268,5.4261,-1.4609,2.6435
2590,0.3449,-1.9543,9.4268,5.5652,-1.3913,2.2261
2595,0.2682,-2.031,9.4651,5.7739,-1.113,1.9478
2600,0.2682,-1.9927,9.3885,5.913,-0.9739,1.6696
2605,0.2299,-2.031,9.3885,6.2609,-0.6957,1.4609
2610,0.2682,-2.0693,9.4651,6.6783,-0.5565,1.0435
2615,0.3066,-2.031,9.3502,7.0261,-0.5565,0.6261
2620,0.1916,-1.916,9.5418,7.4435,-0.487,0.1391
2625,0.3066,-1.9927,9.6567,8.0,-0.6957,-0.3478
2630,0.2682,-1.9927,9.3885,8.487,-0.7652,-1.0435
2635,0.3066,-1.916,9.3502,8.8348,-0.8348,-1.3913
2640,0.3449,-1.7244,9.4268,8.9739,-0.9043,-1.9478
2645,0.4215,-1.7627,9.5034,8.9043,-0.9739,-2.2957
2650,0.3832,-1.8011,9.5418,8.7652,-0.8348,-2.6435
2655,0.3832,-1.8777,9.5418,8.4174,-0.8348,-2.9913
2660,0.4598,-1.7627,9.5418,8.0,-0.6261,-3.4087
2665,0.4982,-1.7244,9.6184,7.5826,-0.5565,-3.687
2670,0.4215,-1.8777,9.5801,7.3043,-0.487,-3.7565
2675,0.4598,-1.8777,9.6567,6.9565,-0.3478,-4.0348
2680,0.3832,-1.8777,9.4268,6.8174,-0.2783,-4.2435
2685,0.2682,-1.8011,9.3885,6.6087,-0.1391,-4.6609
2690,0.1916,-1.8394,9.5418,6.4696,-0.0696,-4.8
2695,0.2299,-1.916,9.3502,6.4,0.0,-4.9391
2700,0.115,-1.8011,9.3502,6.4696,0.0,-5.2174
2705,-0.0383,-1.7627,9.3885,6.6087,0.0696,-5.5652
2710,0.0,-1.6861,9.3885,6.8174,0.0696,-5.8435
2715,-0.0383,-1.7244,9.4651,6.8174,0.1391,-6.2609
2720,-0.1533,-1.5711,9.5418,6.8174,0.1391,-6.4696
2725,0.0,-1.5711,9.3885,6.5391,0.3478,-6.7478
2730,-0.115,-1.4562,9.4268,6.1913,0.5565,-6.7478
2735,-0.1916,-1.6861,9.6184,5.6348,0.7652,-6.887
2740,-0.3066,-1.4562,9.7717,5.287,0.9043,-6.9565
2745,-0.3832,-1.4945,9.695,5.1478,0.7652,-6.7478
2750,-0.3449,-1.6478,9.5801,5.1478,0.6957,-6.5391
2755,-0.2682,-1.5711,9.5034,5.0783,0.5565,-6.0522
2760,-0.2682,-1.6478,9.5801,5.0087,0.0696,-5.7043
2765,-0.2299,-1.6478,9.5801,4.9391,-0.4174,-5.3565
2770,-0.3832,-1.6095,9.4651,4.8,-1.0435,-5.0783
2775,-0.3449,-1.5711,9.6184,4.6609,-1.6696,-4.8
2780,-0.4598,-1.6478,9.5034,4.7304,-2.2957,-4.5217
2785,-0.4215,-1.6861,9.3885,4.8,-3.0609,-4.313
2790,-0.3449,-1.7244,9.5034,5.0783,-3.6174,-4.313
2795,-0.3066,-1.6861,9.4268,5.287,-4.0348,-4.0348
2800,-0.2682,-1.8011,9.3885,5.6348,-4.3826,-3.9652
2805,-0.2299,-1.8777,9.5034,6.0522,-4.6609,-3.8261
2810,-0.2299,-1.8011,9.4651,6.5391,-4.7304,-3.687
2815,-0.3066,-1.5711,9.5418,6.6087,-4.9391,-3.4783
2820,-0.115,-1.6095,9.5418,6.4696,-5.0087,-3.2696
2825,-0.0383,-1.6095,9.5034,6.1217,-5.0783,-2.9217
2830,0.0383,-1.6478,9.5034,5.8435,-5.1478,-2.8522
2835,0.0383,-1.5711,9.3502,5.4261,-5.0783,-2.6435
2840,0.2299,-1.4562,9.3885,5.0783,-4.9391,-2.4348
2845,0.3449,-1.5711,9.5034,4.8696,-4.8696,-2.2261
2850,0.2682,-1.6478,9.5418,4.7304,-4.8696,-2.2261
2855,0.3449,-1.6095,9.4651,4.5913,-5.0783,-2.2261
2860,0.3449,-1.5328,9.5034,4.6609,-5.2174,-2.1565
2865,0.3449,-1.6095,9.4268,4.6609,-5.287,-2.1565
2870,0.4598,-1.6478,9.4651,4.8,-5.287,-2.2957
2875,0.4598,-1.5711,9.3885,4.8696,-5.3565,-2.5043
2880,0.4982,-1.6478,9.5034,4.9391,-5.4261,-2.5043
2885,0.4215,-1.5328,9.4651,5.0087,-5.3565,-2.5043
2890,0.5748,-1.4562,9.5418,4.9391,-5.2174,-2.5739
2895,0.5365,-1.5328,9.6184,4.8,-5.0783,-2.5739
2900,0.5748,-1.8394,9.5418,4.5913,-4.9391,-2.5043
2905,0.6514,-1.5328,9.3502,4.313,-4.8696,-2.4348
2910,0.8047,-1.6095,9.6184,3.9652,-4.8,-2.2261
2915,0.8047,-1.4945,9.6184,3.687,-4.7304,-2.1565
2920,0.843,-1.5711,9.6567,3.3391,-4.4522,-1.9478
2925,0.7281,-1.6095,9.5418,2.9913,-4.313,-1.8087
2930,0.8047,-1.6478,9.4268,2.713,-4.1739,-1.6696
2935,0.9197,-1.5711,9.3885,2.6435,-3.8261,-1.6
2940,0.843,-1.6095,9.6184,2.5043,-3.4087,-1.6
2945,0.7664,-1.6478,9.3885,2.2261,-2.9913,-1.5304
2950,0.8814,-1.7627,9.3502,2.1565,-2.713,-1.3913
2955,0.843,-1.7627,9.3885,2.2957,-2.5739,-1.3217
2960,0.8047,-1.6861,9.4268,2.8522,-2.2957,-1.2522
2965,0.8047,-1.7627,9.3502,3.2696,-2.087,-1.2522
2970,0.8047,-1.916,9.3885,3.687,-1.8087,-1.2522
2975,0.7281,-1.8394,9.4268,4.1043,-1.5304,-1.2522
2980,0.6898,-1.8777,9.3885,4.313,-1.3913,-1.0435
2985,0.6898,-1.7627,9.2735,4.3826,-1.3217,-0.9043
2990,0.7281,-1.7244,9.5034,4.5217,-1.1826,-0.6957
2995,0.7664,-1.8777,9.3502,4.7304,-0.9739,-0.7652
