timestamp,accX,accY,accZ,gyroX,gyroY,gyroZ
0,0.0766,-12.5691,0.1533,-5.6348,72.7652,12.1739
5,0.3449,-13.4504,-0.4982,-8.1391,74.8522,13.8435
10,0.3832,-13.872,-1.6095,-12.7304,74.6435,14.6087
15,0.2299,-14.2935,-2.6058,-21.6348,71.5826,15.6522
20,0.0766,-14.4468,-2.7207,-32.3478,67.2,16.9043
25,-0.5748,-14.4084,-1.916,-39.3043,62.0522,18.6435
30,-1.3029,-13.9486,-1.4562,-38.5391,55.9304,21.4957
35,-1.8011,-13.5271,-1.1879,-32.4174,49.6696,24.6261
40,-2.031,-12.799,-0.9197,-24.0696,43.7565,27.3391
45,-2.2992,-12.1092,-0.958,-15.7913,38.1217,29.2174
50,-2.5675,-11.5344,-0.7664,-8.3478,32.2087,30.7478
55,-2.4142,-11.1129,-0.843,-2.2957,25.8087,32.1391
60,-1.7627,-11.0746,-0.7281,2.4348,19.4783,33.3913
65,-1.3795,-11.1129,-0.8047,7.9304,14.9565,33.5304
70,-0.9963,-10.883,-1.073,12.7304,11.4783,32.8348
75,-0.6514,-10.5764,-1.1496,15.7217,8.487,31.2348
80,-0.6514,-10.3848,-1.5711,16.6261,6.4,29.0783
85,-0.6514,-10.1549,-1.4945,16.2783,5.7043,26.9217
90,-0.6131,-9.925,-1.4945,15.1652,6.0522,24.6261
95,-0.1916,-9.6184,-1.4562,14.1217,7.6522,22.4
100,0.0383,-9.4268,-1.6095,13.2174,10.087,20.313
105,0.4982,-9.1969,-1.6861,12.2435,13.0087,18.2957
110,0.8814,-8.852,-2.031,10.4348,16.1391,16.0696
115,1.2263,-8.4305,-2.4908,7.7913,19.3391,14.1217
120,1.8011,-8.0473,-2.6824,4.1739,22.9565,12.4522
125,2.3759,-7.894,-2.989,0.1391,26.7826,11.0609
130,2.7591,-7.8557,-3.0656,-4.3826,30.6087,9.8087
135,3.0656,-7.5874,-3.3339,-8.9043,34.4348,8.9043
140,3.2955,-7.5874,-3.4105,-13.2174,37.9826,8.3478
145,3.4488,-7.6641,-3.4105,-17.2522,41.3217,8.0
150,3.3722,-7.8557,-3.3339,-20.6609,44.2435,7.513
155,3.1423,-8.0089,-3.2189,-22.887,47.1652,7.3739
160,2.8357,-8.2389,-3.1806,-24.4174,49.6696,7.3043
165,2.4908,-8.5071,-3.1423,-25.3217,51.8957,7.3739
170,2.2992,-8.852,-3.0273,-25.9478,53.7739,7.4435
175,1.8777,-9.0053,-3.1423,-26.2957,54.9565,7.4435
180,1.4945,-9.3118,-2.874,-26.8522,54.9565,7.1652
185,1.2646,-9.8483,-2.7974,-27.6174,53.9826,6.7478
190,0.9963,-10.3465,-2.5675,-28.0348,52.4522,6.2609
195,0.6898,-10.8446,-2.3375,-28.0348,50.5043,5.913
200,0.2682,-11.3045,-2.1459,-27.687,47.9304,5.4261
205,0.0,-11.4195,-2.031,-26.9217,45.1478,4.9391
210,-0.1916,-11.6111,-2.0693,-26.0174,42.4348,4.313
215,-0.4598,-11.6877,-2.1076,-25.1826,39.513,3.6174
220,-0.6514,-11.6111,-2.4142,-24.9739,36.4522,2.713
225,-0.6898,-11.4195,-2.5675,-25.113,33.1826,1.6
230,-0.7664,-11.1129,-2.7974,-25.3217,30.4,0.5565
235,-0.9197,-10.8446,-2.6441,-24.9739,28.3826,-0.4174
240,-0.9197,-10.3465,-2.7974,-23.9304,27.0609,-1.6
245,-0.7281,-10.0399,-2.6441,-22.2609,26.5043,-2.9913
250,-0.5748,-9.7334,-2.4142,-20.2435,26.1565,-4.4522
255,-0.4598,-9.4268,-2.2609,-17.8783,26.5043,-5.9826
260,-0.2682,-9.2352,-2.1459,-15.2348,26.9913,-7.5826
265,0.0383,-8.967,-1.9543,-12.6609,27.8957,-9.113
270,0.1533,-8.737,-1.916,-10.0174,29.0783,-10.5043
275,0.5748,-8.5454,-1.5711,-7.6522,30.1217,-11.687
280,0.843,-8.4305,-1.5711,-5.4957,31.0261,-12.5913
285,1.1113,-8.2772,-1.3795,-4.0348,32.0,-13.4261
290,1.4562,-8.3921,-1.3795,-3.2696,32.6261,-14.1217
295,1.4562,-8.3538,-1.4562,-3.1304,32.9043,-14.5391
300,1.7627,-8.6604,-1.5328,-3.687,33.0435,-14.8174
305,2.031,-8.5071,-1.4945,-4.7304,33.0435,-15.0261
310,2.0693,-8.737,-1.5328,-5.9826,32.6957,-15.0957
315,1.9927,-8.5838,-1.5328,-7.0957,32.3478,-15.0957
320,2.2226,-8.6221,-1.7244,-8.487,32.0,-15.1652
325,2.031,-8.5838,-1.7244,-9.8783,31.6522,-15.0261
330,1.8394,-8.5071,-1.9927,-11.3391,31.3739,-14.7478
335,1.7244,-8.4305,-1.9543,-12.8696,30.9565,-14.4696
340,1.5328,-8.5071,-1.9543,-14.4,30.6783,-14.0522
345,1.3795,-8.5071,-1.8777,-15.7913,30.1913,-13.4957
350,1.1113,-8.3538,-2.0693,-17.113,29.7739,-13.0087
355,0.8814,-8.6221,-1.8394,-18.2957,29.2174,-12.313
360,0.7281,-8.6604,-1.8777,-19.1304,28.4522,-11.8957
365,0.5365,-8.8137,-1.5711,-19.9652,27.4087,-11.3391
370,0.3449,-8.8903,-1.6095,-20.4522,26.0174,-10.8522
375,0.0766,-8.967,-1.4562,-20.6609,24.1391,-10.2261
380,0.0,-8.9286,-1.4562,-20.6609,21.9826,-9.6696
385,-0.1916,-9.0436,-1.2263,-20.3826,19.7565,-8.9043
390,-0.4215,-9.0819,-1.2646,-19.8261,17.1826,-8.2087
395,-0.3832,-8.967,-1.3029,-19.0609,14.6783,-7.3739
400,-0.4598,-9.0436,-1.2263,-18.2261,12.4522,-6.1217
405,-0.4982,-9.1202,-1.1879,-17.1826,10.4348,-4.8
410,-0.6131,-8.967,-1.2646,-16.1391,8.5565,-3.4783
415,-0.5365,-8.9286,-1.2263,-15.0957,6.9565,-2.2957
420,-0.4215,-9.0436,-1.3795,-14.0522,5.6348,-1.113
425,-0.3066,-9.1586,-1.1496,-12.8,4.5217,-0.2087
430,0.0766,-9.0819,-1.3795,-11.4087,3.3391,0.2783
435,0.0,-9.3118,-1.3412,-10.5739,2.9913,0.9739
440,0.3832,-9.4651,-1.3412,-9.6,2.5739,1.4609
445,0.4598,-9.5801,-1.3412,-8.5565,2.2261,1.8783
450,0.5748,-9.6567,-1.3029,-8.0,2.2957,2.3652
455,0.6898,-9.8866,-1.3412,-7.513,2.4348,2.8522
460,0.9197,-10.1166,-1.3795,-7.4435,2.713,3.4087
465,1.1113,-10.3082,-1.4945,-7.7217,3.2,3.9652
470,1.3029,-10.3465,-1.6478,-8.5565,3.8261,4.4522
475,1.3795,-10.4998,-1.9543,-9.8087,4.6609,5.0087
480,1.6478,-10.6147,-2.3759,-11.5478,5.8435,5.4261
485,1.5328,-10.7297,-2.8357,-14.887,7.2348,5.913
490,1.4562,-10.8063,-3.1039,-19.8261,8.4174,6.1217
495,1.5328,-10.8063,-2.7974,-24.6957,9.8783,5.9826
500,1.6861,-10.768,-2.6058,-28.0348,11.3391,5.3565
505,1.9927,-10.883,-2.3759,-28.8,13.7739,4.1739
510,1.916,-10.6147,-1.7244,-26.5043,16.4174,2.7826
515,1.8394,-10.3465,-1.1879,-21.3565,18.5739,1.6
520,1.5328,-10.2698,-0.7664,-14.5391,19.687,0.6957
525,1.3029,-10.0399,-0.5748,-7.5826,20.313,0.2783
530,0.8047,-9.6184,-0.6514,-2.087,21.1478,-0.1391
535,0.6131,-9.6184,-0.6131,1.3217,21.7739,-0.3478
540,0.2682,-9.6184,-0.6514,2.7826,22.2609,-0.5565
545,0.0,-9.695,-0.7281,2.713,22.887,-0.8348
550,-0.2299,-9.81,-0.9197,1.6696,23.6522,-1.2522
555,-0.5365,-9.9633,-0.7664,0.1391,24.487,-1.7391
560,-0.8047,-9.8866,-0.8814,-1.4609,25.113,-2.2261
565,-1.073,-10.0782,-0.958,-2.8522,25.4609,-2.713
570,-1.0346,-9.9633,-0.9197,-3.8261,25.2522,-3.4087
575,-0.843,-9.7717,-0.9197,-4.6609,24.7652,-3.8957
580,-0.7281,-9.6567,-0.843,-5.3565,24.0,-4.5913
585,-0.6514,-9.4268,-0.9197,-5.5652,23.0261,-5.2174
590,-0.2682,-9.1586,-0.9963,-5.5652,22.2609,-5.6348
595,-0.2682,-9.0436,-1.1113,-5.4957,21.7043,-6.1913
600,0.0766,-8.8903,-1.0346,-5.6348,21.4957,-6.6087
605,0.2682,-8.737,-1.073,-5.8435,21.6348,-7.0957
610,0.4982,-8.5454,-1.1113,-6.4696,22.1913,-7.6522
615,0.843,-8.4305,-1.0346,-7.3739,23.1652,-8.1391
620,1.1496,-8.2389,-1.2263,-8.5565,24.5565,-8.5565
625,1.3412,-8.1239,-1.1496,-10.0174,26.2261,-9.0435
630,1.4562,-8.0473,-1.1496,-11.5478,28.1739,-9.6
635,1.8394,-8.0473,-1.1496,-13.0783,30.4,-10.2261
640,1.8777,-8.0473,-1.3412,-14.7478,32.8348,-10.7826
645,2.031,-8.0089,-1.4179,-16.5565,35.5478,-11.3391
650,2.1843,-8.0856,-1.4562,-18.2957,38.1913,-11.7565
655,2.2226,-8.2389,-1.6095,-19.8261,41.0435,-12.2435
660,2.2226,-8.2005,-1.5328,-21.0087,43.9652,-12.5913
665,2.2226,-8.3921,-1.5328,-21.9826,46.887,-12.8696
670,2.1843,-8.3538,-1.5328,-22.4,49.8087,-13.4261
675,2.0693,-8.5454,-1.6478,-22.3304,52.8696,-13.9826
680,1.916,-8.3538,-1.6861,-21.8435,55.7913,-14.3304
685,1.8777,-8.3921,-1.6095,-21.0087,58.5739,-14.887
690,1.7627,-8.3538,-1.6861,-20.0348,61.2174,-15.7217
695,1.5711,-8.2772,-1.5328,-18.9217,63.7217,-16.4174
700,1.4945,-8.0473,-1.6095,-17.3913,66.1565,-17.2522
705,1.073,-7.7407,-1.6861,-16.0696,68.313,-18.0174
710,1.1113,-7.4725,-1.8777,-15.3739,70.4696,-18.7826
715,0.6514,-7.1276,-1.9927,-15.1652,72.6261,-19.3391
720,0.5748,-6.9743,-1.9543,-15.3043,74.5739,-19.6174
725,0.2682,-6.9743,-2.1843,-16.2087,76.5217,-19.5478
730,0.1533,-6.821,-1.916,-17.3913,78.4,-19.1304
735,0.0383,-6.7444,-1.916,-18.9913,80.4174,-18.4348
740,-0.0383,-6.6294,-1.8777,-20.7304,82.5043,-17.8087
745,0.0,-6.7827,-1.7627,-22.2609,84.4522,-16.6957
750,-0.0383,-6.8977,-1.6861,-23.9304,86.5391,-15.3739
755,0.0766,-7.0126,-1.5328,-25.3913,88.6261,-14.1913
760,0.0766,-7.1659,-1.7627,-26.7826,90.6435,-12.9391
765,0.1533,-7.5108,-1.6478,-28.4522,92.7304,-11.4783
770,0.3449,-7.5491,-1.916,-29.913,94.6783,-10.0174
775,0.4598,-7.7407,-1.8777,-31.3739,96.6261,-8.6261
780,0.7281,-7.779,-2.1459,-32.9043,98.5043,-7.2348
785,0.8047,-7.5874,-2.2609,-34.2261,100.3826,-6.0522
790,0.9197,-7.779,-2.0693,-35.3391,102.3304,-4.9391
795,0.8814,-7.7024,-2.2226,-36.1739,104.0696,-3.8261
800,0.9963,-7.7407,-2.3759,-36.6609,105.9478,-2.9913
805,1.073,-7.779,-2.1459,-37.0783,107.7565,-2.2261
810,0.9963,-7.9323,-2.1843,-37.5652,109.287,-1.5304
815,0.958,-8.0089,-2.1843,-37.7739,110.6783,-1.0435
820,1.0346,-8.2772,-2.3375,-37.8435,111.7217,-0.6261
825,0.9963,-8.2005,-2.5291,-38.1217,112.7652,-0.3478
830,0.8814,-8.3538,-2.2992,-38.3304,113.8087,0.0
835,0.9197,-8.4305,-2.5291,-38.4,114.9913,0.8348
840,0.8814,-8.3921,-2.6058,-38.5391,116.2435,1.4609
845,1.0346,-8.4688,-2.8357,-39.0261,117.913,2.2261
850,0.9963,-8.4688,-2.9507,-39.8609,119.5826,3.1304
855,0.958,-8.4305,-2.9507,-40.6957,121.1826,3.9652
860,1.073,-8.3538,-3.0656,-41.6696,122.5739,4.5913
865,0.8814,-8.0473,-3.2189,-42.713,123.7565,5.287
870,0.958,-7.8557,-3.4105,-44.2435,124.7304,5.913
875,0.8814,-7.5874,-3.4871,-46.3304,125.4261,6.6087
880,0.7664,-7.0509,-3.7171,-48.487,126.0522,7.2348
885,0.6514,-6.8977,-3.6787,-50.4348,126.9565,8.2087
890,0.5365,-6.5145,-3.5638,-52.1043,128.0,9.3913
895,0.2682,-6.3612,-3.6021,-53.4957,129.5304,10.8522
900,0.0383,-6.2845,-3.4488,-54.6087,131.4783,12.5913
905,0.0,-6.5145,-3.2572,-55.3739,133.3565,14.6783
910,-0.2299,-6.5528,-2.9507,-55.513,135.0261,16.6957
915,-0.4982,-6.7061,-2.6058,-54.8174,136.7652,18.6435
920,-0.6514,-7.0509,-2.5675,-53.6348,138.2261,20.6609
925,-0.6131,-7.3575,-2.2226,-52.6609,139.5478,23.0957
930,-0.6131,-7.5874,-1.9543,-51.5478,140.6609,25.8783
935,-0.5748,-8.0089,-1.6478,-49.9478,141.8435,28.3826
940,-0.4598,-8.3155,-1.4179,-47.8609,142.9565,30.6087
945,-0.2682,-8.5838,-1.3795,-45.4957,144.2087,32.4174
950,-0.1533,-8.6604,-1.1879,-42.9913,145.4609,33.7391
955,0.0,-8.6987,-1.3795,-40.9043,146.3652,34.7826
960,0.115,-8.5454,-1.6095,-39.1652,147.2,35.8261
965,0.1533,-8.2389,-1.6861,-37.9826,147.8957,36.7304
970,0.0383,-7.9706,-1.8777,-37.5652,148.5913,37.4261
975,0.0383,-7.5874,-2.2226,-37.5652,149.0783,37.913
980,-0.0383,-7.3192,-2.3375,-37.913,149.4261,38.1913
985,-0.1533,-7.0126,-2.4142,-38.1217,149.7739,38.1217
990,-0.4982,-6.8593,-2.6441,-37.913,149.9826,38.4696
995,-0.6514,-6.8593,-2.8357,-37.0783,150.1217,38.8174
1000,-0.958,-6.8977,-2.7974,-35.7565,150.2609,39.0957
1005,-1.4179,-6.9743,-2.8357,-34.2957,150.0522,39.5826
1010,-1.4945,-7.0126,-2.7974,-33.1826,149.5652,40.0696
1015,-1.8394,-7.1659,-3.1039,-32.7652,148.8,40.7652
1020,-1.8777,-7.2042,-3.1423,-33.113,147.8957,42.0174
1025,-1.9543,-7.4725,-3.2955,-34.4348,146.7826,43.3391
1030,-1.9927,-7.6641,-3.2572,-36.5913,145.6,44.8696
1035,-2.1076,-8.0089,-3.2189,-39.2348,144.2087,45.9826
1040,-2.1459,-8.2772,-2.9507,-42.087,142.3304,46.6087
1045,-1.9927,-8.6221,-3.1423,-45.0087,139.687,46.2609
1050,-2.1076,-8.6987,-3.1423,-47.4435,136.4174,45.4957
1055,-2.031,-8.9286,-2.874,-48.8348,132.8,44.4522
1060,-2.1843,-8.8903,-2.8357,-48.6261,129.6,43.2
1065,-2.1843,-8.5838,-2.7591,-46.4696,127.3043,41.6696
1070,-2.0693,-8.1622,-2.6441,-43.1304,125.8435,40.2087
1075,-1.7627,-7.6641,-2.6441,-39.4435,124.7304,38.9565
1080,-1.5328,-7.0509,-2.874,-35.9652,123.9652,37.5652
1085,-1.4945,-6.4378,-2.7591,-33.5304,123.1304,36.0348
1090,-1.2646,-6.0163,-2.6441,-32.3478,122.1565,34.5043
1095,-1.2646,-5.863,-2.4142,-31.7913,120.6957,32.9043
1100,-1.2263,-5.9396,-2.2226,-31.6522,119.0957,31.3739
1105,-1.4562,-5.978,-2.2609,-31.7217,117.3565,30.4696
1110,-1.6861,-6.1696,-2.2226,-32.2783,115.8957,29.913
1115,-1.5711,-6.2462,-2.3375,-32.8348,114.5043,29.6348
1120,-1.7627,-6.5911,-2.6441,-33.8087,112.9043,29.7043
1125,-1.6861,-6.5911,-2.8357,-35.4783,111.513,30.0522
1130,-1.6478,-6.7827,-3.1423,-37.8435,110.1913,30.2609
1135,-1.4179,-6.936,-3.3722,-40.5565,108.9391,30.4
1140,-1.2646,-7.3192,-3.4871,-43.2696,107.4087,30.0522
1145,-1.1879,-7.5491,-3.6021,-45.1478,105.9478,29.2174
1150,-0.843,-8.2772,-3.4105,-47.2348,104.8348,27.9652
1155,-0.8814,-8.3921,-3.2189,-48.487,104.2783,26.087
1160,-0.5365,-8.6221,-3.1423,-49.0435,103.9304,23.7217
1165,-0.4598,-8.5454,-3.1039,-49.113,103.7217,20.4522
1170,0.0,-8.3155,-3.0656,-48.0,103.8609,16.9043
1175,0.0,-8.1239,-2.9507,-46.3304,104.0,13.0087
1180,0.0766,-7.779,-2.989,-44.7304,104.0,9.0435
1185,0.0766,-7.2809,-3.0656,-43.687,103.7913,5.0783
1190,0.0,-6.9743,-3.2572,-42.9217,103.3739,1.1826
1195,-0.2299,-6.6294,-3.3339,-42.3652,102.6087,-2.9217
1200,-0.4598,-6.2079,-3.6021,-42.1565,101.287,-6.887
1205,-0.5748,-5.9013,-3.832,-42.5043,100.1739,-10.6435
1210,-0.6131,-6.0929,-3.7937,-42.3652,99.5478,-14.4696
1215,-0.843,-6.2462,-3.832,-41.6,99.2696,-18.2261
1220,-0.9963,-6.7444,-3.7937,-40.3478,99.0609,-22.3304
1225,-1.073,-7.0509,-3.6021,-39.0261,98.8522,-27.3391
1230,-1.073,-7.5491,-3.2189,-37.6348,98.2957,-32.9043
1235,-0.9197,-7.894,-3.2572,-36.3826,97.8087,-38.9565
1240,-0.6514,-8.2389,-2.989,-35.4783,97.4609,-45.913
1245,-0.0766,-8.6987,-3.1039,-34.5043,96.487,-53.2174
1250,-0.0383,-8.967,-3.2189,-33.1826,95.2348,-60.6609
1255,0.0766,-9.3502,-3.3722,-30.887,93.0783,-67.7565
1260,0.0,-9.4651,-3.5255,-27.4783,90.2957,-74.6435
1265,-0.115,-9.4268,-3.9087,-23.7913,87.9304,-80.2087
1270,-0.2682,-9.6567,-4.062,-19.4783,86.4,-84.5217
1275,-0.4215,-9.7334,-4.2152,-13.6348,85.2174,-87.2348
1280,-0.5748,-9.925,-4.2152,-6.4,83.9652,-89.1826
1285,-0.6514,-9.7334,-4.2152,1.113,81.7391,-90.713
1290,-0.8047,-9.5418,-4.5984,7.8609,79.2348,-92.1739
1295,-0.6514,-9.1969,-4.8667,12.9391,76.6609,-93.9826
1300,-0.5365,-9.0436,-4.7517,16.0,74.2261,-96.2087
1305,-0.3066,-8.7754,-4.7517,18.0174,72.7652,-98.8522
1310,-0.0383,-8.3921,-5.02,19.4087,72.4174,-101.7739
1315,0.1916,-7.9706,-5.2499,20.1739,73.0435,-105.1826
1320,0.7664,-7.5874,-5.0966,19.5478,74.1565,-109.4957
1325,1.4945,-7.4725,-4.9433,17.8087,75.7565,-114.3652
1330,1.9927,-7.0893,-4.8284,16.0,78.1913,-118.1913
1335,3.1806,-6.5145,-4.6368,16.3478,82.9217,-120.7652
1340,6.4761,-6.4761,-3.2955,19.4087,89.9478,-122.5739
1345,7.3575,-6.7444,-2.7591,23.3739,96.4174,-127.7217
1350,7.9706,-7.2042,-1.9543,31.1652,100.3826,-134.6087
1355,7.7407,-7.779,-2.3375,41.6696,98.6435,-143.513
1360,6.8977,-7.9706,-2.6824,51.5478,97.2522,-152.6957
1365,5.978,-7.4341,-3.0656,60.8,98.1565,-158.2609
1370,5.0966,-6.8977,-2.9123,68.8696,102.0522,-159.0261
1375,4.3302,-6.5911,-2.3375,75.2696,110.1217,-156.1739
1380,3.7937,-6.2845,-1.9543,81.0435,120.0,-150.1217
1385,3.2572,-6.0546,-1.3795,85.287,127.7913,-142.4
1390,2.989,-6.0163,-1.073,87.3043,134.887,-135.4435
1395,2.989,-5.7864,-0.7664,87.2348,139.1304,-129.9478
1400,3.1423,-5.7864,-0.2682,86.3304,141.287,-126.1913
1405,3.1039,-5.7097,0.0383,84.8696,141.3565,-125.1478
1410,3.2572,-5.6714,0.1533,82.4348,140.8,-126.6783
1415,3.6404,-5.748,0.4215,79.7217,141.0783,-129.5304
1420,4.2919,-6.1313,0.6131,77.8435,143.4435,-133.0087
1425,5.1732,-6.5528,0.9197,77.8435,148.2435,-138.2261
1430,6.5145,-6.9743,0.958,79.8609,154.4348,-144.3478
1435,7.779,-7.4341,1.073,83.2,160.2087,-152.5565
1440,8.4305,-7.5108,0.1533,86.1217,164.6609,-161.9478
1445,8.8137,-8.0856,-0.0766,86.1913,168.0,-171.1304
1450,9.8866,-9.2352,0.0383,83.7565,169.8783,-179.2696
1455,12.2625,-10.4998,0.6898,82.087,171.5478,-187.4783
1460,13.5654,-12.4158,1.5328,85.1478,174.6087,-196.9391
1465,14.6384,-14.4468,1.9927,92.5217,177.5304,-204.3826
1470,17.589,-17.1292,2.2226,102.0522,180.313,-210.3652
1475,22.2641,-20.5014,3.0273,113.6,185.3217,-217.5304
1480,28.3187,-24.9082,4.8667,128.6261,194.5043,-226.2261
1485,34.9098,-30.1581,6.9743,149.5652,203.1304,-242.2957
1490,47.7854,-37.5922,5.7097,174.7478,200.0,-266.7826
1495,55.4878,-36.5959,2.4525,191.4435,179.8261,-303.3043
1500,64.7996,-32.3807,-3.8704,188.6609,146.3652,-323.7565
1505,47.2489,-25.368,-2.9507,167.4435,134.4,-341.6348
1510,25.4064,-22.1108,1.3795,162.713,130.3652,-327.4435
1515,10.3848,-19.5434,3.3722,189.9826,109.913,-281.8783
1520,-0.8047,-14.9832,3.6787,236.8,84.9391,-246.4696
1525,-7.5874,-10.9596,5.5948,275.2696,73.2522,-227.687
1530,-13.4121,-7.0509,5.7864,296.6957,74.5739,-221.9826
1535,-13.7187,-5.02,5.863,306.087,69.0783,-223.1652
1540,-9.8483,-2.7207,4.4068,299.5478,49.5304,-237.7739
1545,-8.8137,-2.3759,3.3339,264.6957,41.8087,-246.3304
1550,-10.2315,-3.7554,1.6478,222.4696,39.8609,-258.0174
1555,-8.2389,-4.1003,-0.115,190.6783,41.2522,-273.1826
1560,-2.4908,-2.6058,-0.6514,171.7565,53.7043,-287.4435
1565,5.748,2.2609,-0.7281,156.0348,74.9217,-295.7913
1570,10.0782,4.4452,2.0693,121.113,103.5826,-288.2087
1575,12.3008,5.1732,5.9013,83.6174,114.2957,-270.0522
1580,13.8336,5.8247,8.2772,54.6087,105.2522,-254.7478
1585,15.1748,6.5145,9.81,28.5217,88.5565,-244.5913
1590,18.2788,7.2042,9.3885,-2.087,68.2435,-232.0
1595,22.2641,7.2425,7.5108,-38.5391,48.2087,-215.3043
1600,24.1035,6.7827,4.905,-70.3304,31.7913,-196.8
1605,22.4174,6.7061,2.4525,-97.9478,18.6435,-180.8696
1610,18.7386,5.5564,1.2263,-124.4522,11.687,-166.5391
1615,15.3281,4.9433,1.3412,-142.4,1.8087,-156.1739
1620,13.642,3.0273,3.9087,-149.4261,-6.9565,-137.5304
1625,11.841,2.031,4.6751,-144.4174,-15.0261,-113.1826
1630,11.7643,1.5711,5.4798,-132.6609,-22.3304,-91.9652
1635,9.81,-0.2682,7.5108,-119.1652,-25.8783,-70.6783
1640,8.1622,-1.2263,8.7754,-102.8174,-37.2174,-55.5826
1645,6.5528,-1.8394,7.779,-87.4435,-56.0,-47.7913
1650,5.5564,-1.916,6.2462,-73.1826,-75.2,-42.8522
1655,5.863,-2.1459,5.02,-59.7565,-90.713,-38.1217
1660,5.748,-1.9927,4.3302,-42.9913,-100.2435,-35.0609
1665,6.2079,-1.1496,3.832,-20.1043,-106.087,-32.8348
1670,7.2042,0.4598,3.2189,2.3652,-108.5913,-29.0087
1675,8.6987,2.4525,2.6441,14.4,-106.7826,-25.6696
1680,8.5071,4.4835,2.3375,12.9391,-104.3478,-22.4696
1685,8.3538,6.0546,1.6861,2.087,-99.9652,-17.9478
1690,11.1512,6.3612,1.6861,-17.113,-97.113,-11.7565
1695,14.2935,6.0163,2.1459,-37.2174,-98.4348,-8.9739
1700,16.0179,5.3648,2.5291,-47.1652,-101.2174,-10.5043
1705,14.2168,4.905,2.1843,-47.5826,-99.8957,-12.2435
1710,12.7607,4.5601,1.6861,-44.4522,-93.287,-8.6261
1715,11.7643,4.3685,1.2646,-42.5043,-84.7304,-4.1739
1720,12.1859,3.7171,0.5748,-44.1043,-77.7739,0.1391
1725,10.9213,3.6787,0.3066,-49.0435,-72.1391,3.2696
1730,9.1586,3.6787,0.5365,-55.8609,-68.313,5.913
1735,8.3921,3.5638,1.5328,-62.3304,-62.0522,8.9043
1740,7.6257,3.2955,2.4525,-66.9217,-52.5217,9.5304
1745,6.936,3.1423,3.1039,-71.7217,-45.1478,6.7478
1750,5.748,2.7591,3.832,-76.1739,-41.7391,3.4087
1755,4.79,2.8357,4.1386,-79.6522,-43.687,1.113
1760,4.5218,2.7591,4.2919,-81.7391,-48.3478,-1.0435
1765,4.4068,2.4908,4.5601,-81.3217,-52.8,-2.5739
1770,4.2536,2.2992,4.3302,-79.4435,-56.0,-4.0348
1775,3.7171,2.0693,3.947,-75.8261,-57.6696,-5.0783
1780,3.6021,2.031,3.1039,-72.487,-60.313,-4.6609
1785,4.2152,1.4179,2.5675,-70.4696,-65.3217,-3.2
1790,5.02,0.4982,2.3759,-68.4522,-70.6783,-1.3913
1795,5.5181,0.4215,1.7627,-64.9739,-76.8696,-3.3391
1800,5.5181,-0.115,1.3795,-61.287,-78.1217,0.1391
1805,6.0546,-1.073,1.2263,-56.7652,-75.9652,7.0261
1810,6.1313,-1.6861,1.2646,-51.9652,-72.2087,11.9652
1815,6.4378,-1.9927,1.1879,-46.4696,-66.713,14.9565
1820,7.1276,-2.0693,0.843,-41.9478,-61.287,16.8348
1825,7.7024,-1.9543,1.1496,-38.3304,-56.5565,17.1826
1830,8.3155,-1.8011,1.6861,-33.6,-51.7565,16.2087
1835,8.5454,-1.2263,1.9927,-27.4783,-46.7478,14.3304
1840,8.3921,-0.115,2.0693,-22.1217,-42.4348,12.1739
1845,9.0436,0.9197,1.8394,-19.3391,-38.3304,10.2957
1850,10.0782,1.6095,2.4525,-18.6435,-33.5304,8.2087
1855,11.4961,2.3375,2.6058,-18.1565,-27.6174,5.3565
1860,12.2625,2.9123,2.874,-16.487,-21.0087,2.1565
1865,12.8756,3.8704,3.2189,-13.4261,-13.5652,-0.9739
1870,13.1055,4.6368,3.1423,-10.2261,-5.7739,-2.6435
1875,13.6037,5.5948,3.1039,-9.8783,2.4348,-2.6435
1880,13.872,5.978,2.7974,-14.1217,11.2696,-2.2957
1885,14.4468,6.5145,2.7974,-21.9826,18.9217,-0.9043
1890,14.4084,6.821,2.3375,-31.4435,26.713,1.0435
1895,15.0599,6.6294,1.8394,-43.2,33.6696,5.287
1900,13.8336,5.9013,1.5328,-53.9826,38.8174,9.3913
1905,13.9869,5.3265,1.6095,-63.5826,42.3652,16.2087
1910,13.1822,4.5218,1.5328,-68.5217,44.2435,20.313
1915,12.6457,3.5638,1.5328,-71.0261,44.7304,23.2348
1920,12.3775,2.9507,1.7627,-72.6261,44.3826,25.0435
1925,12.3391,2.5675,1.8394,-74.2957,44.313,26.9217
1930,12.0326,1.7627,2.3375,-75.3391,44.7304,26.2957
1935,11.2662,0.9963,3.0273,-74.2957,46.2609,25.6
1940,11.0363,0.3066,3.5638,-72.0,47.2348,25.3217
1945,10.5764,-0.4598,4.1769,-68.9391,46.1217,25.1826
1950,9.7717,-1.0346,4.5218,-63.9304,43.3391,23.7913
1955,9.0819,-1.2263,5.1732,-57.3913,38.8174,21.6348
1960,8.2772,-1.0346,5.4798,-50.5043,32.4174,19.3391
1965,7.9706,-0.8814,5.8247,-42.4348,23.513,17.3217
1970,7.5108,-0.6131,5.863,-33.3217,12.8696,15.2348
1975,7.2809,-0.3449,5.7097,-23.3739,1.0435,12.5913
1980,7.2809,0.0,5.748,-13.7739,-9.8087,10.2261
1985,7.3192,0.0383,5.4032,-4.1739,-18.9217,7.9304
1990,7.7024,0.2682,5.1349,4.8696,-26.087,5.0087
1995,7.5491,0.4215,4.79,13.6348,-30.7478,1.2522
2000,7.0126,0.5748,4.6368,21.6348,-33.5304,-2.6435
2005,7.5491,0.6898,4.2919,27.5478,-35.0609,-5.913
2010,7.5491,0.5748,3.9853,31.4435,-35.7565,-9.2522
2015,7.3575,0.3066,3.7937,33.3217,-36.1043,-11.5478
2020,6.9743,-0.1916,3.2572,34.713,-36.5217,-13.1478
2025,7.3575,-0.4215,3.1423,36.2435,-37.0783,-13.8435
2030,7.3575,-1.073,2.9507,38.0522,-38.5391,-14.887
2035,7.2425,-1.4562,2.4908,40.1391,-40.1391,-15.3739
2040,7.3575,-1.7244,2.1843,42.087,-40.9739,-15.513
2045,7.6257,-1.8011,1.916,43.0609,-40.8348,-14.887
2050,7.9323,-1.8777,1.7627,43.4783,-39.7913,-14.0522
2055,8.2389,-1.8777,1.5711,43.7565,-38.0522,-13.4261
2060,8.7754,-1.6478,1.3029,43.8957,-36.0348,-12.5217
2065,9.0053,-1.4562,0.8814,43.8957,-33.6696,-11.4783
2070,9.3502,-1.2646,0.843,44.2435,-31.1652,-10.3652
2075,9.695,-0.958,0.8814,44.8696,-28.6609,-9.3913
2080,9.9633,-0.8047,0.4215,45.5652,-26.6435,-8.487
2085,10.3082,-0.6514,0.115,45.4261,-25.6,-8.0696
2090,10.4231,-0.4598,0.0,44.4522,-25.4609,-7.3739
2095,10.6147,-0.3066,-0.2682,42.5043,-26.5043,-6.6783
2100,11.0746,-0.2299,-0.4982,39.8609,-28.1739,-5.913
2105,11.0363,0.0766,-0.7664,36.5217,-30.1217,-5.0783
2110,11.0746,-0.0766,-0.8814,32.7652,-31.7913,-4.0348
2115,11.0746,0.115,-1.1879,28.5913,-33.113,-2.8522
2120,10.9596,0.115,-1.3795,24.0696,-33.5304,-1.8087
2125,10.7297,-0.2682,-1.3412,19.7565,-33.3217,-0.6261
2130,10.768,-0.4598,-1.5328,15.7217,-32.4174,0.5565
2135,10.4998,-0.7281,-1.5328,12.3826,-30.8174,1.6
2140,10.4231,-0.9963,-1.6478,9.3217,-28.5913,2.9913
2145,10.3082,-1.2646,-1.7244,6.6087,-25.6696,4.5217
2150,10.2315,-1.2263,-1.8011,4.1043,-22.5391,5.7739
2155,10.1549,-1.5328,-1.6095,1.6696,-19.4087,6.7478
2160,10.0782,-1.5328,-1.6861,-0.7652,-16.6261,7.4435
2165,10.1932,-1.6478,-1.4562,-3.0609,-14.1217,8.0696
2170,10.1932,-1.6478,-1.4179,-4.5913,-11.8261,8.2783
2175,10.1932,-1.5328,-1.1879,-5.6348,-9.9478,8.2783
2180,10.1932,-1.6861,-1.1879,-6.4,-8.2087,8.4174
2185,10.2315,-1.8777,-1.1496,-6.6783,-7.1652,8.4174
2190,10.2698,-1.6095,-1.073,-6.6087,-6.3304,8.3478
2195,10.1549,-1.5711,-0.9197,-6.1217,-6.1217,8.2087
2200,10.1549,-1.5711,-0.9197,-5.6348,-6.1913,7.8609
2205,10.1166,-1.5711,-0.958,-5.1478,-6.7478,7.2348
2210,10.0016,-1.4945,-1.073,-4.5217,-7.4435,6.4
2215,10.0016,-1.6861,-1.1113,-4.0348,-8.5565,5.5652
2220,9.925,-1.6478,-1.1879,-3.3391,-10.0174,4.5217
2225,9.8483,-1.6478,-1.073,-2.5739,-11.6174,3.4087
2230,9.81,-1.6095,-1.2646,-1.8087,-13.287,2.1565
2235,10.0782,-1.7244,-1.2646,-0.7652,-14.6783,0.7652
2240,10.0016,-1.7627,-1.2646,0.487,-15.6522,-0.9043
2245,10.0399,-1.8011,-1.1879,1.8087,-16.2087,-2.4348
2250,10.0399,-1.9543,-1.1496,2.8522,-16.7652,-4.1043
2255,9.8866,-1.8011,-1.4945,3.8957,-17.3913,-5.7043
2260,9.7717,-1.8011,-1.2646,4.5913,-18.5043,-7.1652
2265,9.81,-1.7244,-0.9963,5.0087,-19.7565,-8.6261
2270,9.6184,-1.6095,-1.3029,5.4957,-20.9391,-10.1565
2275,9.5034,-1.4179,-1.1496,5.8435,-22.1913,-11.4087
2280,9.6184,-1.3795,-1.2646,6.1913,-23.3739,-12.6609
2285,9.4651,-1.3412,-1.2646,6.4,-24.2087,-13.6348
2290,9.4651,-1.2646,-1.073,6.4,-24.6957,-14.6087
2295,9.5418,-1.2646,-0.9197,6.6087,-24.9739,-15.3739
2300,9.5034,-1.1879,-0.7664,6.7478,-24.9043,-16.0696
2305,9.3885,-1.073,-0.843,6.8174,-24.5565,-16.2783
2310,9.4651,-1.0346,-0.7664,6.887,-23.7913,-16.3478
2315,9.3885,-0.9197,-0.6514,6.8174,-22.887,-16.2087
2320,9.5801,-0.843,-0.6898,6.4696,-21.6348,-15.8609
2325,9.6567,-0.843,-0.7281,5.9826,-20.1043,-15.3043
2330,9.81,-0.7664,-0.6514,5.3565,-18.5043,-14.4
2335,9.7334,-0.5365,-0.7664,4.5217,-16.9739,-13.8435
2340,9.8866,-0.5365,-0.6131,3.5478,-15.4435,-13.1478
2345,9.925,-0.5365,-0.7281,2.6435,-13.4957,-12.1043
2350,9.9633,-0.4215,-0.9197,1.7391,-11.8957,-11.2
2355,10.0016,-0.4215,-0.958,0.6957,-10.2957,-10.3652
2360,10.1549,-0.4598,-0.8814,-0.0696,-8.3478,-9.3913
2365,10.2698,-0.3832,-0.8814,-1.1826,-6.5391,-8.5565
2370,10.0399,-0.2682,-1.1113,-2.2261,-5.2174,-7.9304
2375,10.0016,-0.0766,-1.1496,-3.4087,-4.1739,-7.3043
2380,10.1932,-0.2682,-1.0346,-4.7304,-3.2696,-6.5391
2385,10.2315,-0.3066,-0.9963,-5.9826,-2.4348,-5.8435
2390,10.1932,-0.1916,-0.9963,-6.8174,-1.4609,-5.287
2395,10.0782,-0.1533,-1.1496,-7.6522,-0.6957,-4.6609
2400,10.1932,-0.1916,-0.9197,-8.487,0.1391,-4.1739
2405,10.0782,-0.2299,-0.8814,-9.1826,0.8348,-3.7565
2410,10.0399,-0.2299,-0.8814,-9.4609,1.3217,-3.5478
2415,10.1549,-0.3832,-0.8814,-9.5304,1.3217,-3.2696
2420,10.1932,-0.4982,-0.7281,-9.3913,1.113,-2.9913
2425,10.0782,-0.6131,-0.6898,-9.3217,1.0435,-2.7826
2430,10.3848,-0.4598,-0.7664,-9.1826,1.2522,-2.6435
2435,10.0782,-0.6898,-0.6131,-9.2522,2.4348,-2.5043
2440,10.1549,-0.7664,-0.7281,-8.4174,1.8783,-2.4348
2445,9.9633,-0.7281,-0.7281,-7.513,1.4609,-2.1565
2450,10.1549,-0.7281,-0.7664,-6.6783,1.0435,-2.2957
2455,9.9633,-0.5748,-0.7664,-5.913,1.113,-2.2261
2460,10.1549,-0.6898,-0.7664,-5.287,1.3913,-2.087
2465,10.0016,-0.6131,-0.7664,-4.9391,1.8783,-2.0174
2470,10.0016,-0.6131,-0.6131,-4.3826,2.2957,-2.087
2475,9.9633,-0.6131,-0.7281,-3.8261,2.713,-2.1565
2480,9.925,-0.3832,-0.7664,-3.1304,3.1304,-2.5739
2485,9.8483,-0.4215,-0.7281,-2.5043,3.4783,-2.9913
2490,9.81,-0.3832,-0.7281,-1.9478,3.7565,-3.3391
2495,9.7717,-0.2299,-0.8814,-1.3913,3.8261,-3.7565
2500,9.695,-0.0766,-0.7664,-1.1826,3.8957,-4.1739
2505,9.6184,0.0383,-0.7281,-1.113,3.6174,-4.5217
2510,9.3885,0.1533,-0.7281,-1.2522,3.2696,-4.7304
2515,9.5034,0.0766,-0.6898,-1.1826,2.9913,-4.8
2520,9.5034,0.115,-0.6131,-1.1826,2.3652,-4.6609
2525,9.4651,-0.0383,-0.7664,-1.0435,1.6,-4.3826
2530,9.5034,-0.0766,-0.843,-0.7652,0.6957,-4.0348
2535,9.4268,-0.115,-0.843,-0.2087,-0.2087,-3.8957
2540,9.5418,-0.3449,-0.9963,0.4174,-0.9043,-3.7565
2545,9.3502,-0.3449,-0.843,1.113,-1.5304,-3.6174
2550,9.5034,-0.3449,-1.0346,1.8087,-1.9478,-3.5478
2555,9.6184,-0.4598,-1.0346,2.3652,-1.9478,-3.2696
2560,9.5801,-0.5748,-1.2263,2.5739,-2.087,-3.0609
2565,9.81,-0.5365,-1.1496,2.6435,-2.087,-2.9217
2570,9.81,-0.5365,-1.1113,2.5739,-1.8087,-2.8522
2575,9.81,-0.4982,-1.1113,2.6435,-1.3217,-2.6435
2580,9.925,-0.5365,-1.1879,2.5739,-0.9739,-2.4348
2585,9.9633,-0.6898,-1.1496,2.6435,-0.487,-2.2957
2590,10.0016,-0.6898,-1.2646,2.4348,0.0696,-2.1565
2595,10.0016,-0.6131,-1.0346,2.2261,0.9043,-1.8783
2600,10.0399,-0.5365,-1.1496,2.0174,1.6,-1.4609
2605,10.1932,-0.6514,-1.073,1.8087,2.1565,-1.2522
2610,10.1166,-0.4982,-0.9963,1.8087,2.713,-0.9043
2615,10.0016,-0.4598,-0.843,1.7391,3.2696,-0.4174
2620,10.1166,-0.4598,-0.9963,1.7391,3.8957,-0.0696
2625,10.1166,-0.4982,-1.073,1.6696,4.2435,0.2783
2630,10.0782,-0.4598,-0.958,1.5304,4.7304,0.6957
2635,9.925,-0.5365,-1.073,0.9739,5.0783,1.113
2640,9.81,-0.4982,-1.0346,0.4174,5.3565,1.4609
2645,9.9633,-0.4215,-1.1496,0.0,5.5652,1.6696
2650,9.8483,-0.4598,-1.073,-0.5565,5.6348,1.9478
2655,9.925,-0.5365,-1.1113,-1.113,5.7043,2.0174
2660,9.925,-0.5748,-1.1113,-1.3913,5.8435,2.087
2665,9.8866,-0.6131,-1.1113,-1.6696,6.1217,2.087
2670,9.9633,-0.6131,-0.9963,-1.8783,6.4696,2.0174
2675,9.9633,-0.6898,-1.073,-2.087,6.6087,2.0174
2680,9.9633,-0.6898,-1.073,-2.2957,6.8174,2.0174
2685,9.9633,-0.6514,-1.0346,-2.3652,7.0957,1.9478
2690,9.925,-0.6514,-1.073,-2.5043,7.513,1.8783
2695,9.925,-0.6131,-0.9963,-2.8522,7.8609,1.8087
2700,9.8866,-0.6898,-0.9197,-3.0609,8.2087,1.8087
2705,9.8483,-0.6131,-0.8814,-3.3391,8.3478,1.8783
2710,9.7717,-0.5365,-1.073,-3.4087,8.4174,1.9478
2715,9.7334,-0.7281,-0.9963,-3.4087,8.6261,1.8783
2720,9.6567,-0.5365,-0.9197,-3.4783,8.6957,1.8087
2725,9.5418,-0.5748,-0.958,-3.2,8.487,1.7391
2730,9.695,-0.6898,-0.8814,-2.9913,8.2087,1.6
2735,9.695,-0.6898,-0.8047,-2.713,8.0,1.4609
2740,9.6184,-0.7664,-0.9197,-2.4348,7.7217,1.3913
2745,9.5801,-0.7664,-0.7664,-1.9478,7.513,1.113
2750,9.6184,-0.6131,-0.8814,-1.6,7.3043,1.0435
2755,9.6567,-0.6514,-0.9197,-1.113,7.0261,1.0435
2760,9.6184,-0.843,-0.8047,-0.8348,6.7478,0.9043
2765,9.7334,-0.6514,-0.7281,-0.6261,6.4696,0.9043
2770,9.695,-0.7664,-0.843,-0.3478,6.2609,0.9739
2775,9.6567,-0.6131,-1.0346,0.0,6.0522,0.9739
2780,9.7717,-0.7281,-0.8047,0.2783,5.913,0.9739
2785,9.7334,-0.8814,-0.9963,0.5565,5.913,1.1826
2790,9.7334,-0.6898,-0.843,0.8348,5.913,1.1826
2795,9.81,-0.7281,-0.8814,1.0435,5.913,1.1826
2800,9.8483,-0.7281,-0.8047,1.3217,5.7739,1.1826
2805,9.8483,-0.7281,-0.9197,1.5304,5.7739,1.1826
2810,9.8866,-0.6514,-0.8047,1.6696,5.9826,1.113
2815,9.8483,-0.5748,-0.958,1.8783,5.9826,1.0435
2820,9.8866,-0.6898,-0.9197,1.9478,6.1913,0.9739
2825,9.8866,-0.6514,-0.8814,1.8783,6.3304,0.9739
2830,9.7717,-0.5365,-1.0346,1.6696,6.5391,0.9739
2835,9.925,-0.6131,-0.8047,1.4609,6.6783,1.113
2840,10.0399,-0.6898,-0.6898,1.2522,6.7478,1.1826
2845,9.81,-0.4215,-0.8814,0.9043,6.887,1.2522
2850,9.81,-0.5748,-0.843,0.6261,6.9565,1.3217
2855,9.81,-0.5748,-0.958,0.1391,6.8174,1.3913
2860,9.7334,-0.4598,-0.843,-0.1391,6.8174,1.4609
2865,9.81,-0.4982,-0.843,-0.3478,6.6783,1.4609
2870,9.81,-0.4598,-0.958,-0.2783,6.5391,1.3217
2875,9.7717,-0.4215,-0.843,-0.3478,6.1913,1.3217
2880,9.7717,-0.5748,-0.8047,-0.3478,6.1217,1.3217
2885,9.81,-0.6131,-0.8814,-0.3478,5.913,1.4609
2890,9.7717,-0.6131,-0.843,-0.4174,5.7043,1.5304
2895,9.8483,-0.6131,-0.843,-0.6957,5.5652,1.5304
2900,9.7717,-0.4982,-0.7281,-0.7652,5.4957,1.4609
2905,9.7717,-0.5748,-0.8047,-1.1826,5.1478,1.2522
2910,9.81,-0.6514,-0.8047,-1.5304,5.0087,1.3217
2915,9.7334,-0.5365,-0.8047,-1.9478,4.8,1.3217
2920,9.81,-0.6514,-0.9197,-2.3652,4.5913,1.3913
2925,9.695,-0.5748,-0.8814,-2.713,4.5217,1.3217
2930,9.7717,-0.6898,-0.9963,-2.9217,4.1739,1.3217
2935,9.7717,-0.6131,-0.8814,-2.9913,3.8261,1.3217
2940,9.7717,-0.4598,-0.7664,-3.0609,3.687,1.4609
2945,9.7717,-0.6898,-0.7664,-2.9217,3.687,1.5304
2950,9.81,-0.6514,-0.7281,-2.9217,3.5478,1.7391
2955,9.695,-0.6131,-0.7281,-2.9217,3.6174,1.7391
2960,9.7717,-0.6131,-0.7664,-2.8522,3.687,1.8087
2965,9.7334,-0.6131,-0.9197,-2.9913,3.7565,1.9478
2970,9.81,-0.5365,-0.8047,-3.0609,3.8261,1.8783
2975,9.8866,-0.6514,-0.8047,-3.2,4.0348,2.0174
2980,9.81,-0.5365,-0.843,-3.2,4.0348,2.0174
2985,9.8483,-0.4982,-0.8047,-3.1304,4.1043,1.9478
2990,9.81,-0.5365,-0.9197,-3.0609,3.8261,1.9478
2995,9.8483,-0.6131,-0.8047,-2.9913,3.6174,1.8087
