timestamp,accX,accY,accZ,gyroX,gyroY,gyroZ
0,2.2226,-0.1916,0.115,56.2783,54.3304,37.4261
5,2.7591,-0.1533,0.0,52.2435,53.3565,36.3826
10,2.7974,-0.2299,0.4215,46.5391,51.2,33.9478
15,2.5291,-0.0766,-1.073,42.2957,46.1217,30.6783
20,1.5711,-0.1533,-0.8814,34.5043,45.4957,27.6174
25,0.7281,-0.6131,-0.8047,26.9913,43.0609,24.3478
30,0.0383,-0.6131,-1.1113,22.4696,37.2174,22.1217
35,-0.843,-0.6131,-1.3795,19.5478,29.7739,21.2174
40,-1.8011,-0.958,-1.1879,17.4609,21.3565,21.1478
45,-2.3759,-1.4179,-0.958,15.4435,12.2435,22.1913
50,-2.4908,-1.6861,-0.7664,15.3739,4.2435,23.4435
55,-2.4908,-1.7244,-0.843,17.6696,-2.4348,23.7217
60,-2.1843,-1.5711,-0.8814,22.9565,-6.6087,22.4696
65,-1.8394,-1.4179,-1.3795,29.7043,-8.4174,19.1304
70,-1.3795,-0.9963,-1.916,34.9217,-7.3739,15.7217
75,-0.7281,-0.7664,-2.9123,37.4957,-3.7565,11.5478
80,-0.1533,-0.4215,-3.5255,36.1739,2.2957,6.3304
85,0.1916,-0.4982,-4.5984,29.287,5.4957,0.9739
90,0.3832,-0.9963,-5.748,17.6696,4.8696,-3.5478
95,0.4598,-1.5711,-7.2042,-1.8087,0.9739,-5.8435
100,0.5748,-2.4908,-8.967,-21.1478,-3.5478,-5.7043
105,0.8047,-3.2572,-9.8866,-42.8522,-5.4261,-4.313
110,0.7281,-4.5984,-11.5344,-66.087,-4.2435,-3.0609
115,0.7281,-6.0929,-12.4158,-88.1391,-0.9739,-3.4783
120,1.2646,-8.1622,-12.8756,-104.7652,5.0087,-5.4957
125,1.8394,-9.925,-12.3775,-113.7391,13.8435,-9.1826
130,2.1843,-12.0709,-11.3811,-113.9478,24.9739,-14.8174
135,2.031,-14.5617,-9.5034,-106.5739,37.0087,-20.8696
140,1.8011,-17.0142,-7.3192,-94.0522,46.8174,-27.8261
145,0.958,-19.0835,-5.6331,-76.8,54.6087,-34.7826
150,0.1533,-20.5014,-4.4068,-57.3217,58.1565,-39.9304
155,-0.8047,-21.9575,-3.5638,-37.1478,57.113,-42.2261
160,-1.8777,-22.9155,-3.2955,-18.2957,53.2174,-40.6957
165,-3.1039,-22.9539,-3.5638,-2.9217,47.7913,-34.5739
170,-3.8704,-22.0342,-3.7554,8.2783,41.1826,-25.3913
175,-4.3302,-21.536,-3.3722,16.3478,34.6435,-15.5826
180,-4.2152,-20.8079,-2.874,21.287,27.2,-5.1478
185,-3.7171,-19.5434,-2.7974,21.6348,16.4174,4.0348
190,-2.6824,-19.1985,-2.989,17.6,3.5478,12.8
195,-1.5711,-18.662,-2.8357,10.3652,-7.5826,21.7739
200,-0.843,-18.8153,-2.6058,2.2261,-14.0522,29.7739
205,0.2682,-19.5434,-2.3759,-6.8174,-18.7826,35.3391
210,1.3412,-20.4247,-1.916,-16.0,-23.7217,36.8696
215,2.0693,-21.5743,-1.0346,-22.9565,-26.7826,38.6087
220,2.4525,-22.4557,-0.3066,-27.8957,-27.1304,42.1565
225,2.2992,-23.452,0.1916,-30.2609,-27.687,45.1478
230,1.4562,-24.0652,0.1916,-31.0957,-27.8957,48.2783
235,0.7281,-24.525,0.3066,-30.1913,-26.9913,51.8261
240,-0.4215,-24.41,0.6514,-26.5739,-26.2957,55.9304
245,-1.6478,-24.41,0.843,-20.1739,-28.313,59.687
250,-3.0273,-23.9119,0.958,-13.8435,-33.113,61.6348
255,-4.6751,-23.2988,1.3412,-7.513,-38.0522,63.3739
260,-6.2462,-22.1108,1.1879,-0.0696,-43.5478,63.3739
265,-7.1659,-20.6163,0.6898,8.6261,-48.6261,62.0522
270,-7.4341,-19.5434,0.4982,16.4174,-51.6174,60.3826
275,-7.5108,-18.0105,0.1533,22.9565,-52.1739,57.9478
280,-7.0126,-16.3628,-0.1916,26.713,-53.2174,53.0087
285,-5.748,-14.83,-0.6514,29.6348,-54.887,47.8609
290,-4.6368,-13.5654,-0.7664,32.3478,-55.8609,42.4348
295,-2.989,-11.6877,-0.6898,34.2261,-56.4174,37.2174
300,-1.2646,-9.5034,-0.7281,35.7565,-56.2087,31.1652
305,1.2646,-7.1659,-0.1533,37.4957,-53.8435,23.8609
310,2.7591,-4.79,0.0383,39.7217,-50.087,12.3826
315,3.7171,-3.0656,0.0383,41.5304,-45.2174,0.1391
320,4.5601,-1.2263,0.1916,40.3478,-39.5826,-12.7304
325,4.8667,0.4982,0.3066,38.9565,-34.9217,-25.4609
330,4.9433,1.7627,0.3449,37.8435,-30.5391,-35.687
335,5.5181,2.5675,0.6898,36.313,-26.7826,-44.6609
340,4.7134,3.0273,0.3832,34.5043,-23.6522,-51.687
345,4.8284,2.6824,0.6131,30.4,-20.1739,-56.2087
350,4.3302,2.3375,0.9963,25.2522,-15.0261,-58.713
355,3.4488,1.5328,1.4562,20.0348,-8.3478,-59.4087
360,2.2992,0.5748,1.2646,15.7913,-2.713,-59.2696
365,1.8777,-0.0383,1.3795,12.8,3.8957,-57.6696
370,1.4945,-1.1113,0.958,9.113,11.4783,-55.6522
375,1.2263,-2.031,0.8047,4.8,19.4783,-55.3739
380,1.0346,-2.8357,0.7664,2.5043,28.6609,-56.1391
385,1.1496,-3.3722,0.6514,3.8957,41.113,-57.6696
390,0.9963,-3.6787,0.3832,8.5565,52.1043,-58.713
395,1.0346,-3.7554,0.4598,15.6522,62.1217,-59.3391
400,0.843,-3.7937,0.5748,26.8522,69.7043,-59.687
405,0.5748,-3.3722,0.4598,37.913,74.0174,-59.1304
410,0.3066,-2.7974,0.4598,48.1391,74.9217,-57.6696
415,-0.115,-2.0693,0.0,56.9739,72.7652,-55.513
420,-0.4598,-1.2263,-0.6131,62.7478,68.2435,-53.0087
425,-1.2263,-0.5748,-1.2646,64.5565,63.0261,-48.9739
430,-1.916,-0.0383,-1.8011,61.7739,57.9478,-42.7826
435,-2.4142,-0.0766,-2.4525,55.513,53.0783,-35.2
440,-2.9507,-0.3832,-3.2572,46.1217,49.1826,-26.0174
445,-3.5255,-1.2646,-4.062,34.2957,45.913,-15.7913
450,-3.6404,-2.2992,-4.79,21.2174,42.9913,-5.7739
455,-3.4105,-3.5638,-5.1732,7.6522,40.3478,4.1043
460,-2.7591,-4.6751,-5.9396,-5.0087,37.8435,13.5652
465,-2.1459,-6.1696,-6.5145,-17.6696,36.1043,22.0522
470,-1.3412,-7.5874,-7.4341,-29.6348,35.5478,29.2174
475,-1.1113,-8.8903,-8.3921,-40.4174,35.0609,34.5043
480,-1.1496,-9.7717,-8.8903,-50.7826,32.7652,39.1652
485,-1.3029,-11.1129,-8.6987,-58.5043,25.6,43.6174
490,-1.7244,-12.2242,-8.3921,-60.4522,12.313,47.3043
495,-2.2992,-13.1439,-8.1239,-55.7217,-4.313,50.6435
500,-2.3375,-13.7953,-8.0473,-47.4435,-19.2696,53.2174
505,-2.4142,-14.1019,-7.6641,-38.6783,-30.1913,53.3565
510,-2.2992,-14.1785,-7.3958,-31.7217,-37.3565,51.8261
515,-1.8394,-14.1785,-7.0509,-27.9652,-42.2261,48.9043
520,-1.2646,-14.0636,-6.2845,-28.2435,-44.1739,44.6609
525,-0.958,-13.6804,-5.5181,-29.9826,-43.4087,38.4
530,-0.6898,-13.4121,-4.9816,-30.3304,-40.0,30.887
535,0.0,-12.6457,-4.5984,-29.913,-33.8087,23.0957
540,0.115,-12.1092,-4.1003,-29.4261,-27.2696,15.6522
545,-0.0383,-12.0326,-3.2572,-28.8,-21.7043,8.4174
550,2.7591,-11.5727,-3.7554,-26.4348,-18.5043,0.9043
555,0.4215,-10.5764,-2.6058,-24.2783,-19.6174,-5.7739
560,0.7664,-10.1549,-2.2226,-21.7739,-16.0696,-8.487
565,1.5328,-9.81,-1.6095,-19.687,-12.313,-11.8261
570,1.5328,-9.695,-1.1879,-17.6,-10.6435,-14.7478
575,1.4562,-9.0819,-0.958,-14.4,-9.8087,-17.8087
580,1.3412,-8.3921,-1.2263,-12.3826,-10.9913,-20.4522
585,1.3029,-7.6257,-0.843,-12.313,-12.1043,-22.1217
590,0.7664,-7.2425,-0.8047,-12.4522,-11.8957,-23.2348
595,0.1533,-6.936,-0.4598,-12.8,-11.4783,-24.6957
600,-0.1916,-6.4761,-0.1533,-12.0348,-11.8261,-27.2696
605,-0.5748,-6.1696,0.4982,-10.0174,-10.5043,-28.0348
610,-0.958,-6.0163,0.4982,-6.9565,-10.2957,-28.4522
615,-0.7664,-5.748,0.6514,-4.8,-12.5913,-30.1913
620,-0.4598,-5.4415,0.2299,-6.4696,-15.1652,-30.5391
625,-0.115,-5.748,-0.115,-11.8261,-16.487,-28.1739
630,0.2299,-5.4415,-0.0766,-17.5304,-20.2435,-29.7043
635,0.843,-5.2882,-0.3066,-23.5826,-22.6783,-31.9304
640,1.4179,-5.4798,-0.3066,-29.6348,-21.6348,-32.7652
645,1.9927,-5.3265,-0.958,-35.3391,-18.7826,-33.1826
650,1.9927,-5.4798,-1.3412,-44.0348,-15.4435,-32.6957
655,1.5711,-5.5181,-2.1843,-54.1913,-13.5652,-33.9478
660,1.1496,-5.863,-2.4525,-66.1565,-11.4087,-34.1565
665,1.0346,-6.821,-1.6095,-79.0261,-7.7217,-28.5913
670,1.2646,-7.5491,-0.7281,-89.4609,-4.1739,-22.6783
675,1.4562,-8.9286,-0.0766,-94.887,-2.3652,-18.6435
680,1.2646,-9.5418,-0.1533,-96.0,-2.0174,-16.0
685,0.6131,-9.8483,0.0766,-95.3739,-0.6261,-13.0087
690,0.6514,-10.3848,-0.2299,-90.2957,1.113,-10.9913
695,0.5748,-10.4614,-0.7664,-84.1043,-0.0696,-10.4348
700,0.1533,-10.4998,-1.4179,-76.2435,-2.7826,-10.3652
705,-0.0383,-10.1549,-2.4908,-67.9652,-6.2609,-11.2
710,-0.2682,-9.925,-3.2189,-62.1913,-9.7391,-13.1478
715,-0.5365,-9.5034,-3.8704,-61.4261,-11.4087,-14.5391
720,-0.3066,-9.2352,-3.6404,-64.4174,-9.9478,-14.2609
725,-0.3066,-9.0819,-3.6404,-66.9913,-9.5304,-13.7043
730,-0.0383,-8.3538,-3.2955,-67.687,-11.9652,-12.4522
735,0.0766,-7.779,-3.1039,-67.2696,-15.7913,-9.1826
740,0.1916,-7.5491,-3.0273,-66.2261,-21.1478,-5.5652
745,0.2299,-7.0126,-3.5638,-65.5304,-27.2,-2.9913
750,0.0766,-6.7061,-3.947,-66.5043,-32.6957,-1.4609
755,0.3066,-6.1313,-4.0236,-68.6609,-36.8696,-0.6957
760,-0.5365,-6.0929,-4.5984,-70.2609,-40.9043,-1.5304
765,-0.6131,-6.1696,-4.3685,-73.9478,-42.2261,-1.4609
770,-0.4598,-5.2116,-3.947,-74.9913,-42.8522,-2.5739
775,-1.3795,-4.9816,-4.4452,-73.9478,-45.0087,-4.7304
780,-1.5328,-4.3685,-4.5984,-76.0348,-47.3043,-4.8696
785,-1.6861,-3.4105,-5.0966,-80.4174,-49.0435,-4.9391
790,-2.2992,-3.0656,-5.0966,-86.3304,-50.4348,-5.3565
795,-2.031,-2.5291,-5.2499,-92.8,-51.8261,-5.4261
800,-1.9927,-2.3375,-4.6368,-99.0609,-52.8696,-6.9565
805,-1.9543,-2.0693,-4.6751,-103.0957,-53.4957,-8.3478
810,-1.3795,-1.8777,-3.9853,-105.6,-55.3739,-9.9478
815,-0.6131,-1.4562,-3.3722,-106.8522,-55.7217,-11.8957
820,0.0383,-1.5711,-2.7974,-108.9391,-54.6783,-13.0087
825,0.9197,-1.2646,-2.7207,-111.8609,-53.0087,-12.9391
830,1.5328,-1.0346,-3.1806,-115.8957,-49.3217,-12.5913
835,1.916,-0.8814,-3.9087,-121.8087,-44.1739,-11.8261
840,2.4525,-1.1879,-5.1349,-128.8348,-39.4435,-10.5043
845,2.1459,-1.7627,-7.0893,-137.5304,-35.9652,-9.6696
850,1.8011,-2.6058,-8.6987,-146.5739,-33.6696,-9.1826
855,1.3029,-4.1003,-9.9633,-157.4261,-31.6522,-7.7913
860,1.3029,-5.9396,-9.925,-169.3217,-30.1913,-5.0783
865,1.4179,-8.0856,-8.6987,-179.2696,-27.8957,-1.9478
870,1.9927,-9.8866,-6.5911,-184.5565,-23.9304,-0.3478
875,2.3375,-11.2662,-4.0236,-183.5826,-17.113,-0.487
880,2.9507,-12.1859,-0.8814,-176.2087,-6.4696,-1.4609
885,3.1039,-12.4924,0.6514,-161.3913,5.4261,-2.7826
890,3.6404,-11.9176,0.9963,-142.1217,16.9739,-3.2696
895,3.947,-10.6914,0.7281,-125.7043,29.2174,-1.113
900,4.062,-9.8866,0.7664,-115.687,37.3565,0.487
905,3.6404,-9.5418,0.1916,-110.5391,40.6261,1.8783
910,3.2572,-9.6184,-0.6898,-110.2609,42.0174,3.7565
915,3.1423,-10.5764,-1.5328,-112.0696,43.0609,5.0783
920,2.1076,-12.5307,-2.1843,-112.5565,44.313,5.0783
925,-0.0383,-14.6,-2.4142,-104.0696,42.1565,3.8261
930,-1.3795,-15.7496,-3.2189,-78.887,28.8696,3.6174
935,-2.7207,-15.2898,-4.79,-40.9043,5.1478,7.4435
940,-2.9507,-12.9523,-6.2462,-8.5565,-17.8783,16.3478
945,-2.7207,-11.3045,-6.3229,4.7304,-29.1478,27.2696
950,-2.5675,-10.0016,-6.2079,1.5304,-28.4522,38.3304
955,-1.9543,-10.1932,-6.1696,-12.7304,-20.9391,42.1565
960,-0.9197,-11.6877,-5.7864,-33.6,-10.713,41.1826
965,-0.1916,-13.757,-4.8284,-52.1739,-3.0609,35.6174
970,0.1916,-15.5964,-4.2536,-62.5391,-2.5739,28.3826
975,0.3449,-16.9376,-4.2919,-64.9043,-6.6087,21.913
980,0.4215,-18.2788,-4.7517,-63.7913,-12.8696,17.4609
985,0.2299,-19.0452,-5.3648,-65.0435,-19.8957,16.1391
990,0.2299,-19.4284,-6.0929,-70.6087,-25.3217,17.4609
995,0.115,-19.8882,-5.9396,-79.3043,-28.1043,20.5217
1000,0.115,-20.1948,-5.5948,-85.7739,-29.7043,23.7217
1005,0.3832,-20.0032,-4.9433,-86.8174,-31.3739,27.0609
1010,0.115,-19.3518,-4.4068,-82.3652,-34.2261,30.7478
1015,0.3066,-18.1638,-3.7937,-75.687,-39.1652,34.9913
1020,0.1916,-16.8609,-3.7554,-70.1217,-46.6087,39.0957
1025,0.0766,-15.4814,-3.7554,-67.8957,-56.2783,43.4087
1030,-0.0383,-14.1019,-4.0236,-69.5652,-65.6696,47.9304
1035,-0.115,-12.2625,-4.2152,-74.7826,-73.7391,52.1739
1040,0.1533,-10.0016,-4.8284,-81.4609,-79.3043,56.7652
1045,0.0,-7.6257,-5.863,-93.7043,-83.3391,60.7304
1050,-0.1916,-6.5528,-6.2462,-110.6783,-86.7478,64.2783
1055,0.1533,-5.4032,-5.3265,-128.7652,-88.487,66.0174
1060,1.1496,-5.2499,-3.4105,-144.9739,-86.6087,65.3913
1065,1.3412,-5.4032,-2.874,-156.8,-83.7565,62.0522
1070,1.0346,-5.9013,-4.6368,-169.8783,-82.6435,58.8522
1075,0.3449,-7.5108,-6.4761,-185.1826,-80.7652,57.5304
1080,0.0383,-9.4651,-6.1313,-193.7391,-74.2261,56.2087
1085,-0.0766,-9.8866,-5.9396,-186.9913,-61.913,51.3391
1090,-0.0766,-9.0053,-5.9013,-170.5043,-47.3739,41.9478
1095,0.4215,-7.8557,-5.1732,-153.6696,-34.7826,30.5391
1100,0.7281,-6.2845,-4.1769,-136.9739,-25.0435,18.7826
1105,1.4562,-4.7517,-3.4488,-119.1652,-18.713,8.4174
1110,1.9543,-2.7974,-2.4908,-104.4174,-14.0522,0.7652
1115,2.031,-0.5748,-2.7591,-96.9043,-10.1565,-3.8957
1120,2.031,1.073,-3.3339,-99.5478,-8.8348,-6.2609
1125,1.3795,3.1039,-3.1039,-108.1739,-9.7391,-6.887
1130,0.9963,4.4068,-3.2572,-114.9913,-12.2435,-6.0522
1135,0.6514,5.2499,-3.7554,-117.2174,-15.3043,-4.5217
1140,0.3066,5.5948,-4.5601,-118.0522,-19.2,-2.8522
1145,-0.0766,6.6677,-5.9013,-120.5565,-24.487,-0.7652
1150,-0.3449,7.1659,-6.5145,-125.5652,-31.0261,1.1826
1155,-0.8047,7.2809,-6.3995,-131.5478,-38.3304,2.3652
1160,-1.1113,6.5145,-5.6714,-137.9478,-45.5652,3.2696
1165,-1.3029,5.6714,-5.2882,-144.0,-51.0609,3.5478
1170,-1.4562,4.3302,-4.905,-149.0783,-55.0957,3.8957
1175,-1.2646,2.4908,-4.8284,-153.3217,-58.713,4.1043
1180,-0.8047,0.5748,-4.1003,-157.5652,-62.1217,4.2435
1185,0.115,-1.3412,-2.8357,-158.4696,-64.1391,3.9652
1190,0.6898,-2.3375,-1.9543,-154.9913,-63.8609,2.713
1195,1.2263,-3.5638,-0.5748,-148.8696,-61.6348,0.0696
1200,1.6095,-4.5984,0.4215,-141.8435,-58.7826,-3.0609
1205,1.7244,-4.9816,1.5328,-134.4696,-55.1652,-5.6348
1210,1.9927,-4.9433,2.1459,-128.6261,-50.9913,-6.6087
1215,2.1076,-4.5984,2.4525,-126.9565,-46.887,-7.2348
1220,2.2609,-3.4105,2.5291,-128.0696,-43.9652,-7.7217
1225,2.3375,-2.3759,2.6824,-127.513,-41.6,-6.7478
1230,1.9543,-0.7664,2.031,-127.2348,-40.6957,-4.8696
1235,1.3795,0.4982,1.6861,-128.487,-41.1826,-1.9478
1240,0.6898,1.7244,0.8814,-131.3391,-42.2261,0.6261
1245,0.115,2.4525,-0.2682,-134.6783,-43.5478,2.7826
1250,-0.6514,2.9507,-0.9197,-138.087,-46.5391,3.9652
1255,-0.958,2.4525,-1.3795,-141.5652,-49.5304,4.1739
1260,-1.0346,2.2609,-1.3029,-143.9304,-53.287,4.2435
1265,-0.9197,1.7627,-0.958,-144.9739,-57.1826,2.713
1270,-0.6131,0.8814,-0.958,-144.6957,-60.3826,1.6
1275,-0.115,0.3066,-0.2299,-145.3913,-63.3043,1.9478
1280,-0.6131,0.3066,0.4982,-146.5043,-67.8261,3.3391
1285,-0.6898,-0.0766,0.5748,-145.1826,-72.8348,7.6522
1290,-0.7281,-0.7281,0.4982,-143.8609,-76.7304,12.4522
1295,-0.5748,-1.1113,0.2682,-143.9304,-80.3478,15.513
1300,-0.7664,-0.8047,-0.0383,-142.1913,-82.9913,17.113
1305,-1.1113,-0.8047,-0.3832,-138.2957,-84.9391,18.1565
1310,-1.5711,-0.5748,-1.073,-132.0348,-86.2609,19.4087
1315,-2.031,0.0,-1.4179,-125.7043,-88.0,19.4087
1320,-2.9123,0.3449,-1.7627,-121.113,-91.1304,18.7826
1325,-3.7554,0.4598,-2.3759,-118.6783,-96.8348,18.0174
1330,-4.4068,0.2299,-2.3375,-116.8,-105.8783,16.9739
1335,-4.79,-0.3066,-2.5675,-112.2783,-118.4696,15.3739
1340,-5.0583,-0.1533,-3.1039,-104.487,-135.3043,11.2696
1345,-5.8247,0.5365,-3.5638,-94.8174,-155.1304,4.7304
1350,-6.3995,1.2646,-4.2919,-83.687,-174.1217,0.7652
1355,-7.0509,1.5328,-3.947,-73.2522,-193.8087,-3.1304
1360,-7.6641,2.2226,-4.3685,-65.3217,-216.487,-7.3043
1365,-7.9706,3.1039,-5.2882,-60.8,-240.4174,-10.7826
1370,-8.1622,4.4452,-6.3612,-60.0348,-261.287,-13.0087
1375,-8.3155,5.4798,-7.2042,-64.0696,-280.2087,-15.5826
1380,-8.2389,5.978,-7.779,-69.0783,-298.7826,-18.3652
1385,-8.0856,6.1313,-8.0089,-68.5913,-318.1217,-21.5652
1390,-7.7024,6.1696,-8.3538,-61.8435,-337.7391,-25.6
1395,-7.4341,6.3612,-8.6221,-53.5652,-356.6609,-30.3304
1400,-7.2809,6.8593,-8.737,-46.1913,-373.287,-34.5739
1405,-6.7827,7.9323,-9.0436,-41.6,-386.3652,-36.5913
1410,-6.1696,8.967,-9.1969,-41.1826,-395.5478,-36.2435
1415,-5.6714,9.925,-9.2352,-43.3391,-402.2957,-35.3391
1420,-5.7097,10.1932,-9.3885,-47.0261,-407.9304,-34.5739
1425,-5.2116,10.1932,-9.4268,-48.0,-410.5043,-30.4696
1430,-4.5601,9.6184,-8.9286,-42.0174,-412.1043,-27.4783
1435,-5.5181,8.967,-7.7024,-30.6783,-418.9913,-26.4348
1440,-12.5307,10.2315,-2.7207,-11.6174,-433.3913,-20.6609
1445,6.7827,16.4777,-16.1329,34.713,-467.5478,11.0609
1450,4.6368,21.6893,-20.7313,74.0174,-456.2087,56.6957
1455,-21.8426,29.0468,-9.1202,47.3739,-415.2348,88.487
1460,-35.5613,41.156,-17.4741,33.9478,-442.8522,179.6174
1465,-22.6856,38.2437,-24.4484,22.1913,-400.1391,275.2
1470,-19.2368,27.3224,-5.7097,-44.2435,-330.8522,278.9565
1475,-49.6248,20.0415,13.642,-118.9565,-394.8522,203.687
1480,-87.9834,25.0232,2.8357,-108.313,-538.0174,197.9826
1485,-84.4196,31.2694,-17.4357,-139.8261,-606.0522,255.0957
1490,-98.3299,43.187,-21.7276,-257.8087,-580.4522,346.4348
1495,-113.4664,43.302,-18.6237,-338.9217,-526.9565,473.8087
1500,-124.8476,34.3733,-22.609,-304.7652,-524.1739,498.2261
1505,-108.4082,26.5943,-32.419,-205.0783,-528.2087,393.7391
1510,-45.4479,22.4174,-42.9188,-96.487,-432.3478,204.8
1515,-30.6179,23.452,-7.6257,-2.1565,-198.5391,-66.2261
1520,-12.9523,18.8919,1.073,85.4261,-73.3217,-308.6609
1525,-7.0126,19.4284,17.3591,168.8348,-2.5043,-471.5826
1530,6.2079,18.3171,14.1785,288.1391,37.7739,-540.1043
1535,10.1549,22.8389,18.3938,351.0957,61.0087,-570.5043
1540,23.1838,28.9318,16.8609,327.1652,87.0261,-555.9652
1545,27.0925,35.4463,15.0599,237.1478,124.5217,-507.6174
1550,19.3518,36.366,8.0089,118.5391,103.7217,-431.3739
1555,16.3628,23.1455,0.4598,-14.4696,30.6087,-315.4783
1560,17.0142,10.3465,-3.4105,-152.6957,-43.4783,-185.6696
1565,16.7077,2.3375,-4.7517,-211.0609,-78.1913,-71.2348
1570,8.5838,-5.5948,-2.7591,-207.5826,-73.7391,5.3565
1575,3.3722,-11.6877,-1.916,-152.4174,-55.4435,45.1478
1580,-0.8814,-11.6494,0.115,-73.8087,-21.3565,59.1304
1585,-3.2572,-11.5344,3.2955,1.8087,18.4348,55.6522
1590,-4.7517,-10.653,4.5984,62.7478,42.9217,31.2348
1595,-6.8977,-7.9323,5.6331,97.8783,48.6261,-9.9478
1600,-7.2042,-4.0236,4.7517,103.0957,41.6,-49.8783
1605,-5.7097,-0.6514,4.5984,84.5913,31.0957,-82.1565
1610,-2.6441,1.2263,5.3265,53.9826,18.2957,-102.4
1615,-0.1916,2.4908,6.1696,28.1043,5.2174,-109.0783
1620,-1.6861,3.3339,7.5491,15.0957,-12.1739,-104.1391
1625,-0.5365,2.3375,7.1276,13.3565,-33.6,-88.3478
1630,1.1113,1.1879,6.0929,18.5739,-56.0696,-67.8957
1635,0.8047,1.0346,5.2116,29.5652,-74.713,-45.4957
1640,2.2226,0.9963,3.5255,43.9652,-88.4174,-25.3217
1645,3.2189,1.916,2.2226,52.5913,-91.8957,-13.4957
1650,2.6824,2.9123,1.9543,51.0609,-86.5391,-10.5739
1655,0.8814,4.062,2.2226,44.5913,-74.087,-8.9043
1660,0.843,4.2919,2.3375,35.5478,-61.913,-7.6522
1665,0.0383,4.7134,2.1843,25.113,-53.913,-6.9565
1670,-1.3795,5.0583,2.2226,14.5391,-49.8783,-3.8957
1675,-4.6368,5.2116,3.0273,3.8957,-53.0087,-2.1565
1680,-5.9396,5.4032,2.6441,-5.4957,-61.3565,-2.1565
1685,-5.5181,5.4415,2.5291,-16.9739,-59.8957,-1.6696
1690,-5.7097,4.79,2.874,-29.287,-46.6783,-1.4609
1695,-6.9743,4.1003,3.1806,-39.5826,-29.6348,-0.8348
1700,-8.5071,3.7171,3.5255,-48.3478,-17.4609,2.1565
1705,-8.5071,3.2189,3.6404,-56.4174,-13.6348,6.1217
1710,-8.6604,2.7591,3.9087,-61.7739,-15.7913,10.2957
1715,-8.8137,2.5675,3.6787,-61.8435,-19.687,15.3739
1720,-8.4688,2.5291,3.3339,-56.3478,-23.0957,20.8
1725,-11.1512,3.2572,3.2189,-47.7913,-29.1478,25.2522
1730,-10.9213,3.5638,2.7591,-38.7478,-34.713,31.1652
1735,-11.4195,4.1003,2.7974,-31.8609,-38.6087,36.0348
1740,-12.2625,4.9816,2.874,-26.5043,-44.3826,39.6522
1745,-13.2971,5.9013,3.2955,-22.5391,-48.9043,43.8261
1750,-14.715,6.8593,3.7937,-20.6609,-53.0783,47.2348
1755,-14.8683,7.3192,3.947,-19.5478,-59.0609,49.3217
1760,-15.2132,7.6257,3.4105,-19.687,-61.913,52.4522
1765,-15.3281,7.6257,4.1386,-19.1304,-57.1826,54.9565
1770,-15.2515,7.5491,4.905,-17.5304,-50.9217,55.9304
1775,-14.5234,7.0893,5.5948,-15.7913,-44.9391,56.0696
1780,-13.7187,6.6294,6.1313,-14.1217,-39.513,55.1652
1785,-12.5691,5.6331,6.7061,-13.7739,-35.6174,53.8435
1790,-12.1859,4.5601,7.779,-14.9565,-32.0,51.6174
1795,-11.6111,3.7171,8.6221,-16.1391,-29.4261,49.3217
1800,-10.6914,3.4105,8.4305,-15.6522,-26.8522,47.3043
1805,-10.1549,3.1039,8.5454,-12.5913,-21.2174,46.6087
1810,-9.7717,2.9507,7.9323,-7.4435,-13.4261,46.6087
1815,-9.695,2.874,7.7407,-0.9739,-4.1739,45.913
1820,-9.7717,3.1806,7.6257,6.1913,5.4261,44.9391
1825,-9.7717,3.3339,7.1659,13.3565,14.8174,43.687
1830,-9.2352,3.6404,6.8977,18.5043,24.2087,41.6696
1835,-9.0436,3.7554,6.7061,21.8435,34.087,39.3739
1840,-8.852,3.7554,6.5528,24.2087,40.2087,36.313
1845,-8.6221,3.832,6.0546,26.4348,43.8957,32.5565
1850,-7.8557,3.6787,5.4798,28.5217,45.913,28.2435
1855,-7.9706,3.6021,5.2116,29.2174,46.5391,23.2348
1860,-8.0856,3.6404,4.8667,30.4,45.3565,19.5478
1865,-8.0473,3.5638,4.7517,31.3043,43.4783,15.7913
1870,-7.6641,3.4105,4.5601,32.0,40.6957,11.5478
1875,-7.6641,3.0656,4.5984,32.4174,39.513,6.9565
1880,-7.9323,2.9123,4.5601,33.1826,38.9565,2.9217
1885,-8.0089,2.6058,4.1769,34.9217,38.887,-0.4174
1890,-8.5454,2.6058,3.947,37.287,39.3739,-2.3652
1895,-8.2772,2.4525,3.4488,39.8609,40.8348,-4.0348
1900,-8.7754,2.3759,3.0273,42.2261,43.8261,-5.0783
1905,-8.8137,2.3375,2.7591,45.1478,45.7043,-5.0783
1910,-8.8137,2.3375,2.5675,48.4174,46.8174,-4.5217
1915,-8.8903,2.3759,2.6824,51.687,47.1652,-3.9652
1920,-9.5034,2.6824,2.7591,54.6783,45.287,-3.5478
1925,-8.4305,2.5675,2.3759,56.0696,42.4348,-3.0609
1930,-7.4725,3.0656,1.916,56.0,40.9043,-3.4783
1935,-7.3192,3.4488,1.6861,55.513,40.7652,-3.2
1940,-7.3575,3.7554,1.6861,54.2609,41.8783,-2.9217
1945,-7.3575,3.9087,1.5711,51.4783,42.9913,-4.3826
1950,-7.3575,3.9087,1.1879,46.9565,43.6174,-6.6087
1955,-7.3958,3.8704,1.073,42.0174,44.4522,-8.6261
1960,-7.5108,3.3722,0.958,37.6348,45.2174,-10.5739
1965,-8.0473,2.9507,0.843,34.9217,45.7043,-12.313
1970,-8.3538,2.874,0.4982,33.1826,45.5652,-13.6348
1975,-8.852,2.5291,0.5748,32.7652,44.9391,-14.7478
1980,-9.2735,2.0693,0.5365,32.8348,43.9652,-15.9304
1985,-9.7334,1.9927,0.1533,33.113,42.7826,-16.9043
1990,-9.8483,1.9543,-0.0383,32.9043,42.087,-17.5304
1995,-10.2698,1.8011,-0.0383,32.487,41.7391,-18.3652
2000,-10.4231,1.7627,-0.3066,32.0696,42.0174,-19.7565
2005,-10.5381,1.4179,-0.5365,31.7913,43.0609,-21.4261
2010,-10.768,1.4562,-0.5748,31.9304,44.313,-23.7217
2015,-10.4998,1.3412,-0.6898,32.6957,45.7739,-25.8783
2020,-10.3848,1.3412,-0.6898,34.0174,47.513,-27.6174
2025,-10.1932,1.4945,-1.073,34.9913,49.6,-29.2174
2030,-10.3465,1.4179,-0.958,35.7565,51.1304,-30.4
2035,-10.1549,1.2263,-1.1113,35.687,52.4522,-31.2348
2040,-10.2315,0.9963,-1.3795,34.0174,53.6348,-31.2348
2045,-10.1932,0.9197,-1.5711,31.5826,54.3304,-30.2609
2050,-10.4231,0.8814,-1.6478,29.3565,53.6348,-29.0783
2055,-10.3848,0.843,-1.6478,27.4087,51.8261,-27.7565
2060,-10.3848,0.6898,-1.7244,26.1565,48.7652,-26.2261
2065,-10.1932,0.6898,-1.7244,25.3217,45.0087,-24.6957
2070,-10.2698,0.6514,-1.5711,25.0435,41.113,-23.0957
2075,-10.4998,0.843,-1.4562,24.7652,36.9391,-21.6348
2080,-10.3465,0.958,-1.4179,24.0696,32.2087,-20.4522
2085,-10.3848,0.9197,-1.3795,22.7478,27.3391,-19.3391
2090,-10.1932,1.0346,-1.3029,21.4957,23.1652,-17.4609
2095,-10.3465,1.1879,-1.4562,20.1043,20.8696,-15.5826
2100,-10.0782,1.3029,-1.4945,18.2261,19.9652,-13.7043
2105,-10.0399,1.1113,-1.4562,15.9304,20.4522,-12.1739
2110,-10.0399,0.9197,-1.3795,13.4957,20.6609,-11.1304
2115,-10.1166,0.8047,-1.4179,11.7565,20.4522,-10.1565
2120,-9.8483,0.5365,-1.5328,10.713,19.687,-9.113
2125,-9.925,0.3449,-1.4179,9.7391,18.2957,-7.9304
2130,-10.0782,0.0766,-1.6861,8.9043,16.6957,-6.6087
2135,-9.8483,0.0,-1.8011,8.1391,15.0261,-5.1478
2140,-9.925,-0.0383,-1.7244,7.8609,13.7043,-3.8957
2145,-9.925,-0.0766,-1.8394,8.1391,12.6609,-2.713
2150,-10.0399,-0.1533,-1.7244,8.9739,11.3391,-2.087
2155,-10.0399,-0.0383,-1.6861,9.7391,9.7391,-1.6696
2160,-10.1166,-0.0383,-1.6478,10.713,8.0696,-1.6
2165,-10.3465,0.0383,-1.3795,11.5478,6.1913,-1.3217
2170,-10.3082,0.2299,-1.4945,12.1739,4.313,-0.9739
2175,-10.3082,0.3832,-1.5711,11.8957,2.713,-0.5565
2180,-10.4231,0.4982,-1.7244,10.8522,1.6,0.1391
2185,-10.4231,0.6514,-1.4562,9.3217,0.8348,0.6957
2190,-10.4231,0.6131,-1.5328,7.5826,0.0,1.3913
2195,-10.3848,0.6898,-1.4179,6.1217,-1.1826,1.9478
2200,-10.1549,0.5365,-1.6095,4.9391,-2.7826,1.9478
2205,-10.1166,0.5748,-1.4179,4.313,-4.5217,1.7391
2210,-10.0399,0.6514,-1.2646,3.8957,-6.7478,1.6
2215,-10.1932,0.7664,-1.3795,3.7565,-9.113,1.2522
2220,-10.1932,0.6514,-1.073,3.4783,-11.2696,0.8348
2225,-10.2698,0.7664,-0.9963,3.2696,-13.4957,0.5565
2230,-10.2315,0.6131,-1.073,3.1304,-15.2348,0.487
2235,-10.1932,0.8047,-1.0346,3.2,-16.5565,0.3478
2240,-10.2698,0.843,-0.8814,3.0609,-17.3217,0.487
2245,-10.3082,0.9197,-0.7664,2.8522,-17.6696,0.6261
2250,-10.1932,0.9197,-0.3832,2.5739,-17.7391,0.6957
2255,-10.0016,0.843,-0.6131,2.2957,-17.2522,0.9739
2260,-9.925,0.843,-0.3449,1.8783,-16.6957,1.3217
2265,-9.7334,0.843,-0.1533,1.4609,-15.8609,1.6696
2270,-9.81,0.8814,-0.2682,1.0435,-15.0261,2.087
2275,-9.7717,0.843,-0.1533,0.8348,-14.1913,2.5043
2280,-9.6567,0.9197,0.0,0.8348,-13.4261,2.9217
2285,-9.6184,0.843,0.0,1.0435,-12.7304,3.2
2290,-9.5418,0.843,0.0,1.4609,-12.313,3.4783
2295,-9.4268,0.958,-0.0383,1.7391,-11.8957,3.687
2300,-9.5034,1.0346,0.115,2.2261,-11.5478,3.8261
2305,-9.5801,0.958,0.0766,2.5739,-11.2,3.7565
2310,-9.4651,1.2263,0.115,2.9217,-10.8522,3.6174
2315,-9.5034,1.1113,0.1533,3.3391,-10.3652,3.5478
2320,-9.5801,1.1879,-0.0766,3.5478,-9.6696,3.3391
2325,-9.5418,1.1496,0.0,3.687,-8.5565,2.9913
2330,-9.4651,1.1496,0.0383,3.6174,-7.2348,2.713
2335,-9.695,1.2263,0.0,3.4783,-5.8435,2.2957
2340,-9.5418,1.073,0.0766,3.2,-4.313,1.6696
2345,-9.5418,1.0346,0.2299,3.0609,-2.9913,1.3913
2350,-9.4651,0.9197,0.1916,3.0609,-1.8087,1.113
2355,-9.4268,0.9197,0.1533,3.3391,-1.0435,1.0435
2360,-9.5801,0.958,0.115,3.687,-0.6261,0.9739
2365,-9.4651,0.8814,0.1916,4.0348,-0.487,1.0435
2370,-9.4651,0.7664,0.0383,4.4522,-0.2783,0.9739
2375,-9.5418,0.843,0.115,5.0783,-0.0696,0.7652
2380,-9.5801,0.9197,0.0383,5.6348,0.2783,0.2783
2385,-9.6567,0.8047,0.0766,6.2609,0.6957,-0.3478
2390,-9.6184,0.8814,0.0383,7.0261,1.0435,-0.9739
2395,-9.695,0.9963,0.0,7.7217,1.3217,-1.6
2400,-9.7334,0.958,-0.0766,8.487,1.6696,-2.2957
2405,-9.81,0.8814,0.0,8.9043,2.2261,-2.8522
2410,-9.7717,0.8814,-0.115,9.2522,2.713,-3.1304
2415,-10.0016,1.1879,-0.115,9.2522,3.3391,-3.2696
2420,-9.8483,0.8814,-0.2682,9.3217,3.7565,-3.2696
2425,-9.81,0.8047,-0.4598,9.4609,4.1739,-3.4087
2430,-9.925,0.958,-0.2682,9.6,4.5217,-3.4783
2435,-9.8483,0.9197,-0.3449,9.8087,4.8,-3.3391
2440,-9.7717,0.8047,-0.0766,10.087,4.8696,-3.2
2445,-9.8866,0.843,-0.2682,10.2957,4.6609,-2.8522
2450,-9.925,0.843,-0.2682,10.4348,4.1739,-2.6435
2455,-9.7334,0.843,-0.4982,10.2957,3.5478,-2.2957
2460,-9.81,0.843,-0.3832,10.0174,2.9217,-2.1565
2465,-9.81,1.0346,-0.4982,9.6,2.2957,-2.087
2470,-9.8483,0.843,-0.3449,9.2522,2.0174,-2.0174
2475,-9.81,0.958,-0.3449,8.6957,2.0174,-1.9478
2480,-9.7717,0.8814,-0.2682,7.8609,2.2957,-1.8087
2485,-9.7717,0.843,-0.2299,7.0261,3.1304,-1.6696
2490,-9.81,0.7664,-0.3449,6.0522,4.1043,-1.6696
2495,-9.695,0.5748,-0.1533,5.4261,4.9391,-1.3913
2500,-9.7717,0.7664,-0.115,5.0783,5.7043,-0.9739
2505,-9.695,0.8047,-0.2299,4.8696,6.3304,-0.6261
2510,-9.695,0.7664,-0.3449,4.6609,6.4696,-0.1391
2515,-9.5801,0.8047,-0.3066,4.4522,6.6783,0.1391
2520,-9.5801,0.7664,-0.4215,3.8261,6.5391,0.3478
2525,-9.6567,0.8047,-0.3066,3.3391,6.4,0.5565
2530,-9.5034,0.7281,-0.3449,2.6435,5.9826,0.6957
2535,-9.6184,0.6898,-0.3832,2.2261,5.4957,0.9043
2540,-9.7334,0.6514,-0.4598,2.1565,5.0783,1.2522
2545,-9.7717,0.7664,-0.3066,2.1565,5.0087,1.6696
2550,-9.81,0.7281,-0.4598,2.087,5.0087,1.9478
2555,-9.81,0.8047,-0.2682,2.0174,5.2174,2.0174
2560,-9.7717,0.7664,-0.4215,1.8087,5.6348,2.2261
2565,-9.81,0.8047,-0.3449,1.8783,6.3304,2.2957
2570,-9.8483,0.8814,-0.2682,2.087,7.0261,2.3652
2575,-9.8483,1.1113,-0.4982,2.5043,7.513,2.3652
2580,-9.81,1.1879,-0.6514,2.713,7.9304,2.2261
2585,-9.8483,1.1879,-0.5365,2.713,8.1391,1.8783
2590,-9.7717,1.2263,-0.4982,2.1565,8.1391,1.5304
2595,-9.7334,0.958,-0.3449,1.6,7.8609,1.1826
2600,-9.6567,0.8814,-0.4598,0.9739,7.4435,0.8348
2605,-9.7334,0.843,-0.3066,0.6261,6.9565,0.6261
2610,-9.7334,0.843,-0.3066,0.4174,6.4,0.6261
2615,-9.6567,0.843,-0.2299,0.3478,5.913,0.6957
2620,-9.5418,0.843,-0.1916,0.487,5.5652,0.9043
2625,-9.695,0.4982,-0.115,0.7652,5.4261,1.0435
2630,-9.81,0.843,-0.1916,1.113,5.3565,1.1826
2635,-9.7717,0.843,-0.2299,1.6,5.4261,1.3913
2640,-9.7717,0.8814,-0.3449,2.0174,5.4957,1.4609
2645,-9.7717,0.8814,-0.3066,2.5043,5.7043,1.5304
2650,-9.7334,0.8047,-0.4215,2.9913,5.9826,1.4609
2655,-9.8483,0.9963,-0.4982,3.5478,6.1217,1.2522
2660,-9.81,0.9197,-0.3832,4.0348,6.1913,1.2522
2665,-9.8483,0.8814,-0.6898,4.3826,6.1217,1.1826
2670,-9.81,0.9197,-0.8047,4.7304,5.9826,0.8348
2675,-9.8483,1.0346,-0.7664,5.2174,5.7043,0.6261
2680,-9.9633,1.0346,-0.6131,5.6348,5.4261,0.487
2685,-9.9633,0.9963,-0.6898,5.9826,5.0783,0.487
2690,-9.925,0.9963,-0.6898,6.1913,4.6609,0.3478
2695,-9.8866,1.1113,-0.6514,6.2609,4.1739,0.3478
2700,-9.81,1.073,-0.7664,6.2609,3.8957,0.2783
2705,-9.81,1.0346,-0.6131,6.1217,3.4087,0.2087
2710,-9.7717,1.1113,-0.6514,5.913,3.1304,0.3478
2715,-9.7334,1.1113,-0.6131,5.6348,2.8522,0.3478
2720,-9.695,1.073,-0.4598,5.2174,2.6435,0.487
2725,-9.7717,0.9197,-0.6131,4.8,2.4348,0.4174
2730,-9.6184,1.073,-0.4598,4.5217,2.2261,0.3478
2735,-9.7334,0.9963,-0.3832,4.2435,2.087,0.1391
2740,-9.6567,0.9963,-0.4982,4.0348,1.9478,-0.0696
2745,-9.695,0.9197,-0.4598,3.8261,1.8087,-0.0696
2750,-9.7334,0.9197,-0.4598,3.7565,1.8087,-0.1391
2755,-9.7717,1.0346,-0.4598,3.6174,1.6696,-0.3478
2760,-9.7717,0.7664,-0.4982,3.4783,1.6,-0.487
2765,-9.81,0.8814,-0.5748,3.4087,1.6,-0.487
2770,-9.8483,0.843,-0.5365,3.3391,1.8087,-0.487
2775,-9.7717,0.958,-0.4598,3.4087,1.8783,-0.4174
2780,-9.6567,0.843,-0.5365,3.2696,2.0174,-0.487
2785,-9.81,1.0346,-0.5748,3.2696,2.4348,-0.6261
2790,-9.7717,0.9963,-0.3449,3.1304,2.8522,-0.6261
2795,-9.7717,0.8814,-0.4982,3.0609,3.4087,-0.487
2800,-9.7717,0.958,-0.5365,2.8522,3.9652,-0.487
2805,-9.695,0.9197,-0.3066,2.713,4.5913,-0.4174
2810,-9.695,0.9963,-0.3449,2.4348,5.2174,-0.4174
2815,-9.6567,0.958,-0.3449,2.1565,5.9826,-0.1391
2820,-9.6567,0.8047,-0.1916,1.9478,6.7478,0.0
2825,-9.695,0.8047,-0.1533,1.9478,7.4435,0.0
2830,-9.7334,0.8814,-0.2299,1.8783,8.0696,0.0696
2835,-9.6184,0.8047,-0.3832,2.087,8.8348,0.2087
2840,-9.6567,0.8047,-0.3066,2.3652,9.3913,0.2087
2845,-9.6567,0.9197,-0.3832,2.7826,9.6,0.2087
2850,-9.7717,0.8814,-0.4982,3.2696,9.6696,0.2783
2855,-9.7334,0.9963,-0.4215,3.687,9.3913,0.2087
2860,-9.7334,0.9197,-0.4982,4.313,9.113,0.2783
2865,-9.6567,0.843,-0.6514,4.8,8.6261,0.1391
2870,-9.7717,0.9197,-0.5365,5.2174,7.8609,0.0696
2875,-9.8483,1.073,-0.6898,5.6348,7.0261,0.2087
2880,-9.7717,0.9963,-0.843,5.7739,6.1913,0.0696
2885,-9.81,0.958,-0.7664,5.7043,5.4957,0.1391
2890,-9.81,0.9963,-0.8047,5.287,5.0087,0.1391
2895,-9.8483,1.1113,-0.843,5.0783,4.7304,-0.0696
2900,-9.8483,0.958,-0.8814,4.7304,4.4522,-0.1391
2905,-9.8866,1.0346,-0.8047,4.3826,4.4522,-0.3478
2910,-9.7717,1.073,-0.7281,4.1739,4.3826,-0.3478
2915,-9.8483,0.958,-0.7664,3.9652,4.313,-0.487
2920,-9.9633,1.1879,-0.6514,3.9652,4.1043,-0.487
2925,-9.8483,1.073,-0.7281,3.8957,4.1043,-0.5565
2930,-9.8483,0.8814,-0.7281,3.9652,3.8261,-0.6261
2935,-9.695,0.8047,-0.7281,3.9652,3.7565,-0.5565
2940,-9.695,0.9197,-0.6514,3.9652,3.5478,-0.5565
2945,-9.8483,0.9963,-0.6514,3.8957,3.4783,-0.5565
2950,-9.7717,0.958,-0.6514,3.8261,3.2696,-0.5565
2955,-9.7717,0.958,-0.6131,3.7565,2.9913,-0.3478
2960,-9.7334,0.9197,-0.6514,3.5478,2.713,-0.2087
2965,-9.7717,0.8814,-0.8814,3.4783,2.5043,-0.2087
2970,-9.7334,0.9197,-0.6898,3.6174,2.2957,-0.0696
2975,-9.81,0.8814,-0.5748,3.8261,2.087,-0.2087
2980,-9.7717,0.958,-0.6131,3.9652,1.8783,-0.3478
2985,-9.8483,0.3449,0.0,4.0348,1.8087,-0.2087
2990,-9.8483,0.8814,-0.6131,4.1739,1.7391,0.0
2995,-9.7717,0.9963,-0.7281,4.2435,1.6696,0.1391
