timestamp,accX,accY,accZ,gyroX,gyroY,gyroZ
0,0.5748,-9.3885,0.6131,25.8087,-17.4609,11.2696
5,0.3832,-9.1969,0.6131,26.087,-18.9913,11.3391
10,0.4215,-9.2735,0.6131,25.1826,-20.5913,11.1304
15,0.115,-9.0819,0.5748,23.4435,-22.1217,10.8522
20,0.0383,-9.1586,0.4982,20.8,-23.7913,10.2957
25,0.0383,-9.2352,0.5365,17.3913,-25.0435,9.6696
30,0.0766,-9.3502,0.5748,13.5652,-25.7391,8.9043
35,0.3066,-9.5418,0.8814,9.6,-26.3652,7.7913
40,0.3832,-9.7334,1.073,5.9826,-27.0609,6.1913
45,0.7664,-10.1549,1.2646,2.9913,-28.1739,4.313
50,0.8814,-10.4614,1.4945,0.487,-29.287,1.9478
55,1.2646,-10.9213,1.5328,-1.2522,-30.1913,-0.4174
60,1.4945,-11.2279,1.8011,-2.1565,-31.0261,-2.9217
65,1.8777,-11.4578,1.7627,-2.087,-31.6522,-5.287
70,2.031,-11.6877,1.916,-1.7391,-31.9304,-7.5826
75,2.3375,-11.8793,1.8394,-1.1826,-31.7913,-9.5304
80,2.4908,-11.9559,1.8011,-0.2087,-31.1652,-11.2696
85,2.9507,-12.0326,1.916,1.0435,-29.9826,-12.3826
90,3.3722,-12.0326,1.9543,2.5043,-28.2435,-13.2174
95,3.6787,-11.9943,1.9927,4.1739,-26.2957,-13.7739
100,3.9853,-11.9943,1.9543,5.9826,-24.2087,-14.1913
105,4.3302,-11.9559,2.1459,8.2087,-21.7043,-14.4
110,4.5601,-11.9176,2.1843,10.3652,-18.9217,-14.4696
115,4.7134,-11.6111,1.8011,12.4522,-15.6522,-14.6087
120,4.2152,-11.3811,0.8814,14.1913,-12.2435,-14.8174
125,3.832,-11.7643,0.6898,14.1913,-8.9043,-15.4435
130,3.3722,-11.841,0.4215,11.9652,-7.3739,-17.8087
135,3.1806,-12.8373,-0.9963,6.7478,-9.3913,-20.5217
140,2.8357,-13.9486,-2.4525,-4.5913,-12.9391,-24.1391
145,2.6824,-15.4814,-2.7974,-20.8,-12.5913,-27.4783
150,2.2609,-16.8226,-2.0693,-33.9478,-6.3304,-30.4
155,1.5711,-17.3208,-1.5328,-38.5391,2.2261,-32.7652
160,1.2646,-16.8609,-1.5328,-35.0609,10.9217,-34.5739
165,1.8011,-16.1712,-1.8394,-27.0609,20.7304,-36.5913
170,1.9543,-15.2515,-2.1076,-17.4609,31.4435,-39.513
175,1.916,-14.2552,-2.3759,-7.1652,41.3913,-42.4348
180,1.916,-13.2588,-2.6441,3.1304,49.8783,-45.287
185,1.9543,-11.9176,-2.8357,11.7565,57.113,-46.8174
190,1.6095,-10.4231,-3.4105,17.7391,62.5391,-45.9826
195,1.5328,-9.0436,-3.832,20.2435,65.6,-43.4087
200,1.0346,-7.9706,-4.4452,19.687,65.9478,-40.4174
205,0.4598,-7.1276,-4.4835,16.8348,63.3739,-37.4261
210,-0.115,-6.5145,-4.4068,12.8,58.9217,-34.713
215,-0.843,-6.2079,-4.3302,8.1391,53.0783,-32.0
220,-1.4179,-5.978,-4.1003,3.7565,46.4696,-29.4261
225,-2.1076,-6.1313,-3.7937,0.2087,38.9565,-27.2
230,-2.7207,-6.3229,-2.9123,-1.7391,30.6087,-25.3913
235,-3.2189,-6.821,-2.7591,-2.6435,21.7043,-24.0696
240,-3.8704,-7.2425,-2.6441,-3.6174,12.8,-22.8174
245,-4.1386,-7.894,-2.1843,-5.1478,4.1739,-21.5652
250,-4.2919,-8.5838,-1.9927,-7.5826,-3.2,-20.5217
255,-4.1386,-9.0819,-1.7244,-10.3652,-8.9043,-19.2696
260,-3.9853,-9.5418,-1.6478,-13.6348,-12.6609,-18.0174
265,-3.3722,-10.0399,-1.6861,-17.0435,-14.4,-16.3478
270,-2.7591,-10.6147,-1.8394,-20.313,-14.1913,-14.6087
275,-2.1843,-11.1512,-1.9543,-23.5826,-12.4522,-12.4522
280,-1.4562,-11.3811,-2.2226,-26.2261,-9.3913,-9.8783
285,-0.6898,-11.8027,-2.1459,-28.1739,-5.8435,-7.2348
290,0.0,-11.9943,-2.2226,-29.0087,-2.2957,-4.5913
295,0.843,-12.1092,-2.2609,-28.6609,1.2522,-2.3652
300,1.6861,-12.1092,-2.3759,-27.1304,4.313,-0.5565
305,2.6058,-12.0709,-2.2609,-24.9739,6.7478,0.6957
310,3.3722,-11.9559,-2.2226,-21.8435,8.7652,1.6
315,3.947,-11.726,-2.0693,-17.7391,10.5739,2.2957
320,4.1769,-11.1895,-1.8777,-12.6609,12.2435,2.4348
325,4.3302,-10.7297,-1.7627,-6.9565,14.2609,2.4348
330,4.4068,-10.0782,-1.5328,-0.9739,16.9043,2.4348
335,4.2152,-9.4651,-1.3795,4.5913,20.1043,2.5043
340,4.2152,-9.0436,-1.3412,9.5304,23.5826,2.713
345,3.947,-8.3921,-1.4562,13.7739,27.5478,3.2696
350,3.6404,-8.0089,-1.3412,16.6957,31.513,3.8261
355,3.3722,-7.6641,-1.4179,18.3652,35.4783,4.9391
360,3.0273,-7.4341,-1.3029,18.713,39.2348,6.1217
365,2.6058,-7.3575,-1.1496,18.087,42.5739,7.4435
370,2.4525,-7.2042,-1.1113,17.0435,45.4957,8.9043
375,2.1076,-7.2042,-0.843,15.2348,47.7913,10.2957
380,1.8011,-7.2425,-0.7281,13.0783,49.9478,11.8957
385,1.5711,-7.3192,-0.7281,10.3652,51.687,13.0783
390,1.3029,-7.3192,-0.7664,7.2348,53.5652,14.0522
395,1.1113,-7.6257,-0.6898,3.7565,55.3739,14.887
400,0.8047,-7.6641,-0.6898,0.0,57.1826,15.4435
405,0.4982,-7.8557,-0.843,-3.5478,58.8522,16.0
410,0.3066,-8.1622,-0.6898,-7.1652,60.3826,16.5565
415,0.0,-8.3538,-0.843,-10.2957,62.0522,17.113
420,0.0,-8.5454,-0.7664,-12.3826,63.6522,17.7391
425,-0.0766,-8.7754,-0.8814,-13.7739,65.3913,18.2957
430,-0.4215,-8.8903,-0.843,-14.4696,67.4087,18.9217
435,-0.6131,-8.9286,-0.7281,-14.6087,69.4261,19.6174
440,-0.6131,-9.0436,-0.7664,-14.3304,71.5826,20.0348
445,-0.5748,-9.2735,-0.7664,-13.7043,73.8087,20.5217
450,-0.4598,-9.2352,-0.7664,-13.0087,76.1043,20.8
455,-0.3832,-9.1586,-0.7664,-12.1739,78.5391,20.8696
460,-0.3832,-9.1202,-0.7664,-11.3391,81.0435,20.5913
465,0.0,-9.1969,-0.6898,-10.5043,83.3391,20.1043
470,0.1916,-9.0819,-0.7281,-9.4609,85.6348,19.1304
475,0.4215,-9.0053,-0.6898,-8.4174,87.6522,17.8087
480,0.7281,-8.967,-0.7281,-7.2348,89.5304,16.1391
485,0.958,-8.6604,-0.7281,-6.1913,91.1304,14.0522
490,1.1879,-8.5838,-0.6514,-5.4261,92.313,11.8957
495,1.3412,-8.4688,-0.6131,-4.6609,93.4261,9.8087
500,1.4945,-8.5454,-0.6131,-3.7565,94.2609,7.7913
505,1.4945,-8.2389,-0.7281,-3.2696,94.887,5.913
510,1.3795,-8.3155,-0.6131,-3.1304,95.3043,4.313
515,1.3412,-8.4305,-0.4982,-3.3391,95.6522,3.2696
520,1.1496,-8.4688,-0.6131,-3.7565,95.7217,2.5043
525,0.9197,-8.4305,-0.6898,-4.5217,95.6522,2.3652
530,0.8047,-8.4688,-0.4215,-5.4957,95.3739,2.7826
535,0.5365,-8.4688,-0.5365,-6.5391,95.1652,3.7565
540,0.3449,-8.4688,-0.4982,-7.7217,95.3043,5.2174
545,0.1916,-8.5454,-0.6898,-8.9739,95.4435,6.5391
550,0.1533,-8.6221,-0.7281,-10.087,95.8609,7.7217
555,0.0383,-8.7754,-0.7664,-11.1304,96.6957,8.6957
560,0.0,-8.7754,-0.7664,-11.8957,97.7391,9.1826
565,0.0,-9.1586,-0.8047,-12.5217,98.6435,9.1826
570,0.0766,-9.1586,-0.8047,-12.9391,99.8957,9.0435
575,0.115,-9.5034,-0.7281,-12.8696,101.287,8.4174
580,0.3449,-9.5801,-0.6514,-12.6609,102.9565,7.6522
585,0.4982,-9.7334,-0.6131,-11.9652,104.5565,6.4
590,0.6898,-9.925,-0.5748,-10.9913,106.2261,5.6348
595,0.8047,-10.0016,-0.4982,-9.7391,107.8261,4.3826
600,0.9963,-10.1166,-0.4215,-8.4174,109.1478,3.2696
605,1.1113,-10.1166,-0.2682,-7.0957,110.4696,2.0174
610,1.073,-10.2698,-0.2299,-5.7739,111.6522,0.9043
615,0.8814,-10.3082,-0.1916,-4.5913,112.7652,0.0
620,0.8814,-10.4998,-0.1533,-3.2696,113.4609,-0.6957
625,0.6898,-10.5764,-0.115,-2.2957,114.087,-1.0435
630,0.3449,-10.4231,-0.1533,-1.7391,114.6435,-1.0435
635,0.1533,-10.2315,-0.0766,-1.3913,115.2,-0.4174
640,0.0,-10.1166,-0.0766,-0.9739,115.9652,0.487
645,-0.2682,-10.0399,0.0766,-0.8348,116.9391,1.6
650,-0.4598,-9.7717,0.115,-0.5565,118.3304,2.8522
655,-0.4598,-9.6184,0.1916,-0.1391,120.0696,4.1043
660,-0.3449,-9.3502,0.2682,1.0435,122.2261,5.4957
665,-0.2299,-9.0819,0.1533,1.9478,124.1739,6.7478
670,-0.115,-8.6987,0.0766,2.6435,126.4696,8.0
675,-0.1533,-8.2005,-0.1916,2.9913,128.9043,9.1826
680,-0.6514,-8.0856,-0.8047,1.8783,130.8522,10.713
685,-0.6898,-8.0473,-1.8394,-2.713,131.9652,12.8696
690,-0.1533,-8.2005,-2.9507,-12.8,132.0348,16.3478
695,0.6898,-9.0053,-3.5255,-26.9913,132.2435,21.3565
700,1.6095,-9.925,-3.832,-38.5391,132.6609,25.6696
705,1.8394,-10.653,-5.0966,-45.7739,131.5478,26.9913
710,1.5711,-11.1129,-5.863,-53.1478,128.2783,26.713
715,0.1533,-11.8027,-5.02,-60.6609,126.6783,26.7826
720,-0.9963,-12.6074,-3.2955,-62.0522,126.8174,28.9391
725,-1.4562,-13.1055,-1.5328,-57.0435,126.1913,31.4435
730,-1.5328,-13.1439,0.115,-45.8435,124.6609,34.0174
735,-1.1496,-12.9139,0.7664,-29.1478,122.6435,36.5217
740,-1.073,-12.6074,0.8814,-9.3913,120.6957,38.2609
745,-0.7664,-12.4924,0.115,8.6957,120.0696,39.3739
750,-0.0766,-11.9559,-1.1113,19.7565,120.4174,40.0696
755,0.8047,-11.2662,-2.4525,20.9391,120.9739,39.1652
760,1.6861,-10.5381,-3.3722,14.2609,123.1304,36.8696
765,2.3759,-9.8866,-3.7171,3.5478,127.3739,33.9478
770,2.7591,-9.2352,-3.6404,-7.5826,133.287,30.9565
775,3.2189,-8.3538,-3.6787,-16.9043,139.4783,27.3391
780,3.7937,-7.3575,-3.2572,-22.7478,145.3217,22.5391
785,3.9087,-6.5528,-3.1806,-24.0,150.1913,16.6261
790,3.7554,-5.978,-3.2572,-22.4,154.0174,11.2696
795,3.5255,-5.6714,-3.3722,-20.5217,157.0783,7.1652
800,3.2572,-5.748,-3.2955,-19.8957,159.9304,4.2435
805,2.7207,-5.9396,-3.2189,-20.313,162.7826,2.0174
810,2.3375,-6.2079,-3.1806,-21.287,165.7043,-0.2087
815,1.6861,-6.7061,-2.874,-22.1913,168.9043,-2.2957
820,1.1496,-7.0893,-2.6058,-23.0261,171.8957,-4.0348
825,0.6131,-7.4341,-2.6058,-23.3739,174.0522,-5.4261
830,0.1916,-7.8557,-2.4908,-23.513,175.2348,-6.2609
835,-0.0766,-8.4305,-2.2992,-24.2087,175.5826,-6.6087
840,-0.5748,-8.7754,-2.4525,-25.6696,175.3739,-6.2609
845,-0.958,-8.967,-2.3759,-28.313,174.4696,-5.5652
850,-1.2646,-9.1969,-2.4908,-31.4435,173.4261,-4.4522
855,-1.4945,-9.1202,-2.6058,-34.4348,172.2435,-3.2
860,-1.8777,-8.9286,-2.874,-36.5913,171.1304,-1.8087
865,-2.1459,-8.5454,-2.874,-37.913,169.6696,-0.4174
870,-2.1843,-8.3155,-3.0656,-38.6783,168.2087,0.9043
875,-2.1076,-7.8173,-3.0656,-38.6087,166.7478,2.2957
880,-1.916,-7.5874,-3.2572,-38.4,165.287,3.4783
885,-1.7627,-7.1276,-3.1423,-37.9826,164.0348,4.5217
890,-1.6095,-7.0126,-3.0273,-37.7043,162.9217,5.4957
895,-1.4562,-6.7444,-3.0656,-37.287,161.6696,6.5391
900,-0.9963,-6.7827,-2.8357,-36.7304,160.487,7.3043
905,-0.7664,-6.6294,-2.6058,-35.4783,159.6522,7.7913
910,-0.7281,-6.5911,-2.5291,-33.9478,159.0261,8.1391
915,-0.4982,-6.7061,-2.2609,-32.6261,158.1217,8.487
920,-0.4215,-6.7827,-2.1076,-31.5826,157.0783,8.6957
925,-0.3832,-7.0126,-1.916,-31.0261,156.0348,8.8348
930,-0.3066,-6.9743,-1.916,-30.8174,155.2696,8.9739
935,-0.5365,-6.8977,-2.031,-31.4435,154.8522,8.9739
940,-0.3066,-6.9743,-1.9927,-32.6261,154.5043,8.9043
945,-0.3449,-6.9743,-2.1076,-34.087,154.3652,8.5565
950,-0.3449,-6.5528,-2.0693,-35.7565,154.1565,8.1391
955,-0.3832,-6.8977,-2.3375,-37.287,154.0174,7.7217
960,-0.4598,-6.7444,-2.3375,-38.8174,153.7391,7.513
965,-0.6131,-6.7827,-2.5675,-40.4174,153.3913,7.6522
970,-0.958,-6.6294,-2.9507,-42.2261,153.0435,7.8609
975,-0.9963,-6.5528,-3.0656,-44.2435,152.6261,8.487
980,-1.2263,-6.3612,-3.1806,-46.5391,152.1391,9.4609
985,-1.2263,-6.3229,-3.4488,-48.6957,151.1652,10.713
990,-1.3412,-6.3229,-3.5638,-50.3652,150.1217,11.7565
995,-1.5711,-6.1313,-3.5638,-51.687,148.8696,12.9391
1000,-1.8394,-6.1696,-3.9087,-53.0783,147.1304,14.3304
1005,-1.9543,-6.2079,-3.7554,-54.4696,145.113,15.5826
1010,-2.1459,-6.1313,-3.832,-55.7217,142.887,17.1826
1015,-2.4525,-6.2079,-3.7554,-57.113,140.9391,18.4348
1020,-2.7207,-6.0546,-3.8704,-58.2957,139.5478,19.5478
1025,-2.7207,-5.9013,-3.6787,-59.3391,138.8522,20.6609
1030,-2.6058,-5.9396,-3.6787,-60.2435,138.5739,21.7043
1035,-2.7207,-5.5948,-3.6404,-61.1478,138.7826,22.5391
1040,-2.6441,-5.3265,-3.6021,-62.1913,139.0609,23.1652
1045,-2.5291,-5.02,-3.6021,-63.2348,139.3391,24.0696
1050,-2.3759,-4.8667,-3.4488,-64.4174,139.9652,24.9043
1055,-2.5675,-4.5984,-3.3339,-65.7391,141.287,25.7391
1060,-2.1459,-4.4835,-2.9123,-67.3391,142.4696,27.5478
1065,-2.031,-4.4452,-2.9123,-67.8261,144.9043,29.1478
1070,-1.8394,-4.2919,-2.7974,-67.2,148.0348,30.887
1075,-1.6478,-4.2152,-2.4908,-65.8783,151.3739,33.113
1080,-1.3795,-4.1769,-2.2992,-64.2783,154.9217,35.687
1085,-1.0346,-4.2919,-2.2992,-62.6783,158.4,38.4696
1090,-0.7664,-3.947,-2.1459,-61.4261,162.0174,41.3913
1095,-0.4598,-4.1386,-2.1076,-59.7565,165.7043,44.313
1100,-0.3066,-3.8704,-2.1076,-57.4609,169.3913,47.1652
1105,0.0383,-3.6787,-2.3375,-54.887,172.9391,49.6696
1110,0.1533,-3.4105,-2.3375,-53.287,176.6261,51.6174
1115,0.0383,-3.1039,-2.7974,-53.0087,179.8957,53.7043
1120,-0.0383,-3.0656,-2.7207,-54.4,182.3304,55.5826
1125,-0.2299,-3.2955,-2.4908,-57.1826,183.7217,57.6696
1130,-0.1533,-3.4488,-2.4142,-60.6609,183.9304,59.8261
1135,-0.4598,-3.6021,-2.6058,-64.8348,183.8609,61.5652
1140,-1.073,-3.9087,-2.7591,-69.4957,184.0696,63.1652
1145,-1.4945,-4.062,-3.1039,-74.7826,183.1652,64.487
1150,-2.2226,-4.4068,-3.4105,-80.0696,180.5217,65.6696
1155,-2.874,-4.9816,-3.6787,-83.3391,177.3217,66.8522
1160,-3.6021,-5.7864,-4.1003,-83.9652,175.1652,67.8261
1165,-4.0236,-6.6677,-4.4452,-83.687,175.3043,68.3826
1170,-4.1769,-7.5491,-4.5601,-83.4087,177.8783,68.1043
1175,-4.0236,-8.737,-4.5218,-83.0609,181.0087,66.2261
1180,-3.9087,-9.4651,-4.3685,-82.8522,182.6087,62.4696
1185,-3.9087,-10.0016,-4.062,-82.2957,181.2174,56.8348
1190,-3.7937,-10.4231,-4.2536,-82.2957,177.113,49.8783
1195,-3.7937,-10.5764,-4.2152,-85.0087,171.3391,42.2957
1200,-3.9087,-10.4998,-3.832,-89.113,164.1739,34.9913
1205,-4.2152,-10.8063,-3.4488,-91.3391,155.8261,28.4522
1210,-4.4835,-10.6914,-3.1423,-90.2261,146.6435,22.7478
1215,-4.6751,-10.4998,-3.2189,-87.5826,138.087,18.4348
1220,-4.8284,-10.1549,-3.2955,-85.287,131.4783,15.7217
1225,-4.5601,-9.8483,-3.3339,-83.2696,126.8174,14.887
1230,-4.5218,-9.695,-3.1039,-80.6957,123.8957,15.1652
1235,-4.5601,-9.4268,-2.7591,-77.2174,121.0435,15.513
1240,-4.2919,-9.1969,-2.3759,-73.8087,117.6348,16.8348
1245,-3.7554,-9.0053,-1.8394,-70.6087,112.2783,17.5304
1250,-3.0656,-8.6987,-1.3412,-67.687,105.7391,17.7391
1255,-2.3759,-8.2005,-1.1879,-65.8087,98.0174,17.1826
1260,-1.3412,-7.5874,-1.3412,-64.9043,89.2522,15.5826
1265,-0.4215,-7.1276,-1.3412,-63.2348,81.0435,12.5913
1270,0.0383,-6.8593,-1.4945,-61.4261,74.0174,8.487
1275,0.4215,-6.9743,-1.4945,-59.687,69.4261,3.3391
1280,1.6861,-7.0126,-1.5711,-58.2957,67.9652,-2.5739
1285,2.3375,-7.2042,-1.5711,-58.713,69.8435,-6.4696
1290,2.7974,-7.7407,-1.9543,-59.687,74.5043,-10.9217
1295,3.0273,-8.6221,-2.031,-59.687,81.113,-14.6087
1300,3.5255,-9.6184,-2.3375,-55.1652,87.7913,-17.8087
1305,3.5255,-10.8063,-2.6058,-46.5391,93.0783,-22.4696
1310,3.0656,-11.9559,-2.6441,-35.0609,96.2087,-28.8
1315,2.7974,-13.1055,-2.5675,-20.5913,97.8087,-34.2261
1320,2.4525,-13.2971,-2.7591,-4.5217,99.2,-40.0
1325,2.1843,-12.799,-2.874,11.8261,100.5217,-44.3826
1330,1.9543,-11.9943,-2.7974,27.7565,101.1478,-47.6522
1335,1.8011,-11.3428,-3.1423,43.2,101.0783,-50.087
1340,1.5328,-10.1166,-3.2572,57.6696,101.913,-53.0783
1345,1.3029,-9.1202,-3.1423,69.913,102.9565,-56.8348
1350,0.9197,-8.3538,-2.7591,77.6348,104.3478,-61.9826
1355,0.8047,-7.8557,-2.3375,81.0435,105.6,-67.5478
1360,0.5365,-7.5491,-1.7244,82.2957,105.8783,-73.8087
1365,0.4215,-7.2809,-1.073,83.5478,105.6696,-80.6957
1370,0.0,-7.2425,-0.843,86.0522,105.3217,-87.513
1375,-0.2682,-7.3575,-0.5748,89.2522,104.487,-94.6087
1380,-0.7664,-7.6641,-0.5365,93.0783,102.9565,-101.8435
1385,-0.6898,-7.8557,-0.3449,97.0435,100.5913,-109.287
1390,-1.4562,-8.2389,-0.3832,101.9826,97.3217,-116.9391
1395,-1.8394,-7.8173,-0.7664,106.0174,93.4957,-124.8
1400,-1.916,-7.1276,-1.2263,107.4087,90.3652,-131.2696
1405,-2.031,-6.2845,-1.3029,107.3391,88.3478,-136.0
1410,-1.9927,-6.0163,-0.9963,106.9913,86.6783,-139.4783
1415,-1.4562,-6.2079,-0.4598,106.2957,85.5652,-142.7478
1420,-0.9197,-6.6294,-0.4598,106.0174,86.8174,-145.6
1425,0.5365,-7.3958,-0.4982,106.9913,89.8087,-148.1043
1430,1.9927,-8.737,-0.3066,108.8,93.1478,-150.8174
1435,3.1423,-10.0016,-0.115,111.9304,97.6,-154.5043
1440,4.5601,-11.5727,0.1533,117.3565,103.0261,-158.6783
1445,6.1696,-13.0289,0.5365,126.1913,109.0783,-162.4348
1450,8.1239,-14.6384,0.5365,138.3652,116.313,-165.0783
1455,9.4268,-16.5161,0.4982,151.4435,124.8696,-165.7043
1460,10.4998,-19.1985,0.9963,163.8957,133.3565,-163.2696
1465,12.684,-22.1875,1.5711,176.4174,139.0609,-159.3739
1470,15.0982,-25.1764,2.1843,190.4696,143.0957,-155.9652
1475,16.7077,-28.6636,2.4525,205.3565,145.8783,-155.9652
1480,18.7003,-33.7219,4.79,220.8,146.9217,-155.8261
1485,26.7093,-41.4626,3.947,243.4087,143.5826,-150.6087
1490,32.304,-49.5098,3.8704,264.9739,154.3652,-160.6957
1495,39.7765,-54.1849,-2.5675,276.2435,159.0261,-179.2
1500,61.5041,-54.798,-17.2825,250.7826,155.3391,-217.113
1505,65.8726,-44.6432,-22.8772,182.9565,155.2696,-271.7913
1510,47.4789,-33.8368,-16.8609,159.0261,150.1217,-306.5739
1515,24.9082,-27.3607,-9.3502,221.5652,133.4261,-317.0783
1520,13.3355,-21.3061,-3.1806,303.6522,119.7217,-299.5478
1525,2.4142,-16.3628,2.1076,360.6261,130.1565,-268.6609
1530,-5.748,-11.4578,6.3995,404.8,149.6348,-235.6174
1535,-11.9943,-5.5181,9.0436,441.4609,165.2174,-202.7826
1540,-15.5197,-0.9197,10.9979,461.4957,161.6696,-176.4174
1545,-12.684,3.1039,10.8063,456.1391,132.3826,-160.6957
1550,-8.5071,7.8173,8.9286,415.2348,83.2696,-153.8087
1555,-6.5911,9.4268,7.4341,342.2609,26.8522,-156.1043
1560,-5.2499,8.5454,6.5911,255.7913,-22.0522,-166.8174
1565,-4.5218,7.5491,5.4415,182.1217,-58.9913,-185.3217
1570,-3.9087,3.1039,4.8284,130.8522,-78.887,-204.2435
1575,-2.2609,-2.2226,2.874,109.3565,-83.9652,-226.7826
1580,-0.7281,-7.3575,-0.4598,112.6261,-74.4348,-248.6957
1585,0.1533,-11.4195,-2.989,126.3304,-55.6522,-264.2783
1590,1.4179,-14.1785,-3.2572,140.9391,-34.4348,-273.4609
1595,2.8357,-15.9413,-1.4179,158.9565,-13.4261,-276.313
1600,4.1003,-16.5161,0.6131,186.6435,5.5652,-273.1826
1605,5.3648,-16.0562,1.916,219.2,22.1217,-266.5739
1610,5.978,-13.4504,2.7207,247.513,33.5304,-258.9217
1615,5.6714,-9.9633,2.6824,261.8435,36.6609,-251.1304
1620,5.1732,-5.9013,2.7591,256.4174,31.7913,-242.7826
1625,3.9853,-1.6478,3.0656,233.9478,23.3043,-232.487
1630,3.1039,2.4142,3.1423,199.1652,16.5565,-219.2696
1635,2.2609,5.1732,3.0656,156.0348,15.2348,-202.6435
1640,2.031,6.7061,2.8357,110.3304,16.2087,-182.0522
1645,1.9927,6.6677,2.8357,68.8696,14.1913,-159.5826
1650,2.5291,5.4032,3.1423,38.6087,7.5826,-139.4087
1655,3.1806,4.4452,3.4488,20.9391,1.0435,-126.3304
1660,2.7974,3.947,4.79,13.7739,-1.1826,-120.6261
1665,4.2152,3.6787,5.3265,19.687,-0.3478,-117.7739
1670,5.9396,3.4488,5.0966,33.6696,4.3826,-116.5217
1675,8.3155,2.8357,4.4068,48.2783,11.4087,-117.8435
1680,10.1932,2.4525,4.1386,60.1739,21.4957,-122.3652
1685,11.8027,1.8777,4.1769,65.8783,32.3478,-127.4435
1690,13.4504,1.3412,4.2919,68.3826,39.7217,-131.4087
1695,15.7496,0.8814,4.3302,73.3913,41.2522,-135.6522
1700,17.9722,1.8394,3.6021,78.6087,42.4348,-137.0435
1705,18.8919,2.6824,3.6021,78.2609,42.1565,-134.6087
1710,20.5397,3.4488,3.6021,77.3565,34.7826,-128.3478
1715,21.3827,4.79,3.7937,76.4522,24.7652,-114.7826
1720,21.0379,6.5528,3.9853,72.8348,15.1652,-95.0261
1725,21.3061,8.5071,3.6787,68.5913,4.0348,-72.6261
1730,20.9229,10.0016,2.989,65.0435,-3.9652,-47.513
1735,20.5397,10.2315,2.874,63.9304,-9.1826,-19.5478
1740,19.5434,10.3848,2.4525,69.1478,-12.5217,7.3043
1745,18.1638,10.653,2.3375,77.0783,-13.7739,31.8609
1750,16.2478,10.3848,2.2609,84.8696,-9.8087,51.9652
1755,14.3318,10.3082,2.2226,88.5565,0.487,68.6609
1760,13.5654,9.6567,2.4908,84.9391,14.6783,84.2435
1765,12.8373,9.0819,3.3722,74.6435,30.9565,96.1391
1770,11.4961,8.2005,4.1769,58.2261,46.5391,104.6261
1775,9.9633,7.5108,4.8667,38.0522,58.087,110.6783
1780,9.2735,6.3229,5.7864,17.0435,64.3478,113.3913
1785,8.3921,4.9816,6.8593,-1.3913,66.5739,110.4696
1790,6.936,4.062,7.5108,-16.2087,67.1304,103.0261
1795,4.8667,3.0656,7.7407,-28.313,66.2261,92.8
1800,3.3339,2.031,7.3958,-37.1478,63.5826,82.9217
1805,1.6478,1.3412,6.2079,-42.2957,60.8,74.4348
1810,0.7281,0.5748,5.6714,-41.6,57.2522,67.1304
1815,1.0346,1.1113,5.2116,-34.4348,55.3739,58.5043
1820,0.8814,1.4945,4.9433,-27.7565,54.887,50.9217
1825,0.6898,1.6861,4.7134,-18.9217,55.1652,45.0087
1830,0.4982,1.8394,4.4835,-11.6174,54.6783,42.8522
1835,0.115,2.2609,4.5984,-7.8609,52.4522,42.6435
1840,1.1496,2.7207,4.5984,-7.513,48.1391,43.1304
1845,2.6824,3.6787,5.02,-10.5739,41.3217,44.5913
1850,4.3302,4.4835,5.4415,-15.9304,33.6,46.1217
1855,5.6331,5.02,5.5948,-21.4957,26.5739,46.5391
1860,6.0163,4.9816,6.3229,-26.0174,19.5478,44.8696
1865,5.7097,4.905,6.4761,-30.6087,14.887,42.6435
1870,6.3995,4.6368,6.8977,-36.2435,11.0609,40.0696
1875,6.8977,4.4452,7.0509,-40.9043,9.8783,35.3391
1880,6.6294,4.3685,7.1659,-43.4783,11.687,29.5652
1885,5.9013,3.947,6.5145,-44.5913,13.913,24.0696
1890,5.9396,3.832,6.3995,-44.8,14.4,19.8261
1895,6.2462,3.2189,6.2079,-42.5043,14.1913,13.4957
1900,6.2845,2.5291,6.0929,-38.8174,14.5391,7.1652
1905,6.3229,1.8777,5.978,-35.6174,13.0783,2.713
1910,6.5911,1.4179,6.3995,-33.6,11.8261,-0.9739
1915,7.1276,1.4179,6.5911,-31.9304,11.2696,-3.687
1920,8.0089,1.3412,6.936,-31.4435,10.087,-5.4261
1925,9.0053,1.4945,7.3192,-30.9565,9.2522,-6.887
1930,9.695,1.6095,7.6257,-29.9826,8.6261,-8.2783
1935,10.4231,1.8777,8.0856,-28.3826,7.9304,-9.8087
1940,10.6147,2.031,8.3155,-26.5739,6.7478,-11.0609
1945,11.1129,2.2992,8.5838,-24.487,4.5217,-12.1739
1950,11.1512,2.7974,8.8137,-21.3565,1.8783,-13.5652
1955,11.1512,2.9507,9.0436,-18.087,-1.0435,-14.1913
1960,11.0363,3.3722,8.9286,-15.1652,-3.4783,-13.8435
1965,10.4998,3.6404,8.6221,-13.4957,-5.3565,-12.8
1970,9.695,3.947,7.894,-13.2174,-6.8174,-11.4087
1975,10.1932,4.062,7.5874,-13.4957,-5.9826,-9.3217
1980,9.6184,4.3685,6.936,-13.0087,-3.2696,-7.2348
1985,9.3502,4.2919,6.2079,-13.7043,-2.5043,-5.3565
1990,8.967,3.0656,6.3995,-15.9304,-3.8261,-5.0783
1995,8.5071,1.9543,6.5145,-16.2087,-5.913,-6.1913
2000,8.0089,0.7664,6.8593,-13.7739,-7.2348,-8.0
2005,7.3192,-0.2299,7.1276,-10.4348,-8.9043,-9.4609
2010,6.5911,-0.9963,7.4341,-7.7217,-11.3391,-10.5043
2015,5.748,-1.6861,7.894,-4.8,-14.6783,-11.6174
2020,5.0583,-2.2609,8.0856,-2.1565,-19.5478,-12.5217
2025,4.8667,-2.5675,8.2389,0.9739,-25.7391,-13.5652
2030,4.7134,-2.8357,8.3538,4.9391,-33.3913,-15.1652
2035,4.4835,-3.0656,8.3921,8.6957,-41.3217,-16.487
2040,4.6368,-3.2572,7.9323,12.0348,-49.0435,-17.7391
2045,4.7517,-3.2189,7.779,14.9565,-55.8609,-18.3652
2050,5.2499,-2.989,7.4341,17.6,-61.4261,-19.2
2055,5.5181,-2.7591,7.0509,20.1043,-65.3913,-19.8957
2060,6.0929,-2.4525,6.5145,23.0261,-67.8957,-19.687
2065,6.4761,-1.916,5.9013,25.3217,-68.5913,-18.6435
2070,6.8593,-1.3795,5.2116,26.8522,-67.687,-17.4609
2075,7.3575,-0.9197,4.8284,27.5478,-65.5304,-16.0
2080,7.7024,-0.5748,4.2536,28.2435,-62.6087,-14.4
2085,8.0089,-0.2299,3.8704,28.313,-59.4783,-12.5217
2090,8.2005,-0.2299,3.6404,28.0348,-56.2783,-10.6435
2095,8.4305,0.0,3.3339,27.9652,-53.7739,-8.3478
2100,8.5454,-0.2299,3.1423,27.2696,-51.2,-5.8435
2105,8.6604,-0.3832,2.9507,25.8783,-49.113,-3.2
2110,8.5071,-0.8814,2.989,23.8609,-47.0957,-0.6957
2115,8.4305,-1.2646,2.9507,21.913,-45.4261,2.0174
2120,8.3538,-1.8011,3.0273,20.1043,-44.0348,4.5217
2125,8.0856,-2.1459,3.0273,18.2957,-42.9217,6.7478
2130,7.8173,-2.5675,3.0273,16.5565,-41.6,8.5565
2135,7.7024,-2.8357,3.2955,15.0261,-40.0696,10.0174
2140,7.5491,-2.874,3.3339,14.1217,-38.6087,11.0609
2145,7.7407,-2.9123,2.9123,13.7043,-36.3826,11.7565
2150,7.7024,-2.7591,2.9507,12.5217,-33.8783,12.0348
2155,7.7407,-2.5675,2.874,10.5739,-31.4435,12.313
2160,8.0089,-2.4908,2.7591,8.6261,-28.8,12.5913
2165,8.3155,-2.3759,2.7974,6.3304,-26.2957,12.5217
2170,8.5071,-2.2226,2.6441,4.1739,-23.9304,12.3826
2175,8.5838,-2.2609,2.4908,1.9478,-22.1217,12.2435
2180,9.0053,-2.2992,2.5291,-0.6261,-21.0087,12.6609
2185,9.1969,-2.2609,2.7974,-2.713,-20.0348,13.4261
2190,9.3885,-2.4142,2.9123,-4.3826,-19.4783,13.6348
2195,9.5801,-2.4525,3.0273,-5.0087,-18.9913,14.0522
2200,9.7717,-2.5675,3.1423,-4.6609,-18.7826,14.5391
2205,9.8483,-2.6441,2.989,-3.687,-19.0609,14.6783
2210,10.2315,-2.7591,3.0273,-2.2957,-19.4783,14.4
2215,10.2698,-2.7207,2.9123,-0.6261,-19.9652,13.8435
2220,10.3082,-2.7974,2.989,0.7652,-20.313,13.0087
2225,10.4614,-2.7207,2.7591,1.9478,-20.8696,11.9652
2230,10.4231,-2.7974,2.6824,3.0609,-21.6348,10.4348
2235,10.3848,-2.5291,2.4525,4.1043,-22.1913,8.4174
2240,10.3848,-2.4142,2.0693,5.0783,-22.5391,6.4696
2245,10.1166,-2.4908,2.2226,6.3304,-22.4,3.9652
2250,10.3465,-2.4908,2.031,8.0,-22.1913,1.6696
2255,9.9633,-2.4525,1.916,9.113,-21.4957,-0.6957
2260,10.0399,-2.2226,1.916,9.9478,-20.8696,-2.5739
2265,9.925,-2.1459,1.8011,10.3652,-19.9652,-4.1739
2270,10.0016,-2.1459,1.6861,10.087,-19.0609,-5.0783
2275,10.0782,-1.9927,1.6861,9.5304,-17.8783,-5.4957
2280,10.1549,-1.9543,1.7244,8.5565,-16.7652,-6.0522
2285,10.1549,-1.8777,1.7244,7.2348,-15.5826,-6.2609
2290,10.0782,-1.8777,1.7627,5.8435,-14.0522,-6.4696
2295,10.1166,-1.6861,1.8011,4.1739,-12.5217,-6.6783
2300,10.0016,-1.6861,1.9927,2.5043,-10.713,-6.887
2305,10.0399,-1.6478,1.9927,1.0435,-8.7652,-7.2348
2310,9.925,-1.6861,2.1459,0.0696,-6.8174,-7.7217
2315,9.8483,-1.8011,2.0693,-0.2783,-5.0783,-8.3478
2320,9.8483,-1.7244,2.1459,-0.2087,-3.5478,-9.113
2325,9.7717,-1.6861,2.2226,0.1391,-2.1565,-9.8087
2330,9.695,-1.7627,2.3759,0.487,-1.3913,-10.6435
2335,9.6184,-1.7244,2.4142,0.9739,-0.8348,-11.5478
2340,9.5801,-1.7244,2.6058,1.3913,-0.4174,-12.3826
2345,9.5418,-1.6095,2.4908,1.8783,-0.0696,-12.9391
2350,9.4651,-1.5711,2.4908,2.1565,0.0696,-13.3565
2355,9.5034,-1.4945,2.6824,2.087,0.0696,-13.7043
2360,9.5034,-1.4179,2.7591,1.6696,0.5565,-13.7043
2365,9.4651,-1.3412,2.7974,1.113,1.2522,-13.3565
2370,9.3885,-1.2263,2.874,0.4174,2.3652,-12.9391
2375,9.5418,-1.0346,2.9123,-0.5565,3.8261,-12.2435
2380,9.3118,-1.1879,3.0273,-1.6696,5.7739,-11.5478
2385,9.2352,-1.1113,3.0656,-2.3652,7.3739,-10.6435
2390,9.0819,-1.1496,3.3339,-2.9913,9.3217,-9.2522
2395,8.8137,-0.958,3.4488,-3.3391,10.6435,-8.1391
2400,8.852,-1.0346,3.5638,-3.687,11.9652,-6.887
2405,8.6604,-0.9963,3.5638,-3.8261,13.0783,-5.9826
2410,8.5838,-0.8814,3.7171,-4.0348,14.2609,-5.3565
2415,8.5454,-0.8814,3.7937,-4.1043,14.887,-5.0783
2420,8.4688,-0.8047,3.8704,-4.0348,15.0957,-4.6609
2425,8.4305,-0.843,3.8704,-4.1043,15.0261,-4.3826
2430,8.5071,-0.6898,3.9853,-4.1739,14.4696,-4.1739
2435,8.5838,-0.5748,4.0236,-4.1739,13.8435,-4.0348
2440,8.737,-0.6131,3.9087,-4.313,12.9391,-3.8957
2445,8.6987,-0.4982,3.8704,-4.5913,12.0348,-3.8261
2450,8.852,-0.4982,3.9087,-4.7304,11.2,-3.8261
2455,9.0819,-0.4215,3.832,-4.9391,10.4348,-3.7565
2460,9.1969,-0.4598,3.7171,-5.0087,10.0174,-3.8957
2465,9.3118,-0.4598,3.4105,-5.0783,9.4609,-4.1043
2470,9.3502,-0.3449,3.4105,-5.0783,8.9739,-4.1043
2475,9.3885,-0.3449,3.3339,-5.0087,8.5565,-4.313
2480,9.4651,-0.3832,3.1806,-5.287,8.4174,-4.313
2485,9.4651,-0.4215,3.4105,-5.8435,8.2087,-4.3826
2490,9.5034,-0.4982,3.3339,-6.1217,8.0,-4.2435
2495,9.4651,-0.3449,3.2572,-5.7739,7.9304,-4.1043
2500,9.5418,-0.3449,3.2189,-5.6348,8.2783,-3.9652
2505,9.5034,-0.4215,3.4105,-5.6348,8.8348,-3.4783
2510,9.4651,-0.4982,3.3339,-5.5652,9.5304,-2.713
2515,9.4268,-0.3832,3.3339,-5.287,10.4348,-2.087
2520,9.3502,-0.5365,3.4488,-4.5217,11.2,-1.5304
2525,9.3885,-0.6131,3.4488,-3.6174,11.8957,-0.8348
2530,9.3118,-0.6514,3.4105,-2.6435,12.5217,-0.3478
2535,9.0436,-0.4982,3.5638,-1.6696,13.0087,0.3478
2540,9.1586,-0.4598,3.6404,-0.9043,13.3565,0.7652
2545,9.1202,-0.4982,3.7937,-0.1391,13.4957,1.3913
2550,8.967,-0.5365,3.7554,0.2783,13.4957,1.8783
2555,8.9286,-0.4598,3.7554,0.6957,13.2174,2.4348
2560,8.852,-0.3832,3.7554,0.9043,12.5217,2.6435
2565,8.967,-0.4598,3.832,0.9739,11.8957,3.2
2570,9.2735,-0.5748,4.0236,1.1826,11.3391,3.687
2575,8.8903,-0.7281,3.947,1.3217,10.5043,3.8261
2580,8.8903,-0.6898,3.8704,1.4609,9.6696,3.9652
2585,8.8903,-0.8047,3.8704,1.3217,8.9043,4.1739
2590,8.8903,-0.843,4.0236,1.2522,8.2783,4.1043
2595,8.8903,-0.8814,3.7554,1.0435,7.9304,4.0348
2600,9.1202,-1.073,3.7937,0.9043,7.513,3.8261
2605,8.852,-0.9963,3.832,0.9739,7.2348,3.5478
2610,8.8903,-1.1496,3.8704,1.0435,6.8174,3.3391
2615,8.9286,-1.2263,3.6404,1.2522,6.6783,2.9913
2620,8.737,-1.4562,3.7554,1.5304,6.6087,2.9217
2625,8.737,-1.6861,3.8704,1.9478,6.6783,2.713
2630,8.5838,-1.4562,3.6787,2.5739,6.7478,2.4348
2635,8.5838,-1.6478,3.7554,3.1304,6.7478,2.2957
2640,8.6221,-1.5328,3.832,3.5478,6.6783,2.2261
2645,8.6604,-1.4945,3.8704,3.8957,6.6783,2.1565
2650,8.4688,-1.4945,3.7171,4.313,6.8174,2.1565
2655,8.6221,-1.5711,3.8704,4.4522,6.887,2.2261
2660,8.6987,-1.4562,3.6787,4.313,6.887,2.2957
2665,8.8137,-1.5711,3.6787,4.1739,6.8174,2.1565
2670,8.6987,-1.4179,3.7171,4.2435,6.7478,2.087
2675,8.6604,-1.4179,3.6404,4.2435,6.6783,1.8783
2680,8.7754,-1.4562,3.2955,4.1739,6.6087,1.7391
2685,9.0053,-1.5328,3.5255,4.3826,6.5391,1.5304
2690,9.0819,-1.5711,3.4105,4.9391,6.4,1.2522
2695,9.1202,-1.5328,3.4871,5.6348,6.1913,1.0435
2700,9.0819,-1.5711,3.4105,6.3304,5.9826,0.9043
2705,9.0819,-1.5328,3.5255,6.8174,5.7043,0.9043
2710,9.0053,-1.4945,3.3722,7.3043,5.4957,0.8348
2715,9.1586,-1.4562,3.2955,7.3739,5.2174,0.8348
2720,9.1969,-1.4945,3.2572,7.3043,4.9391,0.9739
2725,9.0053,-1.4179,3.3722,7.1652,4.7304,1.113
2730,9.1969,-1.3795,3.3722,7.0261,4.5913,1.0435
2735,9.1202,-1.4179,3.1423,6.7478,4.6609,1.1826
2740,9.1202,-1.4945,3.3722,6.5391,4.8696,1.2522
2745,9.0819,-1.4562,3.3339,6.4,5.0783,1.2522
2750,8.9286,-1.2646,3.2955,6.2609,5.2174,1.2522
2755,9.0053,-1.2263,3.3339,6.1913,5.4261,1.0435
2760,8.8903,-1.073,3.3339,6.1913,5.4957,0.9739
2765,8.9286,-1.1879,3.4488,6.2609,5.5652,0.9043
2770,8.967,-1.1113,3.2572,6.2609,5.6348,0.7652
2775,8.7754,-0.9963,3.4105,6.1913,5.913,0.5565
2780,8.852,-1.1113,3.5255,6.0522,6.1217,0.2783
2785,8.6221,-1.1496,3.4105,5.9826,6.5391,-0.0696
2790,8.8903,-1.073,3.5638,5.7739,6.887,-0.2783
2795,8.8903,-0.958,3.5638,5.4261,7.2348,-0.5565
2800,8.852,-1.0346,3.5638,5.287,7.4435,-0.6957
2805,8.7754,-0.9963,3.7937,5.0783,7.4435,-0.8348
2810,8.8137,-0.9963,3.832,4.6609,7.2348,-1.0435
2815,8.852,-1.0346,3.7937,4.313,6.9565,-1.2522
2820,9.0436,-1.073,3.8704,3.8261,6.4696,-1.3913
2825,9.1586,-1.1879,3.832,3.1304,6.0522,-1.3217
2830,9.0819,-0.9197,3.9087,2.1565,5.287,-1.3217
2835,9.2352,-0.8814,3.947,1.113,4.8,-1.2522
2840,9.1586,-0.8047,3.9087,-0.1391,4.313,-1.0435
2845,9.2352,-0.8047,3.8704,-1.5304,3.687,-0.6957
2850,9.2352,-0.8814,3.9853,-2.713,3.0609,-0.487
2855,9.1202,-0.6898,3.9087,-3.687,2.5739,-0.2087
2860,9.1586,-0.7664,4.0236,-4.1043,2.087,0.0
2865,9.1586,-0.8047,4.0236,-4.1043,1.6,0.0
2870,9.0436,-0.8814,3.6787,-3.5478,0.8348,-0.2087
2875,9.0819,-0.958,3.6021,-2.6435,0.3478,-0.2087
2880,9.0436,-0.9963,3.4105,-1.7391,0.0696,-0.3478
2885,9.0436,-0.8814,3.3339,-1.113,-0.2783,-0.5565
2890,9.0819,-0.9963,3.1806,-0.6957,-0.487,-0.9043
2895,9.0819,-0.9197,2.874,-0.9043,-0.487,-1.113
2900,9.0819,-0.958,2.7974,-1.4609,-0.5565,-1.3217
2905,9.0053,-0.9963,2.6824,-2.4348,-0.5565,-1.2522
2910,9.0436,-0.958,2.6441,-3.6174,-0.2783,-1.0435
2915,9.1202,-0.8814,2.4525,-4.7304,-0.3478,-0.9043
2920,9.3118,-0.9197,2.6058,-5.7739,-0.4174,-0.5565
2925,9.3118,-0.958,2.4525,-7.1652,-0.9043,-0.2783
2930,9.5418,-0.9963,2.2226,-8.7652,-1.7391,-0.2087
2935,9.5801,-1.073,2.1459,-10.3652,-3.0609,-0.487
2940,9.6567,-1.1879,2.031,-11.4087,-4.7304,-1.1826
2945,9.81,-1.2646,2.0693,-11.4087,-6.6087,-1.7391
2950,9.695,-1.3029,2.1459,-9.8783,-8.9043,-2.5043
2955,9.6567,-1.3412,2.4525,-7.7913,-11.5478,-3.4783
2960,9.6567,-1.2646,2.5675,-5.2174,-15.0261,-4.8
2965,9.3502,-1.1496,2.9123,-1.4609,-18.5739,-5.7043
2970,9.3118,-1.5328,3.2955,3.4783,-22.3304,-6.6087
2975,8.967,-1.4562,3.832,8.8348,-24.8348,-7.7913
2980,8.3538,-1.6478,3.9087,15.0261,-25.8783,-7.8609
2985,8.6604,-1.3795,4.2919,21.1478,-25.5304,-7.8609
2990,8.737,-1.1879,4.1769,26.2957,-23.0261,-7.4435
2995,9.0053,-0.843,4.1386,29.5652,-18.8522,-6.5391
