timestamp,accX,accY,accZ,gyroX,gyroY,gyroZ
0,-0.0383,-8.4688,0.0383,0.4174,25.5304,30.1217
5,0.0,-8.5454,0.1533,-0.5565,26.6435,30.3304
10,-0.3066,-8.6221,0.1916,-1.6,26.9913,29.9826
15,-0.4598,-8.8137,0.4215,-3.3391,26.713,28.1043
20,-0.4215,-8.737,0.2299,-4.8,25.4609,25.6
25,-0.3449,-8.7754,0.3832,-6.4,25.0435,24.4174
30,-0.4598,-8.8903,0.3449,-7.8609,25.113,23.4435
35,-0.4982,-8.8903,0.4215,-9.3217,24.8348,22.1913
40,-0.4598,-8.8903,0.3832,-10.713,24.3478,20.313
45,-0.4598,-9.0053,0.3832,-12.0348,24.0696,19.0609
50,-0.3832,-9.1202,0.2299,-13.0783,24.0696,17.8783
55,-0.3449,-9.1202,0.1533,-13.7739,24.4174,16.6957
60,-0.3066,-9.0436,0.115,-14.6783,24.487,15.2348
65,-0.115,-9.0053,0.0383,-15.7217,24.7652,14.3304
70,-0.1916,-9.5034,0.3449,-16.9739,25.3913,14.0522
75,-0.0383,-9.3885,0.2682,-15.8609,24.2783,12.2435
80,0.0766,-9.4268,0.4215,-14.7478,24.4174,10.7826
85,0.2682,-9.6184,0.4598,-13.913,24.4174,9.4609
90,0.3832,-9.8866,0.6898,-13.1478,24.487,7.6522
95,0.4982,-9.8866,0.6514,-11.4087,24.7652,6.4696
100,0.6131,-10.0399,0.6131,-9.6,24.8348,5.0087
105,0.843,-10.1549,0.9197,-7.3739,24.9739,3.7565
110,0.7281,-10.1549,0.843,-5.1478,24.9043,2.3652
115,0.958,-10.1932,0.6131,-2.9217,24.8348,1.2522
120,1.0346,-10.3082,0.7664,-0.5565,24.6957,0.0696
125,0.8814,-10.2698,0.7281,1.8783,24.6261,-0.7652
130,0.9197,-10.4614,0.9197,4.2435,24.6957,-1.5304
135,0.958,-10.5764,1.1113,6.5391,25.113,-1.8783
140,0.843,-10.6147,1.2263,9.3217,25.8783,-2.2957
145,0.7281,-10.4998,1.1496,11.6174,26.5043,-2.3652
150,0.7281,-10.5381,1.5328,13.6348,27.0609,-2.4348
155,0.4598,-10.3082,1.4562,15.513,27.687,-1.8783
160,0.4982,-10.3082,1.6095,17.3913,28.4522,-1.113
165,0.3449,-10.1166,1.4179,18.4348,28.2435,-0.7652
170,0.3832,-9.81,1.4562,18.9913,28.1739,-0.3478
175,0.3066,-9.81,1.5328,19.1304,28.5913,0.487
180,0.3066,-9.8483,1.3412,18.5739,28.4522,0.6957
185,0.2682,-9.8483,1.4562,17.1826,28.4522,1.113
190,-0.0766,-9.9633,1.4945,15.3043,28.5217,1.2522
195,-0.1916,-10.2315,1.5328,13.7043,28.3826,1.5304
200,-0.4215,-10.4998,1.3795,12.4522,27.8261,1.6696
205,-0.8047,-10.5381,1.2646,10.9217,26.5739,2.1565
210,-0.5365,-10.7297,1.3795,8.3478,24.6261,2.713
215,-0.9963,-10.9596,1.3412,5.0087,23.1652,3.7565
220,-1.4945,-11.726,1.4562,1.8087,21.913,5.287
225,-1.9543,-12.5691,1.6861,-0.487,20.8,7.8609
230,-1.4945,-13.0672,1.4945,-2.9217,19.6174,10.8522
235,-1.4179,-13.7953,0.8047,-6.4696,17.5304,14.6783
240,-1.6478,-14.3318,0.3066,-10.9913,13.7043,18.087
245,-1.7244,-14.8683,0.0383,-13.0087,11.5478,22.1913
250,-1.3795,-15.1365,0.0766,-12.5913,10.1565,26.7826
255,-1.1496,-15.4814,-0.115,-10.9217,8.9043,31.5826
260,-0.9963,-15.5964,-0.2682,-7.7217,7.513,36.1739
265,-0.8047,-15.4431,-0.3832,-2.713,6.1217,40.8348
270,-0.8047,-15.0599,-0.3449,4.313,4.5217,44.9391
275,-0.4598,-14.5234,-0.2682,11.9652,2.9913,49.0435
280,0.115,-13.9486,-0.7664,18.9217,2.087,52.1043
285,0.9963,-13.5271,-1.073,24.2783,2.5043,54.3304
290,1.3795,-13.0672,-1.1113,28.313,4.3826,54.4
295,1.5711,-12.7223,-0.9963,30.4696,6.8174,53.3565
300,1.7627,-12.1859,-1.1113,31.9304,9.5304,51.1304
305,1.9543,-11.4578,-1.3029,32.8348,12.1739,48.7652
310,2.2226,-10.9213,-1.5711,32.6957,14.9565,45.4261
315,2.1843,-9.925,-2.3759,31.513,17.8783,41.8783
320,2.1459,-9.0819,-2.9507,29.5652,21.4261,38.1913
325,2.031,-8.5071,-3.2572,27.2696,25.2522,34.9217
330,1.9927,-8.0089,-3.6021,24.3478,29.0783,32.2783
335,1.8394,-7.8173,-3.5255,21.3565,33.6696,29.9826
340,1.7244,-7.4341,-3.6021,17.9478,37.1478,28.1043
345,1.5711,-7.2809,-3.4871,14.8174,40.0696,26.5739
350,1.4945,-7.3958,-3.3722,11.4087,42.3652,24.9739
355,1.4179,-7.7407,-3.2189,7.7217,44.1739,23.7217
360,1.3412,-8.2005,-2.9123,4.1043,45.5652,22.887
365,1.3029,-8.9286,-2.7974,0.6261,45.913,22.4696
370,1.1496,-9.3885,-2.4908,-2.7826,45.3565,21.913
375,1.0346,-10.0399,-2.1459,-5.6348,43.687,21.3565
380,0.6898,-10.6147,-1.5711,-7.6522,40.9739,20.5913
385,0.6514,-11.1895,-1.3795,-8.5565,37.0087,19.3391
390,0.4982,-11.4195,-1.0346,-8.2087,33.2522,17.7391
395,0.3832,-11.8793,-0.7664,-7.0261,29.4261,16.0
400,0.1916,-11.9943,-0.4215,-5.4957,25.6696,13.6348
405,0.0383,-12.1859,-0.4215,-3.4783,22.1913,11.1304
410,-0.0383,-12.2242,-0.3449,-1.3217,19.0609,8.0696
415,-0.2299,-12.0326,-0.115,0.6261,16.1391,4.8696
420,-0.4215,-11.9176,-0.1533,2.6435,13.7739,1.4609
425,-0.4215,-11.726,-0.1533,4.8696,11.4783,-2.2957
430,-0.5365,-11.4578,-0.3832,7.6522,10.2261,-6.0522
435,-0.3832,-11.1512,-0.6514,10.087,8.2783,-10.713
440,-0.4215,-11.4961,-0.6131,12.9391,7.3739,-15.0957
445,-0.4598,-10.6914,-0.9963,17.3217,6.4696,-19.687
450,-0.4598,-10.3848,-0.9197,19.4087,5.0087,-21.3565
455,-0.4598,-10.3848,-1.2263,19.1304,2.6435,-21.8435
460,-0.7664,-10.2315,-1.3795,18.4348,0.0,-22.4
465,-0.8814,-10.0016,-1.2263,17.1826,-3.1304,-22.8174
470,-0.9963,-10.0782,-1.3412,15.2348,-6.6087,-23.3739
475,-0.8814,-10.0782,-1.1113,12.6609,-10.713,-23.8609
480,-1.0346,-9.925,-1.0346,10.9217,-12.8696,-24.0696
485,-0.9963,-9.8866,-0.843,10.0174,-15.513,-24.1391
490,-1.0346,-9.8483,-0.6514,8.9739,-18.7826,-25.1826
495,-0.8814,-9.6567,-0.5365,8.4174,-21.7739,-26.2957
500,-0.7281,-9.6567,-0.4982,7.6522,-24.8348,-27.3391
505,-0.4215,-9.5034,-0.6514,7.4435,-26.9217,-27.8261
510,-0.3449,-9.3885,-0.4598,7.0957,-28.5913,-28.3826
515,-0.4598,-9.0819,-0.5365,6.8174,-30.0522,-28.5217
520,-0.2682,-9.1202,-0.2682,6.1913,-32.3478,-29.1478
525,-0.115,-9.1586,-0.2299,5.8435,-34.8522,-29.3565
530,-0.115,-9.0819,0.0,5.3565,-37.3565,-29.913
535,0.115,-9.1202,0.0,4.1739,-40.3478,-30.5391
540,0.1916,-9.0819,0.0383,3.4087,-42.2261,-30.4
545,0.4215,-9.2735,0.0766,3.1304,-43.687,-29.9826
550,0.4982,-9.3885,0.115,3.0609,-44.7304,-29.287
555,0.6514,-9.4651,0.2682,2.2261,-46.4,-28.9391
560,0.8814,-9.5034,0.3066,1.4609,-47.7913,-28.3826
565,1.073,-9.5034,0.3066,1.5304,-48.3478,-27.2696
570,1.3029,-9.5801,0.4982,1.6,-49.3913,-26.1565
575,1.5711,-9.6567,0.3449,1.4609,-50.1565,-25.1826
580,1.6478,-9.6184,0.5365,1.8783,-50.6435,-23.5826
585,1.8394,-9.5801,0.7281,2.087,-51.2696,-22.0522
590,1.7627,-9.6567,0.6514,2.087,-51.7565,-20.8696
595,1.916,-9.6184,0.4215,2.5739,-52.1739,-19.8261
600,1.7627,-9.4268,0.4215,3.2,-52.2435,-17.9478
605,1.6478,-9.4268,0.3832,3.2696,-52.0348,-16.0696
610,1.6861,-9.5034,0.2299,3.8261,-51.8261,-14.6783
615,1.5328,-9.4268,0.1533,4.6609,-51.0609,-13.287
620,1.3412,-9.2352,0.2299,5.8435,-49.8783,-12.1043
625,1.3412,-9.1586,0.2682,6.6087,-48.5565,-10.6435
630,1.1879,-9.2352,0.1916,7.5826,-46.7478,-9.2522
635,1.2646,-9.2735,0.3066,8.8348,-45.0783,-7.7217
640,1.2646,-9.4268,0.4982,10.0174,-43.2696,-6.4696
645,1.073,-9.5801,0.6131,11.1304,-41.4609,-5.5652
650,1.1879,-9.5801,0.5748,12.1739,-39.8609,-4.8
655,1.2263,-9.6567,0.8047,12.8,-38.3304,-3.8261
660,1.3029,-9.695,0.843,13.1478,-36.8,-3.2
665,1.3795,-9.7334,0.8814,13.5652,-35.2696,-2.6435
670,1.4179,-9.7334,1.073,14.0522,-33.6,-2.4348
675,1.4562,-9.7717,0.9963,14.4,-32.1391,-2.087
680,1.5328,-9.7717,1.073,14.7478,-30.4,-1.9478
685,1.5711,-9.695,1.1496,15.0261,-29.0783,-1.5304
690,1.6478,-9.8866,1.2646,15.513,-27.8957,-1.3217
695,1.5711,-9.9633,1.1879,15.9304,-26.9913,-0.9739
700,1.7244,-9.9633,1.1113,16.6261,-26.087,-0.5565
705,1.4179,-9.8483,1.3412,17.1826,-25.5304,-0.0696
710,1.3795,-9.695,1.3795,17.6696,-25.1826,0.4174
715,1.4562,-9.695,1.2646,18.087,-24.9043,1.2522
720,1.5328,-9.5418,1.3412,18.1565,-24.9043,2.1565
725,1.3795,-9.4268,1.3029,17.4609,-25.0435,3.3391
730,1.3795,-9.5418,1.3412,15.7913,-25.8087,4.9391
735,1.4562,-9.5418,1.4179,14.1217,-26.713,6.4696
740,1.2646,-9.5801,1.4945,12.2435,-27.9652,7.9304
745,1.2263,-9.6567,1.3412,10.5043,-29.287,9.5304
750,1.1496,-9.8483,1.4945,9.113,-30.4696,11.2696
755,0.958,-9.9633,1.4945,8.0696,-31.3739,13.2174
760,1.073,-10.3465,1.6095,6.7478,-32.4174,14.9565
765,1.2263,-10.8446,1.7627,5.0783,-34.0174,16.3478
770,1.2646,-11.4961,1.7627,2.087,-36.3826,17.0435
775,1.4562,-12.3775,1.3795,-2.4348,-39.513,16.7652
780,1.4945,-12.8756,1.1496,-10.2957,-44.1739,15.0957
785,0.958,-13.2205,0.1916,-17.4609,-48.1391,12.8696
790,0.3832,-13.5271,-0.6898,-24.4174,-51.6174,10.2261
795,0.3449,-13.9869,-1.1879,-28.313,-53.8435,7.5826
800,0.4598,-14.2552,-0.6898,-26.3652,-54.6087,3.8261
805,0.5365,-14.0252,-0.1916,-18.5043,-54.1913,-0.1391
810,0.3449,-13.4888,-0.0766,-8.9739,-53.287,-4.1043
815,0.2299,-13.0672,-0.1533,-0.9043,-52.313,-6.9565
820,-0.115,-12.5691,-0.6131,4.3826,-52.313,-8.8348
825,-0.2299,-11.841,-1.0346,6.6087,-53.4261,-10.1565
830,-0.3832,-11.1129,-1.2263,6.6783,-54.887,-10.5043
835,-0.3832,-10.4614,-1.4179,6.1217,-56.5565,-10.0174
840,-0.3449,-9.81,-1.5328,6.1913,-58.5043,-9.6696
845,-0.3066,-9.1969,-1.7627,6.2609,-60.5913,-9.2522
850,0.0,-8.5071,-2.1076,5.913,-62.7478,-9.3913
855,0.1533,-8.2389,-2.2226,4.8,-64.2783,-9.6
860,0.3832,-7.7407,-2.3759,2.8522,-65.3217,-10.4348
865,0.7664,-7.2809,-2.3759,0.2783,-65.8087,-11.4783
870,0.9197,-7.0509,-2.4525,-2.5043,-65.7391,-12.6609
875,1.1496,-7.0893,-2.4142,-5.1478,-65.113,-13.9826
880,1.4179,-7.3958,-2.3375,-8.9043,-64.2087,-15.1652
885,1.8011,-7.8557,-1.9927,-12.3826,-62.887,-15.6522
890,1.9543,-8.1239,-1.7627,-15.7913,-61.2174,-16.2087
895,2.3375,-8.737,-1.6095,-19.1304,-58.6435,-16.1391
900,2.6058,-9.3502,-1.2263,-22.0522,-55.3043,-15.7217
905,2.9123,-10.0016,-0.8047,-24.0696,-50.7826,-14.4696
910,2.989,-10.7297,-0.3449,-25.4609,-44.8696,-12.8
915,3.2572,-11.6111,-0.0383,-26.2261,-38.4696,-10.5043
920,3.5638,-12.1475,0.0,-26.8522,-31.5826,-7.4435
925,3.6021,-12.9139,0.1916,-27.7565,-22.9565,-3.8261
930,3.5255,-13.0289,0.2299,-27.9652,-18.2261,-1.1826
935,3.4488,-12.9523,0.0766,-27.1304,-14.1217,2.2957
940,3.2189,-12.9139,0.0,-25.2522,-10.087,6.1217
945,2.6441,-12.5691,0.0383,-22.4696,-6.6087,9.7391
950,2.2609,-12.0326,0.115,-18.4348,-4.8,12.0348
955,2.031,-11.3811,-0.3449,-14.5391,-3.6174,14.1913
960,1.8777,-10.9979,-0.4598,-11.2696,-1.9478,16.1391
965,1.5711,-10.6147,-0.7281,-8.9739,-0.1391,17.9478
970,1.4179,-10.3082,-0.7281,-7.1652,1.5304,19.4087
975,0.958,-9.8866,-0.8814,-5.7043,3.5478,20.5217
980,0.8047,-9.7717,-0.958,-5.4957,5.0783,20.7304
985,0.4982,-9.5418,-1.073,-5.5652,6.0522,21.0087
990,0.2682,-9.4268,-1.073,-5.8435,6.8174,20.7304
995,0.2299,-9.5418,-1.1879,-6.2609,7.3739,20.2435
1000,0.2299,-9.7334,-1.2263,-6.3304,7.9304,19.4087
1005,0.115,-9.6567,-0.9963,-5.9826,8.5565,18.3652
1010,0.1916,-9.6567,-0.843,-5.4957,9.6,17.2522
1015,0.3449,-9.9633,-0.7664,-4.9391,10.9217,16.1391
1020,0.4598,-9.7717,-0.6131,-4.3826,12.9391,14.5391
1025,0.4982,-9.7717,-0.4598,-3.687,15.1652,13.2174
1030,0.6131,-9.695,-0.4598,-3.4087,17.4609,11.6174
1035,0.7281,-9.6184,-0.6131,-2.8522,19.7565,10.4348
1040,0.843,-9.6184,-0.4982,-2.5739,22.6783,9.3913
1045,0.7664,-9.5801,-0.5748,-2.4348,24.8348,8.2087
1050,0.6514,-9.5418,-0.6514,-2.087,26.9913,6.8174
1055,0.3832,-9.5801,-0.5365,-1.6696,29.0783,6.0522
1060,0.4215,-9.6567,-0.4598,-1.7391,30.7478,5.0087
1065,0.3449,-9.695,-0.4215,-1.4609,31.7217,3.9652
1070,0.3449,-9.695,-0.4215,-1.0435,33.2522,2.5739
1075,0.3066,-9.6567,-0.2299,-0.9043,34.2261,1.6696
1080,0.4982,-9.6184,-0.2682,-0.9043,34.9913,0.4174
1085,0.2682,-9.6184,-0.0766,-1.1826,35.4783,-0.4174
1090,0.3449,-10.0016,0.0,-1.8087,35.4783,-1.3913
1095,0.2299,-10.4614,0.0766,-2.713,35.1304,-1.8087
1100,0.7664,-10.5764,-0.0766,-4.313,34.4348,-2.087
1105,1.4562,-10.3465,-0.8047,-7.513,32.7652,-2.2261
1110,1.3795,-10.0399,-1.2646,-11.8261,30.887,-2.2261
1115,1.073,-9.81,-1.1496,-16.0696,29.0087,-1.6
1120,0.4215,-9.1586,-0.2682,-16.8348,28.1739,-1.1826
1125,0.4215,-8.8137,0.4598,-13.287,26.2957,-1.5304
1130,0.6131,-8.7754,1.1496,-8.7652,24.9043,-2.3652
1135,0.5748,-8.852,1.3412,-5.0087,24.7652,-3.1304
1140,0.958,-8.967,1.1879,-4.1043,24.9739,-4.4522
1145,0.843,-9.3502,1.3795,-7.0261,27.2,-5.4261
1150,0.8814,-9.6184,1.5328,-10.2957,28.3826,-6.887
1155,1.3412,-9.6567,1.4179,-13.0087,29.287,-8.0
1160,1.3029,-9.7717,1.3795,-15.3043,30.8174,-8.8348
1165,1.4945,-9.695,1.2646,-17.1826,32.4174,-9.113
1170,0.9963,-9.5801,0.958,-18.7826,34.4348,-9.8087
1175,0.8814,-9.5034,0.7281,-19.8957,35.1304,-10.4348
1180,0.6514,-9.3502,0.5365,-20.8,35.7565,-10.9913
1185,0.1916,-9.2735,0.3449,-22.2609,35.9652,-11.1304
1190,0.0383,-9.1586,0.1533,-24.2783,35.5478,-11.2696
1195,-0.2299,-9.2352,0.115,-27.3391,34.7826,-10.9217
1200,-0.4215,-9.2735,0.1533,-31.0957,33.6,-10.5043
1205,-0.6898,-9.3118,0.1533,-34.7826,32.1391,-9.9478
1210,-0.7281,-9.3502,0.0383,-38.1217,30.2609,-9.3217
1215,-0.5365,-9.5034,0.0383,-41.1826,27.8957,-8.4174
1220,-0.7664,-9.6184,0.1533,-43.7565,24.6957,-7.0957
1225,-0.6131,-9.695,0.0383,-46.4,21.287,-5.4957
1230,-0.4598,-10.0016,-0.1916,-48.2783,17.4609,-4.1739
1235,-0.115,-10.2315,-0.1533,-49.9478,13.3565,-2.5739
1240,0.1916,-10.3465,-0.2682,-51.8261,9.6696,-1.0435
1245,0.5365,-10.4998,-0.3832,-53.5652,6.5391,0.6957
1250,0.6898,-10.5381,-0.4982,-55.0261,4.1739,2.5043
1255,0.7664,-10.653,-0.6898,-55.7913,2.3652,4.5913
1260,0.7664,-10.7297,-0.9197,-56.3478,1.113,6.3304
1265,0.958,-10.6914,-0.843,-56.1391,0.0696,8.3478
1270,0.8814,-10.768,-0.8047,-55.2348,-0.9739,10.5739
1275,0.8814,-10.8063,-0.8047,-54.0522,-1.8087,12.5913
1280,1.0346,-10.8446,-0.843,-52.5217,-2.8522,14.3304
1285,1.2646,-11.0363,-1.0346,-50.5043,-3.8957,16.4174
1290,1.3412,-11.1129,-0.9197,-47.2348,-4.8,17.9478
1295,1.5328,-11.1895,-0.9963,-43.2696,-5.0783,19.3391
1300,1.6861,-11.2279,-0.9197,-38.8174,-5.0087,20.1739
1305,1.8011,-11.1512,-0.958,-33.8783,-4.9391,20.8696
1310,1.7627,-10.9596,-1.1879,-28.8,-5.2174,21.0087
1315,1.8394,-10.9596,-1.4179,-23.7217,-5.913,21.0783
1320,1.8777,-10.768,-1.8777,-18.713,-6.9565,20.8696
1325,1.8011,-10.5764,-1.9543,-15.7913,-7.3739,20.8
1330,1.6478,-10.5764,-2.1459,-14.1217,-7.4435,20.4522
1335,1.4945,-10.3465,-2.2992,-13.3565,-7.0957,20.313
1340,1.4945,-10.3848,-2.3375,-13.2174,-6.1217,19.8957
1345,1.3412,-10.3465,-2.4142,-13.7739,-4.5913,19.5478
1350,1.3029,-10.3465,-2.4908,-14.5391,-2.6435,19.1304
1355,1.2263,-10.4998,-2.4908,-15.2348,-0.487,18.5043
1360,1.2646,-10.4614,-2.7591,-15.7217,1.5304,17.6
1365,1.1113,-10.4614,-2.6441,-15.7913,3.5478,16.5565
1370,1.073,-10.4998,-2.6058,-15.2348,5.2174,15.5826
1375,0.958,-10.5381,-2.7974,-14.1217,5.9826,14.887
1380,0.843,-10.4998,-2.7974,-12.6609,5.8435,14.2609
1385,0.6898,-10.4231,-2.7974,-10.9913,5.2174,14.4
1390,0.6898,-10.4614,-2.7591,-9.3913,4.1043,14.6783
1395,0.3066,-10.1549,-2.874,-8.1391,2.7826,15.6522
1400,0.1916,-10.0782,-2.989,-7.6522,0.8348,16.9739
1405,0.0383,-9.925,-2.989,-7.8609,-1.113,18.9217
1410,0.0,-9.6184,-2.874,-8.4174,-3.6174,21.2174
1415,0.0383,-9.4651,-2.874,-9.1826,-6.1913,24.1391
1420,0.0,-9.2735,-2.6058,-9.5304,-9.2522,26.5739
1425,0.0766,-9.3885,-2.5291,-9.3217,-11.8957,29.0783
1430,0.3066,-9.3118,-2.5291,-8.5565,-14.5391,31.0957
1435,0.5365,-9.4268,-2.5291,-7.7913,-17.1826,32.9739
1440,0.843,-9.3118,-2.4525,-7.2348,-19.8957,34.3652
1445,1.073,-9.2352,-2.4908,-6.6087,-22.2609,35.6174
1450,1.3412,-9.5034,-2.4908,-6.0522,-24.487,36.3826
1455,1.4562,-9.5801,-2.5291,-5.3565,-26.2957,36.7304
1460,1.6861,-9.695,-2.6058,-4.6609,-27.6174,36.5913
1465,1.8011,-9.8866,-2.7974,-4.1043,-28.5913,36.2435
1470,1.8394,-9.8866,-3.0273,-3.7565,-29.4957,35.3391
1475,1.8394,-9.925,-3.0273,-3.4783,-30.1913,34.713
1480,1.8777,-9.695,-3.0656,-3.4087,-31.0261,33.6
1485,1.916,-9.6567,-3.2189,-3.5478,-31.8609,32.6957
1490,1.6861,-9.6567,-3.2955,-3.687,-32.6957,31.8609
1495,1.7244,-9.4651,-3.4105,-4.313,-33.4609,31.4435
1500,-36.1744,-32.7639,-21.8426,-6.1913,-37.3565,34.9217
1505,4.0236,-15.1748,-4.7517,-5.7043,-129.8087,133.3565
1510,2.2609,-10.7297,-3.9087,9.8783,-133.7739,127.3739
1515,3.4488,-5.4032,0.115,4.5913,-109.4261,111.2348
1520,-2.1076,-11.7643,-3.2189,-2.2957,-96.3478,84.5913
1525,0.7664,-13.6804,-8.737,6.6087,-105.3217,98.713
1530,-1.9927,-8.5071,-2.6441,5.1478,-89.3217,104.4174
1535,-0.115,-10.4998,-2.9123,5.5652,-88.3478,104.0
1540,-7.6641,-6.2845,-3.3339,5.4957,-78.887,87.2348
1545,27.0158,-2.9123,-1.6861,-2.6435,-76.313,82.7826
1550,11.5344,-9.1586,-9.1586,-4.8696,-68.0348,63.5826
1555,-10.3848,-10.9596,9.3502,-2.1565,-58.3652,45.5652
1560,8.2772,-12.4541,-11.0363,10.4348,-72.0696,68.4522
1565,-8.6221,-1.3029,-5.7097,-11.4087,-49.3913,32.4174
1570,21.6893,-0.115,-4.4068,-38.8174,-38.887,16.6957
1575,30.5413,0.6514,11.8027,-69.2174,-6.5391,-20.8
1580,-3.1806,-16.8609,7.5874,-71.513,18.713,6.9565
1585,0.4982,-8.3921,3.2189,2.713,-16.6957,69.1478
1590,19.1602,0.0,-0.5748,33.113,-20.313,26.1565
1595,-6.5911,-6.4378,6.821,25.5304,-32.6957,20.9391
1600,23.2221,-9.0053,-0.1916,27.2696,-36.8696,43.6174
1605,-23.4904,-16.5927,3.6404,21.287,-29.7043,20.7304
1610,-14.6767,-6.9743,-14.9832,30.4696,-38.887,45.8435
1615,3.9853,7.1276,-15.8263,7.7913,-21.3565,8.9739
1620,21.1145,-12.4924,7.5108,-22.9565,-12.4522,13.4957
1625,11.4961,-1.916,-8.4688,4.7304,-53.1478,31.5826
1630,29.545,-5.5181,-1.6478,-32.1391,-40.4174,21.913
1635,33.1088,9.6567,24.4484,-63.9304,-27.8261,-15.513
1640,-28.8169,-13.4121,3.7554,-95.1652,45.6348,-84.0348
1645,13.7187,-11.8793,4.8667,-72.5565,40.6261,-28.9391
1650,-6.9743,-9.8483,-2.031,-18.9217,88.4174,-69.4957
1655,-3.7554,-14.715,-4.9816,-7.7913,61.2174,-35.2696
1660,1.2263,-13.757,-8.0473,-8.8348,6.3304,-1.2522
1665,-0.6131,-12.7223,-4.4452,-12.3826,-3.8261,7.9304
1670,-0.2682,-11.841,-3.2572,-14.4,-12.4522,11.5478
1675,-0.3449,-11.5727,-2.9507,-13.2174,-15.7217,13.7739
1680,-0.6131,-11.0746,-2.6824,-10.9913,-18.3652,14.4
1685,-0.843,-10.3465,-2.7974,-7.7217,-21.2174,14.7478
1690,-1.1113,-9.6184,-3.0656,-4.8,-23.2348,14.6783
1695,-1.2263,-9.1586,-2.6824,-2.6435,-23.5826,15.2348
1700,-1.1496,-8.8903,-2.4908,-1.0435,-22.3304,15.6522
1705,-1.2263,-8.5838,-2.3375,0.2783,-20.6609,16.5565
1710,-1.1879,-8.6604,-2.1843,0.6261,-19.5478,16.8348
1715,-1.073,-8.5454,-2.5291,-0.6957,-18.6435,16.6957
1720,-1.1879,-8.6987,-2.4908,-3.4783,-18.087,16.3478
1725,-1.2646,-8.8137,-2.7207,-5.913,-18.9217,15.5826
1730,-1.2263,-9.0819,-3.1423,-8.0696,-20.4522,14.5391
1735,-1.3029,-9.1586,-3.0273,-9.7391,-22.3304,13.3565
1740,-1.2263,-9.3502,-2.9123,-10.8522,-24.3478,11.8957
1745,-1.1879,-9.3502,-2.874,-10.9913,-26.1565,11.1304
1750,-1.3029,-9.3885,-2.989,-10.5043,-28.3826,10.3652
1755,-1.4562,-9.3885,-3.1039,-9.5304,-30.6783,9.5304
1760,-1.3412,-9.1202,-3.1423,-8.4174,-32.487,8.8348
1765,-1.3029,-8.852,-3.4488,-7.5826,-34.5043,7.5826
1770,-1.2646,-8.5838,-3.3722,-7.0261,-35.3391,6.2609
1775,-1.1113,-8.2772,-3.7171,-6.4,-35.5478,5.7043
1780,-1.2263,-7.8173,-3.7554,-4.8,-34.5739,6.3304
1785,-1.2646,-7.5108,-3.7937,-5.7739,-35.1304,5.4261
1790,-1.2263,-7.0893,-3.947,-8.2783,-35.5478,4.7304
1795,-1.1113,-6.6677,-4.2152,-11.3391,-35.7565,4.2435
1800,-0.958,-6.6294,-4.1769,-14.5391,-35.2,4.1739
1805,-1.2263,-6.2462,-3.9087,-17.1826,-33.7391,4.8
1810,-1.2646,-5.863,-3.6404,-20.4522,-34.4348,4.3826
1815,-0.958,-5.863,-3.832,-24.0696,-35.3391,4.2435
1820,-0.9963,-5.7097,-3.9853,-27.3391,-34.2261,4.7304
1825,-1.073,-5.6714,-3.6404,-30.1913,-33.3217,4.8
1830,-1.1113,-5.5948,-3.4871,-33.2522,-34.6435,4.4522
1835,-0.8814,-5.5564,-3.4105,-37.0087,-36.5217,3.8957
1840,-0.6898,-5.5181,-3.6404,-40.5565,-36.4522,2.9217
1845,-0.7281,-5.5181,-3.6787,-43.3391,-35.0609,2.0174
1850,-0.5748,-5.4798,-3.6021,-45.1478,-34.0174,0.6261
1855,-0.7281,-5.2499,-3.2572,-45.4957,-33.0435,-0.3478
1860,-0.3449,-5.4032,-3.6404,-45.4261,-33.4609,-1.2522
1865,0.8047,-5.0583,-4.1769,-45.6348,-30.9565,-3.3391
1870,-0.2299,-4.79,-3.4105,-46.6783,-25.0435,-6.0522
1875,-0.6898,-4.7134,-2.3759,-46.0522,-24.2783,-6.8174
1880,-0.3449,-4.5218,-2.5291,-44.5913,-29.5652,-7.513
1885,-0.5748,-4.3685,-2.4908,-43.4783,-33.7391,-9.2522
1890,-0.5365,-4.2152,-2.4142,-43.4783,-37.1478,-11.2
1895,-0.7281,-4.2152,-2.4525,-44.8696,-40.0,-13.2174
1900,-0.8047,-4.4835,-2.4525,-46.8174,-42.3652,-15.9304
1905,-1.073,-4.5601,-2.3375,-47.513,-43.2,-18.3652
1910,-1.2263,-5.02,-2.3375,-47.2348,-43.9652,-20.7304
1915,-1.6478,-5.1349,-1.4945,-46.2609,-44.6609,-23.513
1920,-1.5711,-5.5948,-1.7627,-43.8957,-48.487,-23.8609
1925,-1.916,-5.6714,-1.2646,-42.2957,-51.687,-24.2087
1930,-1.8777,-5.7097,-1.1113,-40.9043,-56.0,-23.6522
1935,-1.6095,-5.863,-0.9197,-39.2348,-59.9652,-21.913
1940,-1.4562,-5.8247,-0.5365,-37.4957,-63.3043,-20.5913
1945,-1.4945,-5.7097,-0.5748,-34.7826,-66.2261,-18.9217
1950,-1.2646,-5.5948,-0.4215,-31.0957,-68.8,-17.0435
1955,-0.8814,-5.1732,-0.5748,-27.687,-72.1391,-15.5826
1960,-0.8814,-4.7517,-0.5748,-24.6261,-74.8522,-15.7913
1965,-0.5748,-4.5218,-1.1496,-23.0261,-76.5217,-15.3739
1970,-0.3449,-4.5601,-1.1113,-23.4435,-75.8957,-13.5652
1975,-0.0766,-4.5984,-0.9197,-26.6435,-73.113,-12.313
1980,0.2299,-4.905,-1.4179,-31.513,-69.287,-11.4087
1985,0.5748,-5.4032,-1.4179,-35.7565,-65.1826,-8.9043
1990,0.6898,-5.5564,-1.4179,-37.7043,-60.5913,-5.6348
1995,1.4562,-6.3995,-1.1113,-35.6174,-55.5826,-1.7391
2000,1.5711,-7.2809,-0.6131,-32.4174,-52.2435,0.4174
2005,1.6095,-7.6641,0.2682,-30.4696,-50.9217,1.8087
2010,0.958,-7.3958,0.5748,-29.8435,-50.5739,1.8087
2015,0.9197,-7.779,0.6514,-27.4783,-49.6,3.6174
2020,0.958,-8.0856,0.5365,-25.8783,-49.3217,4.7304
2025,0.7281,-8.2389,0.2299,-24.7652,-48.1391,5.6348
2030,0.8047,-8.737,0.115,-24.1391,-46.1913,7.7913
2035,0.2299,-9.0819,0.115,-24.0696,-43.3391,10.8522
2040,-0.3832,-8.1239,1.9927,-20.7304,-40.7652,14.887
2045,-0.6514,-10.4614,-0.1916,-4.5913,-38.1913,19.6174
2050,-1.6095,-11.2279,0.4982,-3.1304,-39.3043,26.5739
2055,-2.031,-11.5344,0.9197,-3.687,-39.5826,32.7652
2060,-1.6095,-12.0326,0.8047,3.6174,-38.4,38.6087
2065,-1.4945,-12.4924,0.0,15.3043,-35.0609,43.4783
2070,-1.1879,-12.6457,-0.3066,23.1652,-30.6087,48.0696
2075,-0.9963,-11.2279,-0.115,29.0087,-26.2261,52.4522
2080,-0.6131,-12.4541,-0.843,41.9478,-19.3391,58.0174
2085,0.0,-13.4504,-1.4945,45.7043,-16.0,65.3217
2090,-0.8814,-11.9943,-0.6131,45.9826,-14.6087,69.0087
2095,-0.8814,-11.1129,-0.115,55.7913,-11.2,73.3913
2100,-1.1113,-10.2698,0.2299,65.0435,-7.513,74.5739
2105,-1.4945,-9.925,0.1533,74.3652,-1.8783,79.513
2110,-2.031,-9.81,-0.115,85.1478,2.0174,88.1391
2115,-2.4142,-9.695,-0.5748,96.487,6.1913,94.4
2120,-2.2226,-9.925,-0.7281,102.6783,11.4087,103.7913
2125,-1.8394,-10.2698,-0.6898,106.9217,16.0,111.5826
2130,-1.6095,-10.3465,-0.7664,110.9565,21.7043,117.0783
2135,-1.3412,-9.8483,-0.3832,115.4783,27.1304,123.2
2140,-1.3412,-9.3502,-0.115,119.3739,31.6522,128.6261
2145,-1.4179,-9.0819,0.115,121.4609,34.8522,135.8609
2150,-1.6095,-8.5454,0.1916,122.2957,38.0522,141.3565
2155,-1.7244,-8.8903,0.1533,122.4348,40.487,147.3391
2160,-2.1843,-8.5454,-0.3066,121.6696,42.2957,155.2696
2165,-2.4525,-9.1969,-0.4982,119.6522,42.2261,160.9043
2170,-3.947,-8.852,-0.4598,119.0261,42.713,167.7217
2175,-5.7097,-8.3155,-0.3066,119.3043,42.2957,176.0
2180,-5.6714,-8.852,0.7281,116.8,38.6783,184.1391
2185,-6.0546,-8.5838,0.9963,111.9304,30.2609,189.7043
2190,-6.4761,-9.0819,0.958,106.5043,18.9913,192.9739
2195,-6.5145,-9.4651,1.0346,103.7217,7.2348,194.5739
2200,-6.5145,-10.9979,0.4215,102.2609,-6.1913,194.1565
2205,-9.5801,-12.2242,0.1533,97.5304,-19.687,192.487
2210,-11.5727,-14.0252,0.0766,90.9913,-35.687,192.2783
2215,-12.2625,-15.673,-0.2299,85.6348,-50.5739,192.9043
2220,-12.8756,-16.7843,-0.0766,85.913,-66.2261,192.2087
2225,-13.9486,-17.6273,-0.1533,88.4174,-83.0609,190.4696
2230,-13.872,-18.1638,-0.7664,90.2957,-101.6348,188.3826
2235,-13.4888,-18.8153,-1.5711,91.9652,-120.487,185.4609
2240,-14.4851,-20.8079,-3.0273,90.4348,-135.6522,182.9565
2245,-14.4468,-20.6546,-2.4908,79.2348,-144.0,182.8174
2250,-15.9029,-22.1875,-2.9507,68.1739,-154.2957,183.0957
2255,-16.8609,-24.9082,-2.2992,56.8348,-162.8522,184.2783
2260,-18.3554,-27.9355,-0.3832,47.9304,-168.487,186.2261
2265,-20.578,-31.1161,1.0346,46.6783,-169.113,191.3043
2270,-22.1491,-38.397,2.8357,55.9304,-167.4435,194.7826
2275,-24.2568,-36.1744,2.9507,72.1391,-170.4348,190.2609
2280,-25.4064,-36.8258,2.4908,102.1217,-172.4522,187.4783
2285,-24.1801,-35.4463,1.8011,120.9043,-168.6261,190.4
2290,-19.505,-29.8898,0.9963,128.5565,-160.9043,186.5739
2295,-13.5654,-24.6783,-0.1533,132.7304,-151.9304,180.4522
2300,-7.8173,-18.777,-1.3029,135.8609,-141.4261,173.9826
2305,-3.4871,-15.1365,-1.3795,144.6261,-124.5217,171.3391
2310,0.1533,-10.0016,-0.7664,155.4783,-101.7043,169.3217
2315,4.2536,-6.6677,0.3449,167.513,-84.3826,170.6435
2320,6.2845,-4.062,1.6095,174.8174,-62.7478,173.4957
2325,5.6331,-2.1076,3.2189,173.4957,-38.887,177.2522
2330,3.2955,-1.0346,4.8667,161.0435,-19.3391,177.1826
2335,1.1879,-1.1113,6.2462,141.5652,-5.2174,174.887
2340,-1.4562,-1.8394,6.5528,123.6174,4.6609,172.8696
2345,-2.7207,-2.5291,6.2462,112.9043,8.1391,173.287
2350,-4.6368,-3.8704,5.3648,110.6087,4.5217,175.5826
2355,-6.1313,-5.0583,4.7134,115.4783,-3.2,178.2261
2360,-6.8593,-5.748,3.832,128.1391,-15.8609,180.5217
2365,-7.3575,-6.1696,3.1423,140.2435,-25.4609,181.0783
2370,-6.8977,-6.0546,3.0273,150.6783,-31.9304,181.0783
2375,-5.8247,-5.7097,2.4908,157.5652,-36.1043,180.2435
2380,-5.02,-5.4415,2.6441,160.6261,-39.5826,178.2261
2385,-3.1423,-4.4068,2.8357,160.1391,-37.4261,176.5565
2390,-2.989,-2.4142,3.4105,158.1217,-29.6348,171.2
2395,-3.6787,-0.7664,3.7554,155.4783,-22.9565,168.487
2400,-5.0966,0.5365,3.9087,155.4087,-18.1565,169.2522
2405,-6.0546,0.843,3.2189,157.4957,-16.3478,173.5652
2410,-6.7827,0.7281,2.7591,157.9826,-16.5565,178.087
2415,-6.7061,0.2682,2.7974,157.8435,-14.6783,181.913
2420,-6.9743,-0.1533,2.7591,156.8696,-12.1043,184.2087
2425,-7.2042,-0.7664,3.2955,156.2435,-10.3652,186.5739
2430,-7.3192,-1.5711,4.062,156.4522,-11.7565,188.6609
2435,-6.7827,-2.2226,4.0236,155.9652,-15.513,190.9565
2440,-5.978,-3.0656,3.832,154.713,-19.4087,192.6261
2445,-5.3648,-3.4105,3.9853,154.5739,-22.6087,193.7391
2450,-6.2462,-2.9507,4.8284,155.6174,-24.1391,193.2522
2455,-7.2425,-2.5291,5.748,157.3565,-23.3739,192.0696
2460,-5.4415,-2.0693,5.3648,160.487,-25.8087,190.887
2465,-4.5218,-1.2263,3.9087,158.9565,-28.5217,187.6174
2470,-4.905,0.2299,3.0656,152.487,-28.313,183.0957
2475,-7.6641,1.1113,4.4835,144.7652,-25.4609,180.2435
2480,-8.4305,0.958,6.2079,142.9565,-22.3304,180.1043
2485,-8.2005,1.916,6.5528,148.4522,-22.7478,183.513
2490,-8.9286,2.4525,5.9013,150.8174,-27.2696,186.5043
2495,-10.1549,3.1423,5.3265,147.4087,-29.8435,187.8957
2500,-10.5381,3.6404,5.1349,141.4261,-31.1652,188.4522
2505,-10.0399,3.6404,5.3648,135.3739,-34.9913,188.8
2510,-10.1166,3.7937,6.0163,132.313,-37.9826,187.5478
2515,-10.4231,3.9853,6.2079,130.2957,-40.6261,186.9913
2520,-10.4614,4.1769,6.4378,125.7043,-43.9652,186.0174
2525,-10.9979,4.6751,6.6677,120.0696,-45.8435,184.0
2530,-11.3811,5.3265,6.8977,113.6696,-47.4435,181.0783
2535,-11.0746,6.2079,5.6331,106.9913,-50.3652,177.5304
2540,-11.3811,6.936,4.7517,100.2435,-51.8957,171.4783
2545,-11.3045,8.5454,4.9433,95.6522,-50.713,164.313
2550,-12.2242,9.0053,6.0929,89.6696,-46.6087,155.687
2555,-12.3008,9.6184,5.6331,86.4,-46.2609,143.0261
2560,-11.3045,9.8866,4.4835,76.1739,-52.1739,132.5913
2565,-10.768,9.7717,3.3339,62.2609,-58.8522,118.5391
2570,-10.6147,10.0399,2.8357,48.9739,-60.313,101.0087
2575,-10.7297,8.8137,3.6787,37.913,-56.8348,81.9478
2580,-10.9213,9.0053,2.7591,36.3826,-50.713,60.0348
2585,-12.684,7.894,3.0273,33.8783,-44.0348,44.4522
2590,-13.4121,5.7097,3.5638,30.6087,-43.1304,31.1652
2595,-13.1822,3.5638,4.9433,27.5478,-42.6435,15.2348
2600,-12.4158,2.4525,6.0163,26.3652,-40.7652,-3.4783
2605,-11.1129,2.4525,6.3229,26.5739,-37.1478,-18.7826
2610,-9.81,2.4908,6.1696,24.6261,-32.7652,-19.8261
2615,-10.768,2.4142,6.8977,18.2957,-30.4696,-22.3304
2620,-9.7717,2.2609,5.7864,10.5739,-38.5391,-26.5739
2625,-7.6641,2.4908,4.79,1.8783,-43.5478,-30.8174
2630,-8.3538,3.0273,5.5948,-5.4261,-43.9652,-32.2783
2635,-7.3575,4.1386,5.0583,-8.9739,-53.7043,-32.2783
2640,-6.2079,4.8284,4.5218,-11.1304,-64.487,-31.3739
2645,-5.2116,5.4798,3.7937,-13.7739,-70.4696,-28.1739
2650,-4.4835,5.7097,3.2955,-16.4174,-73.6696,-24.9043
2655,-4.0236,5.7097,2.6441,-18.087,-75.687,-21.3565
2660,-3.6021,5.5564,2.4525,-18.4348,-75.6174,-19.7565
2665,-3.2189,5.1732,2.5675,-17.4609,-74.713,-18.7826
2670,-2.9507,4.79,2.5291,-15.6522,-73.1826,-18.4348
2675,-2.989,4.6368,2.7974,-14.6087,-71.513,-18.2261
2680,-3.0273,4.2919,3.2955,-14.3304,-70.6783,-18.5043
2685,-3.1039,3.9853,3.5638,-13.7739,-71.3739,-18.2261
2690,-3.4488,3.7937,3.6787,-12.9391,-72.0696,-18.2957
2695,-3.5255,3.5638,3.832,-11.9652,-72.8348,-18.5043
2700,-3.7554,3.4105,4.2536,-10.6435,-73.8087,-18.8522
2705,-3.7937,3.4105,4.4835,-8.2087,-74.7826,-19.4087
2710,-4.1386,3.5638,4.7134,-6.3304,-75.8261,-19.4087
2715,-4.2536,3.6404,4.8667,-5.0087,-76.2435,-18.4348
2720,-4.5984,3.6787,4.8667,-4.8696,-76.5913,-18.3652
2725,-4.5984,3.6404,4.7517,-5.287,-76.5217,-18.0174
2730,-4.8284,3.6787,4.5218,-5.4261,-76.1739,-18.5739
2735,-5.0966,3.6787,4.5984,-4.7304,-74.9913,-19.3391
2740,-4.8284,3.832,4.7517,-3.2,-74.087,-20.2435
2745,-5.02,3.8704,4.79,-1.4609,-73.3217,-21.0087
2750,-5.3265,4.2152,5.1349,0.0696,-72.2087,-22.0522
2755,-5.2882,4.2536,5.2499,0.6261,-72.2087,-22.887
2760,-5.3265,4.4068,5.6714,0.487,-72.7652,-23.5826
2765,-5.9396,4.8667,6.0163,0.6261,-72.487,-25.1826
2770,-5.748,5.2116,6.2079,0.487,-73.0435,-26.9913
2775,-6.0546,5.4415,6.2462,0.2087,-72.8348,-27.4087
2780,-6.3995,6.1313,6.5911,-1.2522,-72.0,-31.7217
2785,-6.2462,6.2845,6.6677,-4.313,-72.1391,-34.1565
2790,-6.3229,6.2462,6.6677,-8.1391,-72.0,-34.9217
2795,-6.7444,6.3995,7.0893,-12.8696,-70.4,-37.8435
2800,-6.3995,6.0929,7.0893,-16.3478,-69.0783,-40.3478
2805,-6.3229,6.0546,7.3575,-20.8696,-67.8957,-42.5043
2810,-6.2079,5.9396,7.1659,-24.9043,-66.9913,-43.5478
2815,-6.2845,5.6331,7.4341,-28.3826,-65.3913,-44.8
2820,-5.9013,5.4415,7.3958,-31.4435,-64.2087,-47.3043
2825,-6.1313,4.905,7.3192,-32.8348,-62.4696,-46.8174
2830,-6.2845,4.8284,7.5108,-33.7391,-59.8261,-48.5565
2835,-5.9013,4.6368,7.3958,-34.3652,-57.2522,-50.2261
2840,-5.5564,4.3302,7.3575,-35.6174,-55.0261,-50.6435
2845,-5.1732,4.3685,7.3192,-37.2174,-52.5217,-51.687
2850,-4.9816,4.062,7.5108,-39.0261,-49.2522,-52.313
2855,-4.4068,3.7937,7.5491,-40.0696,-44.4522,-52.4522
2860,-4.1003,3.5255,7.7024,-40.2783,-39.9304,-52.4522
2865,-3.7937,3.4871,7.894,-40.0,-34.9913,-52.313
2870,-3.832,3.4871,7.7024,-39.5826,-30.1913,-50.9913
2875,-3.4871,3.6404,7.894,-40.6261,-25.7391,-50.7826
2880,-3.2955,3.9087,7.894,-43.8261,-22.3304,-51.3391
2885,-3.0273,3.832,8.1622,-48.2087,-18.5739,-50.5043
2890,-3.2955,3.6021,8.2772,-52.8696,-14.4696,-49.4609
2895,-3.0273,2.9507,8.0856,-56.6957,-11.1304,-47.1652
2900,-2.9507,2.874,7.8557,-60.0348,-8.8348,-44.3826
2905,-2.8357,2.3759,7.7024,-62.3304,-6.6087,-41.6
2910,-2.7591,2.1076,7.8557,-60.8696,-4.7304,-39.0261
2915,-2.5291,1.8777,7.7024,-56.5565,-1.8783,-37.0087
2920,-2.5291,1.9543,7.3958,-50.9217,1.2522,-35.6174
2925,-2.6058,1.8777,7.2425,-45.0087,3.7565,-34.8522
2930,-2.4908,1.4562,7.0893,-40.0,5.9826,-34.2261
2935,-2.6441,2.0693,6.821,-37.2174,7.7217,-33.3217
2940,-2.6824,1.8777,6.7061,-29.8435,9.1826,-33.5304
2945,-2.5675,1.7627,6.7061,-25.4609,9.7391,-33.5304
2950,-3.3339,1.5711,7.1276,-21.7739,10.4348,-34.2261
2955,-3.4105,1.2263,7.3958,-17.3217,11.8957,-34.3652
2960,-3.6404,0.843,8.0089,-18.2261,12.313,-35.4783
2965,-3.7554,1.6478,8.0473,-14.6783,13.913,-38.7478
2970,-4.5218,1.6095,8.1239,-5.8435,17.3913,-41.0435
2975,-5.0583,1.5711,8.3155,-1.8087,20.7304,-40.0
2980,-5.5181,0.6898,8.2005,-3.9652,22.2609,-38.9565
2985,-6.2845,2.6441,9.8866,-5.7739,23.7217,-39.9304
2990,-6.2079,1.8394,8.5454,4.2435,26.5043,-41.4609
2995,-5.7097,1.4179,8.8137,3.687,27.1304,-40.3478
