timestamp,accX,accY,accZ,gyroX,gyroY,gyroZ
0,0.843,-1.1113,-9.7717,3.687,3.2696,-5.287
5,0.7664,-0.958,-9.6567,4.1739,3.1304,-5.0087
10,0.8047,-0.9963,-9.7334,4.4522,2.713,-4.8
15,0.7281,-0.8814,-9.7717,4.5217,2.5043,-4.7304
20,0.7281,-0.9197,-9.6567,4.4522,2.5043,-5.4261
25,0.8814,-0.9197,-9.7717,4.1739,2.5739,-5.5652
30,0.8047,-0.9197,-9.695,3.687,2.5043,-6.3304
35,0.7281,-0.9963,-9.7717,3.1304,2.5043,-6.5391
40,0.7281,-0.8814,-9.695,2.3652,2.5043,-7.0261
45,0.7281,-0.843,-9.695,1.9478,2.5739,-7.2348
50,0.7664,-1.073,-9.5801,1.6,2.7826,-7.7913
55,0.8047,-0.958,-9.6567,1.3913,3.0609,-7.6522
60,0.7664,-0.958,-9.7717,1.2522,3.1304,-7.8609
65,0.6898,-0.8047,-9.81,0.9043,3.3391,-7.8609
70,0.843,-0.8047,-9.8483,0.4174,3.2696,-8.0696
75,0.7664,-0.7281,-9.925,-0.3478,2.9913,-7.9304
80,0.8047,-0.7281,-9.695,-1.1826,2.8522,-8.0
85,0.7664,-0.6898,-9.8483,-2.1565,2.4348,-7.9304
90,0.7281,-0.7281,-9.81,-2.7826,2.3652,-8.4174
95,0.7664,-0.6514,-9.8866,-3.5478,2.2957,-8.4174
100,0.843,-0.6131,-9.8483,-4.1739,2.2261,-8.6957
105,0.8047,-0.7664,-9.8483,-4.6609,2.1565,-8.7652
110,0.6514,-0.5748,-9.8866,-5.0783,2.3652,-9.1826
115,0.6898,-0.5748,-10.1932,-5.4261,2.3652,-9.1826
120,0.6514,-0.5748,-10.1166,-5.8435,2.5043,-9.6
125,0.7281,-0.6898,-9.9633,-6.1217,2.3652,-9.3217
130,0.843,-0.6898,-10.0399,-6.3304,2.2261,-9.6
135,0.6514,-0.6131,-10.0782,-6.4,2.1565,-9.4609
140,0.7664,-0.6514,-10.0399,-6.3304,2.087,-9.6696
145,0.6898,-0.6514,-10.0016,-6.3304,1.9478,-9.7391
150,0.7281,-0.8047,-10.1932,-6.3304,2.0174,-10.1565
155,0.8047,-0.8047,-10.1166,-6.1913,2.0174,-10.2261
160,0.8047,-0.8047,-10.0399,-6.2609,2.1565,-10.5043
165,0.7281,-0.843,-10.0016,-6.4696,2.2957,-10.6435
170,0.7281,-0.843,-10.0782,-6.6783,2.4348,-10.6435
175,0.6898,-0.9197,-10.0399,-6.7478,2.6435,-10.3652
180,0.6131,-0.8814,-10.0016,-6.6087,2.8522,-10.3652
185,0.6898,-0.9963,-10.0016,-6.4696,2.9217,-10.087
190,0.6131,-0.9963,-9.8866,-6.0522,3.0609,-10.1565
195,0.7664,-0.8814,-10.0016,-5.8435,3.3391,-9.8783
200,0.6131,-0.843,-10.1549,-5.7043,3.5478,-9.8783
205,0.6898,-0.843,-9.8483,-5.4957,3.8957,-9.6696
210,0.4982,-0.7664,-9.9633,-5.3565,4.1043,-9.6696
215,0.6514,-0.8047,-10.0016,-5.0783,4.1739,-9.2522
220,0.7664,-0.7281,-9.8483,-5.0087,4.1739,-9.1826
225,0.6898,-0.7664,-9.8866,-4.5913,3.8957,-8.6261
230,0.7281,-0.8047,-9.7717,-4.2435,3.7565,-8.6261
235,0.6898,-0.6514,-9.81,-4.1739,3.6174,-8.2783
240,0.6898,-0.6514,-9.8866,-4.3826,3.4783,-8.2783
245,0.6131,-0.8047,-9.9633,-4.4522,3.3391,-8.1391
250,0.6131,-0.7664,-10.0399,-4.7304,3.4087,-8.4174
255,0.4598,-0.6131,-9.925,-4.8696,3.4783,-8.3478
260,0.5748,-0.8047,-9.9633,-5.1478,3.4783,-8.5565
265,0.5365,-0.9197,-9.9633,-5.4957,3.5478,-8.1391
270,0.5748,-0.8814,-10.0016,-5.4957,3.3391,-8.2783
275,0.5365,-0.9963,-9.7334,-5.8435,3.0609,-8.2087
280,0.6514,-0.7664,-9.8866,-5.9826,2.7826,-8.5565
285,0.6898,-0.9963,-9.7717,-6.1913,2.5043,-8.7652
290,0.6898,-0.9197,-10.0016,-6.4,2.2261,-9.3913
295,0.5365,-0.843,-9.8483,-6.8174,1.9478,-9.6696
300,0.7664,-0.843,-9.7717,-7.1652,1.8087,-10.1565
305,0.6514,-0.5748,-9.8483,-7.3043,1.7391,-10.5043
310,0.7281,-0.6514,-9.81,-7.4435,1.6,-10.9217
315,0.7281,-0.5365,-9.81,-7.5826,1.6,-10.9913
320,0.7664,-0.6131,-9.925,-7.5826,1.5304,-11.1304
325,0.7281,-0.4982,-9.9633,-7.9304,1.3913,-10.9913
330,0.7281,-0.5365,-9.925,-8.0696,1.2522,-11.2
335,0.843,-0.7281,-9.9633,-8.3478,1.1826,-11.1304
340,0.7664,-0.7281,-9.7717,-8.487,0.9739,-11.4783
345,0.843,-0.8814,-9.925,-8.5565,0.9043,-11.4783
350,0.8047,-0.8814,-9.8483,-8.5565,0.9739,-11.8957
355,0.7281,-0.8814,-9.8866,-8.4174,1.113,-12.1043
360,0.6898,-0.9197,-10.0016,-8.2087,1.1826,-12.5217
365,0.7281,-1.0346,-9.81,-7.9304,1.3913,-12.6609
370,0.7664,-0.9963,-9.925,-7.513,1.5304,-12.9391
375,0.6514,-0.958,-9.8866,-7.2348,1.6,-12.8696
380,0.9197,-1.1113,-9.9633,-6.887,1.6,-13.0783
385,0.7664,-1.0346,-9.81,-6.6087,1.5304,-12.9391
390,0.8047,-0.8814,-9.7717,-6.4696,1.4609,-13.2174
395,0.7281,-0.7281,-9.7334,-6.4,1.3217,-13.287
400,0.7281,-0.7664,-9.7334,-6.5391,1.2522,-13.6348
405,0.6898,-0.6514,-9.7334,-6.7478,1.2522,-13.913
410,0.7281,-0.6131,-9.6184,-6.9565,1.2522,-14.2609
415,0.7664,-0.6514,-9.7334,-7.4435,1.3217,-14.4696
420,0.6514,-0.6898,-9.695,-7.7913,1.3913,-14.8174
425,0.6131,-0.6131,-9.6567,-8.1391,1.3217,-14.9565
430,0.6131,-0.6131,-9.5801,-8.3478,1.113,-15.3739
435,0.6131,-0.6514,-9.695,-8.6957,0.6261,-15.4435
440,0.5365,-0.6898,-9.6184,-9.113,0.2783,-15.7913
445,0.5365,-0.6898,-9.695,-9.6,-0.1391,-16.0
450,0.6131,-0.7281,-9.6567,-10.0174,-0.6261,-16.6957
455,0.6131,-0.8047,-9.695,-10.5043,-1.0435,-17.0435
460,0.6514,-0.843,-9.7334,-10.7826,-1.3217,-17.7391
465,0.7281,-0.843,-9.6567,-11.1304,-1.6696,-18.2261
470,0.7281,-0.958,-9.81,-11.4087,-1.9478,-18.7826
475,0.6898,-0.958,-9.7717,-11.4087,-2.0174,-18.9913
480,0.6898,-1.073,-9.925,-11.3391,-1.8783,-19.4087
485,0.7281,-1.1879,-9.8866,-10.713,-1.8783,-19.3391
490,0.7281,-1.2646,-9.925,-9.8087,-1.6696,-19.4087
495,0.7281,-1.2646,-9.8866,-8.8348,-1.5304,-19.3391
500,0.6898,-1.1879,-9.8483,-7.5826,-1.3217,-19.4783
505,0.6514,-0.9197,-9.9633,-6.5391,-1.0435,-19.4087
510,0.7281,-1.1879,-9.8866,-5.7739,-0.8348,-19.687
515,0.7664,-1.1496,-9.925,-5.3565,-0.8348,-19.8957
520,0.8814,-1.1113,-9.7717,-5.1478,-1.0435,-20.1739
525,0.8047,-0.9963,-9.8483,-5.0783,-1.6696,-20.1739
530,0.958,-0.9963,-9.9633,-5.0783,-2.087,-20.3826
535,0.8814,-0.9963,-9.695,-5.0783,-2.5043,-20.3826
540,0.9197,-0.958,-9.7334,-5.2174,-2.9913,-20.6609
545,0.9197,-0.9963,-9.7717,-5.3565,-3.5478,-20.5913
550,0.9963,-1.0346,-9.8866,-5.2174,-3.8261,-20.6609
555,0.8814,-1.0346,-10.0399,-4.9391,-4.2435,-20.7304
560,0.8047,-1.1113,-9.9633,-4.4522,-4.5913,-20.9391
565,0.7281,-0.9963,-10.0782,-3.9652,-5.0783,-21.1478
570,0.8814,-1.073,-9.9633,-3.4783,-5.3565,-21.5652
575,0.843,-1.1496,-9.9633,-2.9913,-5.913,-21.7043
580,0.7281,-1.1496,-9.7717,-2.6435,-5.9826,-22.0522
585,0.8047,-1.3029,-9.9633,-2.5739,-6.1913,-22.1913
590,0.6131,-1.2646,-9.9633,-2.9217,-6.6087,-22.4696
595,0.5748,-0.9963,-10.0782,-3.2,-6.9565,-22.8174
600,0.6514,-1.1496,-9.925,-3.5478,-7.1652,-23.0957
605,0.5748,-0.9963,-9.9633,-4.1739,-7.3043,-23.1652
610,0.6898,-0.8047,-9.8483,-4.8696,-7.5826,-23.513
615,0.7281,-0.8047,-10.1549,-5.4957,-7.9304,-23.6522
620,0.8047,-0.9197,-9.925,-6.1217,-8.1391,-24.0696
625,0.7281,-0.8047,-9.8483,-6.8174,-8.4174,-24.2087
630,0.8047,-0.8814,-9.7334,-7.4435,-8.4174,-24.6957
635,0.8814,-0.958,-9.7717,-8.1391,-8.6957,-25.113
640,0.843,-1.0346,-9.6567,-8.7652,-8.6261,-25.6696
645,0.8047,-1.3029,-9.6567,-9.5304,-8.8348,-26.2261
650,0.6131,-1.3412,-9.81,-10.4348,-8.9739,-26.9913
655,0.7664,-1.3795,-9.81,-11.2696,-9.2522,-27.687
660,0.6514,-1.3412,-9.925,-11.7565,-9.6696,-28.4522
665,0.6898,-1.3412,-9.8483,-11.9652,-9.9478,-28.8696
670,0.6514,-1.3795,-10.0399,-12.1739,-10.4348,-29.1478
675,0.7281,-1.3029,-9.81,-12.313,-11.3391,-29.0783
680,0.8047,-1.2646,-9.8483,-12.2435,-12.3826,-28.9391
685,0.7664,-1.2646,-9.81,-12.3826,-13.287,-28.6609
690,0.7664,-1.4179,-9.8483,-12.4522,-14.1217,-28.1739
695,0.843,-1.4945,-9.8866,-12.313,-14.7478,-27.6174
700,0.843,-1.4179,-9.6567,-12.1739,-15.3739,-27.5478
705,0.8047,-1.4562,-9.695,-11.8261,-15.7913,-27.4783
710,0.8047,-1.3029,-9.5034,-11.2,-16.0,-27.9652
715,0.843,-1.2646,-9.4651,-10.6435,-15.5826,-28.6609
720,0.6514,-1.2646,-9.3502,-10.2957,-14.7478,-29.6348
725,0.6514,-0.9963,-9.3502,-10.2261,-13.913,-30.6087
730,0.4598,-0.8047,-9.3502,-10.6435,-13.1478,-31.6522
735,0.3066,-0.7664,-9.3502,-12.0348,-12.5217,-32.0696
740,0.3449,-0.9197,-9.4268,-13.9826,-11.8261,-32.4174
745,0.3449,-0.958,-9.3118,-16.0,-11.4783,-32.5565
750,0.3449,-1.1879,-9.3118,-17.6696,-11.2,-32.5565
755,0.1916,-1.1496,-9.3118,-19.2696,-11.3391,-32.487
760,0.115,-1.3412,-9.4651,-20.4522,-11.5478,-32.487
765,0.1916,-1.5711,-9.4651,-21.2174,-12.0348,-32.7652
770,0.1916,-1.5328,-9.3118,-21.7043,-12.3826,-33.5304
775,0.1533,-1.7244,-9.5034,-21.7739,-12.1739,-34.3652
780,0.0766,-1.5328,-9.5034,-21.5652,-11.8957,-35.4087
785,0.0383,-1.5328,-9.5034,-21.4957,-11.6174,-36.313
790,-0.2299,-1.4179,-9.4268,-21.8435,-11.687,-37.2174
795,-0.115,-1.3029,-9.3502,-22.4,-12.4522,-37.9826
800,-0.1916,-1.1113,-9.2735,-23.3043,-13.6348,-38.6783
805,-0.3449,-1.0346,-9.1586,-24.3478,-15.3043,-39.1652
810,-0.2682,-0.9963,-9.1202,-25.1826,-17.113,-39.513
815,-0.115,-0.958,-9.0436,-26.1565,-18.713,-40.0696
820,-0.0383,-1.1496,-9.1202,-27.1304,-20.1739,-40.6957
825,-0.0383,-1.1496,-9.3118,-28.3826,-21.2174,-41.113
830,0.115,-1.073,-9.4268,-29.287,-22.3304,-41.9478
835,0.115,-1.3029,-9.5034,-29.913,-23.513,-42.7826
840,0.0766,-1.3795,-9.5034,-30.2609,-24.5565,-43.4783
845,0.1533,-1.4562,-9.5034,-30.3304,-25.3913,-44.1739
850,0.1916,-1.3795,-9.6567,-29.8435,-26.1565,-45.1478
855,0.3449,-1.2646,-9.7717,-29.1478,-26.8522,-46.4
860,0.1916,-1.2646,-9.6567,-28.8696,-27.5478,-47.7217
865,0.1916,-1.3412,-9.6567,-29.0087,-28.6609,-48.9043
870,0.0766,-1.3412,-9.3885,-28.9391,-30.1217,-49.8087
875,-0.0766,-1.4562,-9.3118,-28.313,-31.4435,-50.2957
880,-0.1533,-1.4179,-9.1586,-27.4087,-32.8348,-50.5739
885,-0.1533,-1.4945,-9.0053,-26.5043,-34.2261,-50.713
890,-0.2299,-1.4945,-9.0053,-25.7391,-35.3391,-50.6435
895,-0.0383,-1.3795,-8.8903,-25.3913,-36.2435,-50.6435
900,0.0,-1.2646,-8.6987,-25.1826,-36.6609,-50.5043
905,0.1916,-1.2263,-8.8137,-24.9739,-36.4522,-50.5043
910,0.115,-1.2646,-8.7754,-24.5565,-35.8957,-50.3652
915,0.1533,-1.1496,-8.6987,-24.6261,-35.1304,-50.2261
920,0.3066,-1.1879,-8.6987,-25.113,-34.4348,-50.087
925,0.1533,-1.073,-8.5838,-26.0174,-33.8783,-49.9478
930,0.115,-1.073,-8.6987,-27.1304,-33.113,-49.9478
935,0.115,-1.073,-8.5454,-28.2435,-32.5565,-50.0174
940,0.115,-1.1496,-8.6221,-29.4957,-32.2783,-49.9478
945,0.0,-0.9197,-8.8137,-30.6783,-32.487,-50.0174
950,0.0383,-1.2263,-8.852,-31.7913,-33.0435,-49.6696
955,-0.0766,-1.1879,-8.6604,-32.7652,-34.1565,-49.2522
960,-0.0766,-1.3412,-8.9286,-33.3217,-35.0609,-48.6957
965,-0.2682,-1.4562,-9.0053,-33.4609,-35.8957,-47.7217
970,-0.4215,-1.8011,-8.8903,-33.0435,-36.313,-46.887
975,-0.4598,-1.9543,-8.852,-31.8609,-36.4522,-46.2609
980,-0.4598,-2.2226,-8.8137,-30.2609,-36.7304,-45.6348
985,-0.5748,-2.3759,-8.852,-28.4522,-37.1478,-45.0087
990,-0.6514,-2.3759,-8.8903,-26.9913,-37.7043,-44.313
995,-0.7281,-2.5675,-8.6987,-25.6696,-38.4696,-43.5478
1000,-0.6898,-2.6441,-8.5454,-24.4174,-39.0261,-42.7826
1005,-0.958,-2.6441,-8.5071,-22.8174,-39.6522,-41.8783
1010,-0.7281,-2.6058,-8.5838,-20.5217,-39.6522,-40.8348
1015,-0.5748,-2.5291,-8.4688,-18.087,-39.513,-40.2783
1020,-0.4598,-2.4142,-8.5838,-15.0261,-39.6522,-40.1391
1025,-0.3449,-2.1459,-8.4688,-12.6609,-39.8609,-40.2783
1030,-0.115,-1.916,-8.4305,-10.9913,-40.0696,-40.2087
1035,-0.1916,-1.6861,-8.3155,-10.7826,-40.1391,-40.0
1040,-0.1533,-1.3412,-8.2772,-11.6174,-40.2087,-40.2087
1045,-0.115,-1.1879,-8.0856,-13.0783,-40.2783,-40.5565
1050,0.0766,-1.2263,-8.1622,-14.8174,-40.4174,-40.6957
1055,-0.115,-1.1113,-8.1622,-17.3913,-40.8348,-41.113
1060,-0.1533,-0.9197,-8.0089,-20.4522,-41.5304,-41.1826
1065,-0.0383,-1.073,-8.0856,-23.5826,-42.5739,-42.0174
1070,0.0383,-1.2263,-8.0089,-27.8261,-43.6174,-42.713
1075,0.0383,-1.3795,-7.7024,-31.3043,-44.6609,-42.6435
1080,-0.1916,-1.6095,-7.7407,-34.0174,-46.3304,-42.3652
1085,-0.3832,-1.9543,-8.0473,-35.8957,-48.2783,-41.4609
1090,-0.5365,-2.2992,-8.1239,-36.0348,-50.8522,-41.2522
1095,-0.6131,-2.6441,-8.0473,-34.713,-53.4261,-40.7652
1100,-0.5748,-2.6441,-7.8557,-31.6522,-56.487,-40.9739
1105,-0.6514,-2.4908,-7.5874,-28.3826,-59.4087,-40.9739
1110,-0.5748,-2.3759,-7.5874,-25.3913,-62.0522,-40.1391
1115,-0.3449,-1.9543,-7.5108,-22.8174,-63.7217,-37.9826
1120,-0.1916,-1.5328,-7.4725,-21.913,-64.3478,-35.8957
1125,-0.3449,-1.6861,-7.2425,-23.5826,-63.1652,-32.9739
1130,-0.1533,-1.8777,-6.5145,-25.4609,-62.1913,-31.3043
1135,0.1916,-1.8777,-6.2079,-25.9478,-62.1913,-30.0522
1140,0.3832,-1.7627,-5.4798,-26.0174,-61.7739,-27.3391
1145,0.4982,-1.5328,-5.4032,-26.5043,-62.3304,-25.4609
1150,0.4982,-1.3412,-5.5181,-29.5652,-63.3739,-24.8348
1155,0.2682,-1.4179,-5.3265,-35.4783,-64.2087,-24.2087
1160,0.3449,-1.2263,-5.6714,-42.713,-64.2087,-23.8609
1165,0.7281,-1.1879,-5.2116,-50.2957,-61.6348,-21.5652
1170,0.9197,-1.3029,-5.02,-57.4609,-56.9043,-18.4348
1175,0.8814,-1.5711,-4.8284,-61.4957,-54.3304,-16.4174
1180,0.7281,-2.4142,-4.6368,-64.5565,-52.5913,-14.887
1185,0.8047,-2.874,-4.5601,-66.5043,-51.0609,-13.8435
1190,0.6131,-3.7937,-4.79,-66.4348,-49.6696,-12.1739
1195,0.6514,-4.5218,-4.6368,-63.3739,-48.9739,-10.5043
1200,0.6514,-4.5984,-4.5601,-56.9043,-49.6696,-9.6
1205,0.7281,-4.4835,-4.2152,-48.0696,-50.9217,-7.3739
1210,0.4982,-4.1386,-3.9853,-40.0696,-53.0087,-4.5913
1215,-0.1916,-3.3339,-3.6021,-35.3391,-55.3043,-1.5304
1220,0.115,-3.6787,-3.1039,-34.087,-57.113,1.0435
1225,-0.2682,-3.4488,-2.5675,-35.4783,-57.113,2.087
1230,-0.4215,-3.4105,-1.6861,-36.3826,-55.7217,3.5478
1235,-0.5365,-3.2189,-0.958,-36.5217,-55.3739,3.9652
1240,-0.2299,-2.9123,-0.6514,-37.7739,-56.3478,3.0609
1245,-0.4215,-2.5291,-0.0766,-40.0,-58.2957,2.0174
1250,-0.3832,-2.6824,0.1916,-40.6261,-60.5913,3.8957
1255,-0.0383,-2.7974,0.6898,-40.4174,-62.1217,5.913
1260,0.4982,-2.874,0.958,-38.1217,-63.7913,8.6261
1265,0.6131,-2.9123,1.0346,-34.1565,-65.7391,10.7826
1270,0.4982,-2.989,0.843,-28.6609,-67.6174,13.6348
1275,0.9963,-3.4871,0.7281,-24.1391,-67.1304,16.6957
1280,1.4562,-3.6021,0.7664,-18.713,-65.8087,17.7391
1285,1.6478,-3.6021,0.3449,-12.1739,-64.487,19.6174
1290,1.6861,-3.6021,0.4215,-5.287,-62.3304,23.0957
1295,2.1459,-3.4871,0.6514,1.113,-58.5739,25.113
1300,2.1459,-3.2955,0.6514,7.1652,-53.5652,25.1826
1305,1.8011,-2.6441,1.2263,12.9391,-48.1391,25.6696
1310,1.9543,-2.4908,1.3029,20.1739,-42.9217,29.3565
1315,1.8777,-2.3759,1.3795,25.8087,-39.0261,30.9565
1320,2.031,-1.9543,0.9197,30.4,-37.2174,29.913
1325,1.8777,-1.916,0.4215,34.0174,-37.4957,29.8435
1330,1.8011,-1.7244,0.4982,34.5043,-37.8435,29.1478
1335,0.9197,-1.3795,0.8047,34.5739,-38.7478,26.5739
1340,1.2646,-1.5328,0.4215,37.7043,-38.5391,26.5739
1345,0.0383,-1.2263,0.3832,39.8609,-36.2435,21.0087
1350,-0.115,-0.3832,-0.6131,41.8087,-34.2957,18.3652
1355,-1.1496,-0.0383,-1.6095,41.7391,-31.6522,17.6
1360,-1.8394,0.5365,-2.2609,40.8348,-29.6348,16.3478
1365,-2.3375,1.6478,-2.9507,39.2348,-27.687,16.4174
1370,-2.7207,1.8011,-3.1039,37.2174,-25.3913,18.5739
1375,-2.8357,2.2609,-3.6021,33.6696,-25.6696,18.9913
1380,-3.7171,3.2572,-3.8704,28.0348,-27.8261,18.1565
1385,-4.6751,4.5218,-4.5984,21.4261,-32.2783,14.1217
1390,-5.1349,5.4032,-5.2499,11.687,-40.2783,8.6261
1395,-6.1696,6.821,-5.6714,0.9739,-50.087,3.5478
1400,-6.821,7.894,-6.5145,-6.887,-58.5739,1.8783
1405,-7.1659,8.4688,-6.8977,-13.7043,-64.6957,-0.3478
1410,-7.2042,8.8137,-7.0893,-18.7826,-69.4957,-4.0348
1415,-7.779,8.6221,-7.894,-21.7739,-74.0174,-9.4609
1420,-6.6294,9.4268,-7.0126,-23.7217,-80.1391,-12.7304
1425,-6.2462,7.1276,-8.6987,-23.513,-93.7739,-17.5304
1430,-9.81,6.7444,-10.4998,-21.287,-107.2,-26.9217
1435,-12.0326,4.4452,-12.1859,-18.6435,-128.3478,-33.7391
1440,-15.7496,6.6294,-14.2935,0.3478,-133.5652,-32.7652
1445,-20.3481,6.3612,-11.6494,20.1043,-128.9043,-22.0522
1450,-37.2473,33.7602,-31.1927,49.1826,-117.7043,0.1391
1455,-26.5177,34.22,-19.2751,86.6087,-43.3391,110.6783
1460,-17.2825,20.3098,-7.7407,114.5739,-38.1913,188.0348
1465,-27.6673,25.3297,-17.3208,166.8174,-107.9652,182.7478
1470,-37.7455,39.3933,-20.8079,188.7304,-136.4174,231.8609
1475,-49.9314,54.1083,-28.357,151.3739,-122.713,348.7304
1480,-47.0957,40.4279,-30.8862,101.2174,-106.2957,442.2261
1485,-18.9302,24.0652,-35.7529,58.1565,-109.3565,369.7391
1490,-16.8226,10.8446,-45.3329,-21.0783,-88.2783,194.087
1495,-33.3004,16.631,-53.7251,-111.5826,-74.9913,113.9478
1500,-56.944,31.8442,-53.7634,-210.7826,-91.8261,138.3652
1505,-52.039,33.1088,-53.5718,-245.287,-76.1739,159.0261
1510,-26.2111,12.3391,-52.1923,-195.8957,-7.7913,195.4087
1515,-13.5654,3.4105,-42.7655,-182.6087,13.3565,183.2348
1520,-7.3575,-5.7097,-29.8515,-174.887,-26.713,141.4261
1525,-6.7061,-9.1202,-23.1455,-168.3478,-51.4087,103.8609
1530,-4.4452,-21.6893,-14.6,-167.5826,-48.6261,77.0087
1535,-6.0546,-23.9885,-13.3355,-156.8696,-19.6174,34.087
1540,-5.6331,-19.0069,-13.2205,-123.3391,-2.0174,11.6174
1545,0.5748,-18.2788,-12.3391,-67.5478,-2.5739,6.6783
1550,1.6478,-13.8336,-12.2242,17.2522,7.1652,-13.287
1555,1.4945,-3.1423,-11.1895,87.3043,22.887,-32.2087
1560,6.4761,-4.1003,-9.6184,121.3913,41.1826,-35.687
1565,8.737,-1.1879,-8.7754,146.1565,91.3391,-49.8783
1570,6.3612,7.5874,-7.6257,155.8261,139.6174,-64.6957
1575,5.2116,10.6914,-7.779,142.9565,177.5304,-71.5826
1580,2.2226,16.0179,-9.0053,137.1826,215.6522,-72.0696
1585,0.4598,19.62,-8.2772,120.2087,236.0348,-65.8087
1590,-3.6787,24.7549,-10.653,84.313,233.6696,-61.8435
1595,-2.4525,23.9885,-8.967,37.287,232.4174,-60.2435
1600,-2.9507,24.0268,-9.0053,4.1739,240.8348,-63.1652
1605,-6.0929,23.2604,-9.0819,-14.887,247.4435,-57.5304
1610,-9.8866,19.9649,-8.6221,-25.6696,247.5826,-37.8435
1615,-9.6567,14.3701,-7.8557,-39.3043,233.6696,-9.9478
1620,-10.5764,11.4578,-6.0546,-53.913,219.4087,4.1043
1625,-10.8446,8.5838,-5.748,-57.9478,208.2087,10.0174
1630,-12.9139,6.0929,-5.7097,-58.7826,200.2087,10.9913
1635,-15.9413,5.2116,-5.4032,-58.8522,195.6174,14.4696
1640,-15.9029,2.8357,-5.1349,-56.5565,191.0261,27.9652
1645,-13.7187,1.1496,-4.5218,-51.4783,176.6261,32.7652
1650,-13.2971,0.4215,-4.5984,-49.2522,151.7217,21.1478
1655,-11.4961,-0.0383,-4.2919,-49.113,128.2087,12.1739
1660,-10.2315,-0.3832,-3.6404,-44.8,109.5652,6.5391
1665,-8.3921,-2.3375,-2.6824,-37.4957,86.887,0.1391
1670,-7.2425,-2.031,-1.9543,-19.2,68.313,-6.4696
1675,-5.8247,-0.7664,-2.6824,-13.913,47.2348,-5.4957
1680,-7.2809,6.3229,-6.1696,-10.9217,38.7478,0.6261
1685,-4.4835,5.0583,-4.2152,-10.1565,40.0,15.513
1690,-4.4835,5.4415,-3.6021,-1.8783,32.2087,24.2087
1695,-3.1423,3.2189,-2.5291,16.5565,29.0783,31.0957
1700,-3.1806,1.5328,-0.5365,31.7217,17.6696,26.9217
1705,-2.9507,2.0693,-1.4945,40.9043,-2.5043,19.8261
1710,-2.7207,3.7171,-2.4525,40.0696,-16.3478,15.3043
1715,-2.4908,6.2079,-5.863,34.7826,-20.3826,13.287
1720,-3.0656,7.2809,-4.5984,36.3826,-12.6609,10.1565
1725,-2.9507,7.4341,-4.5601,39.0261,-15.3043,7.3043
1730,-2.8357,7.1659,-4.6368,38.0522,-20.6609,4.5217
1735,-3.5255,7.1659,-5.1349,31.6522,-21.8435,-0.9043
1740,-3.7554,7.2042,-5.5181,25.0435,-17.6696,-4.8
1745,-4.9816,9.8483,-7.4341,20.8696,-10.9217,-6.1913
1750,-0.7281,4.2152,0.3066,23.2348,4.1043,-3.6174
1755,-4.2919,7.1659,-5.5181,34.087,-24.3478,-16.5565
1760,-3.4488,4.6751,-1.6095,47.7913,-35.0609,-14.7478
1765,-3.7171,5.2882,-4.062,46.1913,-49.8783,-21.6348
1770,-5.0966,7.9323,-4.9433,47.513,-47.4435,-20.1043
1775,-3.7554,7.9706,-5.5181,53.0087,-40.2783,-15.3043
1780,-2.7591,8.6221,-5.748,55.3739,-35.6174,-12.8
1785,-2.031,7.7407,-3.7171,56.9739,-34.4348,-14.0522
1790,-4.905,14.4084,-10.8063,60.7304,-36.1739,-16.3478
1795,2.7591,11.1895,-9.2735,71.6522,-5.3565,-11.687
1800,3.2572,6.9743,-5.6714,64.2087,3.7565,-20.4522
1805,0.6131,4.79,-3.7554,61.3565,-0.1391,-23.5826
1810,-0.4598,4.0236,-4.6751,57.8783,-9.113,-24.4174
1815,-1.8777,1.8777,-5.978,53.9826,-9.0435,-24.8348
1820,-2.0693,2.5291,-7.4725,45.9826,-8.1391,-27.1304
1825,-2.4142,3.0656,-8.1622,41.5304,-1.8087,-23.2348
1830,-2.4525,2.9507,-9.3118,42.5739,5.4957,-19.8957
1835,-3.2955,3.3722,-9.7717,40.0696,6.1913,-18.9913
1840,-4.1769,2.7591,-9.8866,36.8696,6.1217,-18.3652
1845,-4.4452,3.2189,-10.2315,37.287,7.9304,-19.0609
1850,-4.4835,3.7937,-10.883,36.5217,9.4609,-18.713
1855,-4.5218,3.947,-11.0746,34.3652,12.1043,-19.2
1860,-4.8667,3.5638,-11.7643,33.2522,15.513,-20.6609
1865,-4.9433,3.4105,-12.1859,36.8696,19.3391,-23.3043
1870,-5.2116,3.7554,-12.9139,41.5304,24.1391,-25.4609
1875,-5.3648,3.3722,-13.4121,42.087,25.6696,-26.9913
1880,-5.0583,2.6058,-13.2588,41.3217,28.3826,-27.4087
1885,-5.1732,2.2609,-13.8336,42.6435,29.2174,-28.7304
1890,-4.4835,2.2226,-13.757,43.0609,29.8435,-29.4261
1895,-4.5218,1.9927,-13.4121,40.2783,28.2435,-29.287
1900,-4.8667,1.6861,-13.3355,36.5217,27.6174,-28.313
1905,-5.0583,2.4142,-13.2971,34.713,26.8522,-26.9217
1910,-4.6368,2.3375,-13.2205,32.487,24.487,-25.4609
1915,-4.6368,2.031,-12.7607,29.9826,19.3391,-25.4609
1920,-4.4835,2.0693,-12.9139,27.4087,16.6261,-25.8087
1925,-4.4452,2.031,-12.2242,26.1565,14.0522,-26.3652
1930,-4.1003,1.8777,-12.4541,25.3217,12.1043,-26.713
1935,-3.7554,2.3759,-11.6494,24.8348,11.9652,-31.3043
1940,-4.0236,1.6861,-11.3045,19.9652,7.6522,-32.5565
1945,-4.3685,1.3412,-10.8446,16.7652,6.5391,-33.6
1950,-4.4835,3.1423,-10.6147,19.2,7.6522,-34.3652
1955,-3.2572,1.8011,-10.3848,18.087,5.3565,-34.8522
1960,-4.4452,2.0693,-10.2698,16.0696,4.2435,-34.8522
1965,-3.832,1.7244,-10.2698,16.6261,5.7043,-35.2696
1970,-3.2189,1.6861,-9.3885,14.1217,4.6609,-32.9043
1975,-3.9853,2.1076,-9.5418,13.4261,6.1217,-33.8087
1980,-3.4871,1.9543,-9.4268,10.4348,6.1913,-31.7217
1985,-3.4488,1.1879,-9.0053,6.6087,7.3739,-29.7043
1990,-3.5638,1.7244,-9.1969,5.8435,7.7217,-29.0087
1995,-3.6021,0.958,-9.1586,3.6174,7.4435,-26.0174
2000,-3.6021,0.6898,-9.2352,2.087,8.0696,-22.2609
2005,-3.4871,0.8047,-8.852,0.0696,8.1391,-20.1739
2010,-3.6787,0.0766,-8.852,-0.2783,8.9739,-17.5304
2015,-3.2955,-0.1533,-8.852,0.9739,9.3913,-12.8696
2020,-3.0656,-1.073,-9.0053,1.3913,10.1565,-9.5304
2025,-3.6021,0.115,-8.5454,1.4609,9.2522,-7.0957
2030,-2.9507,-1.0346,-8.9286,5.1478,9.5304,-3.8957
2035,-2.9507,0.115,-9.3885,5.5652,11.0609,-1.2522
2040,-3.1423,1.0346,-9.2352,2.5043,12.3826,0.9739
2045,-2.989,1.1879,-9.0819,0.5565,12.8696,1.4609
2050,-3.0656,1.3029,-9.1969,-0.2783,12.5913,1.5304
2055,-3.1806,1.2646,-9.3118,-0.5565,12.3826,1.113
2060,-3.1423,1.2646,-9.4268,-0.6957,12.5913,0.8348
2065,-3.1806,1.3412,-9.5034,-1.2522,12.5913,0.2783
2070,-3.2572,1.073,-9.5418,-1.9478,12.2435,0.2783
2075,-3.1423,1.1113,-9.5418,-2.8522,11.8957,0.0
2080,-3.0656,1.1879,-9.6184,-3.8261,11.5478,0.0696
2085,-3.2189,1.2646,-9.5801,-4.8696,10.9217,-0.1391
2090,-3.1039,1.2646,-9.7334,-5.4261,10.087,-0.0696
2095,-3.0656,1.3029,-9.5418,-5.8435,9.2522,-0.2783
2100,-3.1806,1.3795,-9.6184,-6.1913,8.5565,-0.0696
2105,-3.0656,1.3412,-9.5034,-6.7478,8.0696,-0.4174
2110,-3.0656,1.4945,-9.4651,-7.3043,7.7217,-0.2783
2115,-2.989,1.5711,-9.6184,-8.0,7.3043,-0.487
2120,-2.9507,1.4945,-9.5418,-8.487,6.8174,-0.3478
2125,-3.0273,1.6095,-9.5418,-8.9043,6.4,-0.487
2130,-3.0656,1.6478,-9.4651,-9.1826,5.8435,-0.3478
2135,-2.9507,1.5328,-9.5418,-9.6696,5.3565,-0.4174
2140,-2.989,1.6095,-9.4268,-10.0174,4.8696,-0.0696
2145,-3.0273,1.5711,-9.6184,-10.4348,4.3826,0.0
2150,-2.9507,1.6095,-9.5801,-10.8522,3.9652,0.2087
2155,-3.0273,1.8011,-9.695,-11.4783,3.4087,0.4174
2160,-2.9507,1.6861,-9.5801,-12.0348,3.0609,0.9739
2165,-3.0656,1.7244,-9.5801,-12.4522,2.2261,0.9043
2170,-3.1039,1.8011,-9.5801,-12.5913,1.9478,1.3217
2175,-3.1039,1.7244,-9.5034,-12.5217,1.6696,1.3913
2180,-3.2189,1.8011,-9.4651,-12.4522,1.6,1.9478
2185,-3.2955,1.6861,-9.5801,-12.0348,1.4609,2.087
2190,-2.9507,1.6478,-9.6184,-11.1304,0.8348,2.2957
2195,-3.1423,1.9543,-9.5801,-10.713,0.9043,2.6435
2200,-3.4105,1.9543,-9.6567,-11.6174,1.113,3.3391
2205,-3.2189,1.9543,-9.6567,-11.9652,1.3217,3.8261
2210,-3.2572,1.9927,-9.6184,-11.4087,1.1826,4.1739
2215,-3.2955,2.1076,-9.8483,-10.8522,1.0435,4.0348
2220,-3.1806,1.9927,-9.6184,-10.3652,1.0435,4.0348
2225,-3.2955,1.8777,-9.8483,-9.5304,1.113,3.7565
2230,-3.4105,1.9543,-9.6567,-8.6261,1.4609,3.6174
2235,-3.5638,2.1076,-9.8483,-7.6522,1.3913,2.8522
2240,-3.3339,2.2226,-9.7717,-7.2348,1.5304,3.1304
2245,-3.1423,2.2226,-9.7334,-6.9565,1.4609,3.1304
2250,-3.0656,2.1459,-9.6567,-6.2609,1.6696,3.3391
2255,-3.4105,2.1076,-9.5801,-5.7739,1.7391,3.2
2260,-3.4105,2.1843,-9.5034,-4.8696,1.7391,3.0609
2265,-3.4871,2.0693,-9.4651,-3.8261,1.8087,2.3652
2270,-3.2572,2.1076,-9.3885,-2.7826,2.0174,2.1565
2275,-3.3339,2.1459,-9.3502,-1.8087,2.2957,1.6
2280,-3.3722,2.031,-9.3502,-1.0435,2.7826,1.4609
2285,-3.1806,1.8777,-9.1969,-0.4174,3.2696,1.113
2290,-3.2189,1.9543,-9.2352,0.0,3.687,0.9739
2295,-3.2189,1.9543,-9.1202,0.487,3.9652,0.6957
2300,-3.1806,1.8011,-9.2735,0.8348,4.1739,0.6261
2305,-3.0656,1.7627,-9.1586,1.3217,4.313,0.487
2310,-3.2572,1.8394,-9.1586,1.8087,4.8696,0.2087
2315,-3.2189,1.8394,-9.2352,2.5739,5.287,-0.1391
2320,-3.1039,1.7627,-9.1969,3.2,5.7739,-0.0696
2325,-3.1423,1.8011,-9.0053,3.9652,6.4,-0.2783
2330,-3.1039,1.7244,-9.2352,4.7304,6.9565,-0.2783
2335,-3.2189,1.7244,-9.3502,5.0783,7.3739,-0.6957
2340,-3.1423,1.8011,-9.3502,5.5652,7.7913,-0.7652
2345,-3.2189,1.7627,-9.4268,5.913,8.0696,-1.113
2350,-3.1039,1.916,-9.3502,6.1913,8.0,-1.1826
2355,-3.1423,1.7244,-9.4268,6.2609,8.0696,-1.4609
2360,-3.0656,1.6861,-9.4268,6.1913,7.8609,-1.7391
2365,-3.1423,1.7627,-9.4651,6.1913,7.5826,-1.9478
2370,-3.0656,1.6095,-9.5034,6.2609,7.3043,-1.8783
2375,-3.1039,1.6478,-9.5801,6.1913,7.0957,-2.0174
2380,-3.2572,1.7627,-9.6184,5.8435,6.8174,-1.8783
2385,-3.2189,1.7627,-9.6184,5.5652,6.4,-1.9478
2390,-3.1423,1.6095,-9.6567,5.0087,6.2609,-1.8087
2395,-3.2189,1.6478,-9.5418,4.6609,6.0522,-1.8087
2400,-3.2189,1.6478,-9.5801,4.0348,5.9826,-1.6696
2405,-3.1806,1.6095,-9.5418,3.6174,5.7043,-1.7391
2410,-3.1423,1.1113,-8.852,3.1304,5.4957,-1.4609
2415,-3.1806,1.6478,-9.7334,2.3652,5.287,-1.4609
2420,-3.2189,1.6095,-9.695,1.8783,5.0087,-1.1826
2425,-3.2572,1.6861,-9.6184,1.4609,4.5913,-1.1826
2430,-3.1039,1.5328,-9.5418,1.113,4.4522,-0.9043
2435,-3.1806,1.5328,-9.6567,0.7652,4.313,-0.9043
2440,-3.1806,1.6095,-9.6184,0.2783,4.2435,-0.6261
2445,-3.2572,1.6095,-9.6567,-0.0696,4.2435,-0.7652
2450,-3.1806,1.5711,-9.6184,-0.487,4.3826,-0.4174
2455,-3.2189,1.6095,-9.695,-0.7652,4.2435,-0.487
2460,-3.1039,1.6478,-9.6184,-1.113,4.1739,-0.2783
2465,-3.2189,1.6095,-9.5801,-1.4609,3.9652,-0.3478
2470,-3.2572,1.6095,-9.5801,-1.8087,3.8957,-0.1391
2475,-3.2572,1.6095,-9.695,-2.2957,3.687,-0.1391
2480,-3.1806,1.5328,-9.6184,-2.5043,3.4783,0.0696
2485,-3.1806,1.6861,-9.81,-2.8522,3.3391,0.0696
2490,-3.3339,1.7244,-9.5034,-2.9913,3.2696,0.2087
2495,-3.2955,1.8394,-9.4268,-3.0609,3.1304,-0.0696
2500,-3.2572,1.6861,-9.4651,-3.2,2.8522,0.1391
2505,-3.2955,1.7627,-9.5418,-3.1304,2.9217,0.0
2510,-3.1806,1.6861,-9.5418,-3.2,2.7826,0.1391
2515,-3.3339,1.7244,-9.5034,-3.2,2.6435,0.0
2520,-3.2189,1.6861,-9.5801,-3.2,2.5043,0.0696
2525,-3.2572,1.6861,-9.4651,-3.0609,2.3652,-0.0696
2530,-3.2189,1.7627,-9.4268,-2.9913,2.3652,0.1391
2535,-3.1423,1.6478,-9.3502,-3.0609,2.2261,0.0696
2540,-3.2189,1.8394,-9.5034,-3.2,2.2261,0.1391
2545,-3.2189,1.7627,-9.3502,-3.2696,2.087,0.1391
2550,-3.1423,1.7627,-9.3118,-3.2,2.1565,0.1391
2555,-3.2572,1.916,-9.3885,-2.9913,2.1565,0.0
2560,-3.1806,1.6861,-9.1969,-2.5739,2.3652,0.0
2565,-3.2572,1.7627,-9.4268,-2.087,2.5739,-0.2087
2570,-3.2955,1.7627,-9.3502,-1.8087,2.9913,-0.1391
2575,-3.1806,1.7627,-9.3885,-1.5304,3.2696,-0.2087
2580,-3.1039,1.7244,-9.3885,-1.1826,3.6174,-0.1391
2585,-3.1806,1.7627,-9.5034,-0.9739,3.687,-0.3478
2590,-3.2572,1.7244,-9.3885,-0.7652,3.9652,-0.3478
2595,-3.2572,1.8011,-9.3885,-0.487,4.0348,-0.487
2600,-3.2189,1.8394,-9.5034,-0.4174,4.1739,-0.487
2605,-3.1423,1.7244,-9.4651,-0.487,4.2435,-0.5565
2610,-3.2955,1.8394,-9.4651,-0.4174,4.2435,-0.4174
2615,-3.2189,1.7627,-9.5034,-0.2783,4.313,-0.487
2620,-3.1423,1.8011,-9.4651,-0.2087,4.4522,-0.4174
2625,-3.2189,1.8777,-9.3885,-0.2783,4.6609,-0.3478
2630,-3.2572,1.7627,-9.4651,-0.0696,4.6609,-0.4174
2635,-3.2572,1.8777,-9.5034,0.0,4.8696,-0.487
2640,-3.2189,1.7627,-9.5034,0.0,5.0783,-0.4174
2645,-3.1806,1.7244,-9.5034,0.0696,5.1478,-0.5565
2650,-3.2572,1.8394,-9.695,0.1391,5.4957,-0.3478
2655,-3.1806,1.7627,-9.5034,0.0,5.4957,-0.3478
2660,-3.2189,1.7627,-9.5034,-0.0696,5.4261,-0.2783
2665,-3.1806,1.7244,-9.4651,-0.1391,5.3565,-0.2783
2670,-3.2189,1.7244,-9.5034,-0.1391,5.287,-0.2783
2675,-3.1806,1.6095,-9.5034,-0.1391,5.4261,-0.2087
2680,-3.2572,1.8394,-9.5418,-0.1391,5.6348,0.0
2685,-3.2572,1.6478,-9.4651,-0.2087,5.5652,-0.2087
2690,-3.3722,1.7244,-9.4651,-0.2087,5.4957,-0.2087
2695,-3.1423,1.7627,-9.4268,-0.2087,5.5652,-0.1391
2700,-3.3722,1.6478,-9.4268,0.0,5.4261,-0.2783
2705,-3.2189,1.7627,-9.6567,0.1391,5.4957,-0.3478
2710,-3.2572,1.7627,-9.6184,0.1391,5.3565,-0.2783
2715,-3.2572,1.6861,-9.5418,0.0696,5.2174,-0.2783
2720,-3.2189,1.7244,-9.6567,0.0696,5.0087,-0.2783
2725,-3.2572,1.6861,-9.5801,0.0696,4.8,-0.2087
2730,-3.2189,1.8011,-9.5418,0.0696,4.7304,-0.2783
2735,-3.2189,1.6478,-9.6567,-0.0696,4.8,-0.2783
2740,-3.2572,1.7244,-9.5801,-0.1391,4.6609,-0.2087
2745,-3.1039,1.6478,-9.5034,-0.3478,4.6609,-0.0696
2750,-3.1806,1.6861,-9.4651,-0.487,4.6609,-0.1391
2755,-3.1423,1.6095,-9.5801,-0.5565,4.5913,-0.0696
2760,-3.1806,1.6861,-9.5801,-0.6957,4.5913,-0.0696
2765,-3.1423,1.7244,-9.3885,-0.8348,4.4522,-0.1391
2770,-3.1806,1.6478,-9.4268,-0.7652,4.4522,-0.1391
2775,-3.2572,1.8394,-9.4651,-0.9043,4.4522,-0.1391
2780,-3.1806,1.7244,-9.4268,-0.9043,4.5913,-0.1391
2785,-3.1806,1.7244,-9.5801,-0.9043,4.5217,-0.1391
2790,-3.2189,1.8011,-9.5801,-0.7652,4.5217,-0.2087
2795,-3.2189,1.7244,-9.5034,-0.9043,4.3826,-0.2087
2800,-3.2572,1.6478,-9.4268,-0.8348,4.2435,-0.2783
2805,-3.1423,1.6861,-9.5418,-0.7652,4.1739,-0.3478
2810,-3.1806,1.6861,-9.5034,-0.8348,4.0348,-0.3478
2815,-3.2572,1.6861,-9.5801,-0.9043,3.8261,-0.3478
2820,-3.1423,1.6861,-9.4651,-0.9739,3.8261,-0.3478
2825,-3.1806,1.8011,-9.5034,-1.113,3.8261,-0.2783
2830,-3.2955,1.6861,-9.4651,-1.3217,3.8957,-0.2087
2835,-3.1039,1.5328,-9.3885,-1.3217,3.9652,-0.0696
2840,-3.2572,1.7244,-9.4651,-1.2522,3.8957,-0.2087
2845,-3.2189,1.7244,-9.4651,-1.3913,4.2435,-0.1391
2850,-3.2189,1.6861,-9.5801,-1.4609,4.1739,-0.0696
2855,-3.1423,1.6095,-9.5034,-1.3913,4.313,-0.0696
2860,-3.1806,1.7244,-9.5418,-1.2522,4.2435,0.1391
2865,-3.1039,1.6861,-9.5418,-1.4609,3.9652,0.1391
2870,-3.2955,1.7244,-9.5034,-1.3913,3.9652,0.2783
2875,-3.2189,1.6478,-9.6567,-1.4609,3.8957,0.2783
2880,-3.2189,1.6861,-9.5034,-1.3913,3.9652,0.2087
2885,-3.2572,1.6861,-9.5418,-1.3217,3.8261,0.2783
2890,-3.2189,1.7244,-9.5418,-1.2522,3.8957,0.1391
2895,-3.2572,1.6861,-9.3885,-1.2522,3.8261,0.2087
2900,-3.2189,1.6478,-9.4268,-1.2522,3.9652,0.1391
2905,-3.2189,1.7244,-9.4651,-1.113,3.8957,0.0696
2910,-3.2189,1.7244,-9.5034,-1.0435,4.0348,0.1391
2915,-3.2572,1.8011,-9.5418,-1.113,3.9652,0.2087
2920,-3.2955,1.8011,-9.6567,-1.1826,3.9652,0.1391
2925,-3.1806,1.8011,-9.5418,-1.1826,3.9652,0.1391
2930,-3.2572,1.7627,-9.5801,-1.113,3.8957,0.0696
2935,-3.2189,1.7244,-9.4651,-0.9739,3.8957,0.0
2940,-3.2189,1.8394,-9.5801,-0.9739,3.8261,-0.0696
2945,-3.1423,1.6095,-9.5418,-1.0435,3.687,-0.0696
2950,-3.2955,1.6861,-9.5801,-0.8348,3.6174,0.0
2955,-3.1423,1.7627,-9.4651,-0.9043,3.5478,-0.0696
2960,-3.0656,1.6861,-9.5034,-1.0435,3.6174,-0.1391
2965,-3.2189,1.7627,-9.3502,-1.0435,3.7565,-0.1391
2970,-3.1806,1.6861,-9.5034,-0.8348,3.687,-0.1391
2975,-3.2189,1.8011,-9.5801,-0.487,3.8261,-0.1391
2980,-3.2572,1.7244,-9.4268,-0.2783,3.8261,-0.2783
2985,-3.2189,1.8011,-9.5034,0.0,3.8261,-0.3478
2990,-3.1806,1.8011,-9.5034,0.1391,3.7565,-0.4174
2995,-3.1806,1.8011,-9.4651,0.1391,3.6174,-0.4174
