timestamp,accX,accY,accZ,gyroX,gyroY,gyroZ
0,-0.1533,-9.3885,-2.9507,1.3217,0.9739,0.6261
5,-0.1533,-9.3502,-2.9507,1.113,1.0435,0.487
10,-0.1916,-9.3502,-3.0656,0.9043,1.113,0.6261
15,-0.2682,-9.3118,-2.989,0.6261,1.1826,0.487
20,-0.1533,-9.2352,-2.9123,0.5565,1.3217,0.6957
25,-0.2299,-9.3502,-3.0273,0.3478,1.2522,0.487
30,-0.2299,-9.3885,-3.1039,0.1391,1.0435,0.6957
35,-0.2299,-9.3502,-3.1423,0.0696,1.1826,0.6261
40,-0.3066,-9.3502,-3.0656,0.0,1.1826,0.6957
45,-0.1916,-9.4268,-2.989,-0.2087,1.1826,0.487
50,-0.2682,-9.4651,-2.9507,-0.3478,1.0435,0.7652
55,-0.2299,-9.3118,-3.1423,-0.4174,1.0435,0.5565
60,-0.2682,-9.3885,-2.989,-0.6261,1.0435,0.8348
65,-0.1916,-9.4268,-3.0273,-0.7652,1.0435,0.6261
70,-0.2299,-9.3885,-3.1039,-0.8348,1.113,0.6261
75,-0.2682,-9.3118,-2.9507,-0.9739,1.1826,0.6957
80,-0.3449,-9.4268,-3.1039,-1.113,1.0435,0.8348
85,-0.3066,-9.3885,-2.989,-1.113,1.1826,0.7652
90,-0.3066,-9.4651,-2.9507,-0.9739,1.2522,0.9739
95,-0.1916,-9.5034,-3.1806,-0.9043,1.3217,0.6957
100,-0.2299,-9.3502,-3.0273,-0.8348,1.4609,0.9043
105,-0.2299,-9.3885,-3.1039,-0.9043,1.6696,0.7652
110,-0.2299,-9.3885,-2.9507,-0.8348,1.7391,0.9739
115,-0.1916,-9.3885,-3.1039,-1.0435,1.8783,0.9739
120,-0.1916,-9.4651,-3.1039,-1.113,1.9478,1.1826
125,-0.1916,-9.4268,-3.0656,-0.9739,2.0174,0.9739
130,-0.2299,-9.3885,-3.2572,-0.9739,2.0174,1.113
135,-0.2299,-9.3885,-3.2955,-1.113,2.1565,0.9739
140,-0.1916,-9.4268,-3.1423,-1.1826,2.2261,1.3217
145,-0.1533,-9.4651,-3.3339,-1.113,2.2957,1.2522
150,-0.1533,-9.3502,-3.1039,-1.1826,2.2957,1.4609
155,-0.1533,-9.4651,-3.2189,-1.1826,2.2957,1.3217
160,-0.1916,-9.4651,-3.1806,-1.113,2.3652,1.4609
165,-0.2299,-9.3502,-3.1806,-1.113,2.4348,1.3913
170,-0.1533,-9.4268,-3.0656,-1.1826,2.3652,1.3913
175,-0.3832,-9.3885,-3.2572,-1.2522,2.3652,1.3217
180,-0.2682,-9.3118,-3.1423,-1.3913,2.5043,1.5304
185,-0.1916,-9.2735,-3.2189,-1.6696,2.5739,1.4609
190,-0.1533,-9.3502,-3.1423,-1.9478,2.5739,1.5304
195,-0.1533,-9.2735,-3.1423,-2.1565,2.5043,1.4609
200,-0.1916,-9.4268,-3.2189,-2.2957,2.4348,1.6
205,-0.1533,-9.3118,-3.2189,-2.3652,2.713,1.5304
210,-0.2299,-9.3118,-3.1039,-2.4348,2.713,1.7391
215,-0.2299,-9.3502,-3.1806,-2.4348,2.9217,1.6
220,-0.115,-9.3502,-3.2955,-2.4348,2.9913,1.7391
225,-0.2682,-9.3502,-3.3339,-2.4348,2.9913,1.8087
230,-0.2682,-9.3118,-3.3722,-2.3652,3.1304,2.087
235,-0.1916,-9.3118,-3.2955,-2.4348,3.2696,2.1565
240,-0.1916,-9.2735,-3.2955,-2.5739,3.2696,2.2261
245,-0.1916,-9.3502,-3.4871,-2.7826,3.3391,2.2261
250,-0.1916,-9.1586,-3.2572,-2.9913,3.4783,2.3652
255,-0.2299,-9.1969,-3.2955,-3.3391,3.4087,2.2261
260,-0.2299,-9.2352,-3.2189,-3.6174,3.3391,2.2957
265,-0.115,-9.3118,-3.3339,-3.9652,3.4087,2.2261
270,-0.2682,-9.2352,-3.4105,-4.313,3.4783,2.4348
275,-0.2299,-9.1202,-3.2572,-4.6609,3.687,2.2957
280,-0.2682,-9.1586,-3.2572,-5.0087,3.8261,2.4348
285,-0.1533,-9.1202,-3.2955,-5.3565,3.8957,2.4348
290,-0.1916,-9.0053,-3.4488,-5.8435,3.8957,2.6435
295,-0.2299,-8.967,-3.5255,-6.2609,4.0348,2.713
300,-0.1533,-9.0436,-3.4488,-6.5391,4.0348,2.9217
305,-0.2682,-9.0053,-3.4871,-6.9565,4.1043,2.8522
310,-0.2682,-9.0053,-3.6404,-7.3739,4.1043,2.9217
315,-0.2299,-9.0436,-3.6787,-7.7217,4.1739,2.9217
320,-0.1916,-9.1202,-3.5638,-7.7913,4.2435,2.9217
325,-0.1533,-9.0819,-3.7554,-7.7913,4.313,2.8522
330,-0.3066,-9.0819,-3.6787,-7.9304,4.3826,2.9217
335,-0.2299,-9.1202,-3.7554,-7.9304,4.4522,3.0609
340,-0.3066,-9.0436,-3.6787,-8.1391,4.5913,3.1304
345,-0.2299,-9.0436,-3.8704,-8.2087,4.7304,3.0609
350,-0.2299,-9.0053,-3.832,-8.487,4.8696,3.3391
355,-0.2299,-8.8903,-3.7937,-8.6261,4.8696,3.3391
360,-0.1916,-8.852,-3.8704,-8.8348,5.0783,3.5478
365,-0.1533,-8.8903,-3.7937,-9.2522,5.2174,3.6174
370,-0.2299,-8.8903,-3.7937,-9.5304,5.4261,3.7565
375,-0.3449,-8.852,-3.3339,-9.7391,5.5652,3.687
380,0.2299,-8.967,-3.832,-10.1565,5.7739,3.8957
385,-0.3832,-8.9286,-3.9087,-10.5043,5.8435,3.8957
390,-0.3449,-8.8903,-4.062,-11.1304,5.913,4.0348
395,-0.115,-8.8137,-3.4105,-11.7565,5.913,4.1043
400,-0.1533,-8.7754,-4.062,-12.3826,6.0522,4.2435
405,-0.3066,-8.6987,-4.7517,-12.9391,6.0522,4.2435
410,-0.2682,-9.0436,-3.832,-13.4957,6.0522,4.313
415,-0.115,-8.5071,-3.9087,-14.1913,6.1913,4.5217
420,-0.3832,-8.967,-3.6021,-14.9565,6.2609,4.7304
425,-0.2682,-8.7754,-4.1769,-15.4435,6.3304,4.8
430,-0.3066,-8.8137,-4.1386,-15.7913,6.4696,4.9391
435,-0.2682,-8.852,-4.1769,-16.0696,6.6087,5.0783
440,-0.3449,-8.8903,-4.3685,-16.3478,6.8174,5.4261
445,-0.2682,-8.852,-4.2152,-16.2783,6.887,5.6348
450,-0.1916,-8.852,-3.947,-16.0,6.9565,6.0522
455,-0.1533,-8.8137,-4.2536,-15.4435,7.0957,6.1913
460,-0.2299,-8.7754,-4.062,-15.0261,7.3043,6.3304
465,-0.0766,-8.7754,-4.1003,-14.6087,7.513,6.2609
470,-0.0383,-8.6604,-4.062,-14.1913,7.7913,6.1913
475,-0.115,-8.5071,-3.9853,-13.6348,8.1391,6.1913
480,-0.0766,-8.5838,-3.9853,-13.4957,8.2087,6.1913
485,-0.115,-8.3921,-3.9087,-13.6348,8.1391,6.1913
490,-0.3066,-8.3538,-4.1769,-14.2609,8.1391,6.2609
495,-0.3066,-8.3538,-4.2152,-14.7478,8.0696,6.4696
500,-0.3832,-8.2389,-3.947,-15.3043,7.7913,6.8174
505,-0.4215,-8.1239,-4.1003,-15.9304,7.4435,7.3043
510,-0.4215,-7.9323,-4.1003,-16.7652,7.2348,7.7913
515,-0.4598,-7.894,-4.2919,-17.4609,6.9565,8.2087
520,-0.4215,-7.779,-4.3302,-18.2261,6.5391,8.5565
525,-0.4598,-7.5874,-4.2536,-18.9217,6.1217,9.0435
530,-0.4215,-7.5874,-4.2152,-19.7565,5.7043,9.2522
535,-0.4598,-7.3192,-4.1003,-20.313,5.4957,9.6696
540,-0.4598,-7.2809,-4.1386,-21.287,5.5652,9.8783
545,-0.4598,-7.2042,-4.1386,-22.4696,5.7739,9.8783
550,-0.4598,-7.0893,-4.1003,-24.3478,6.1913,9.8783
555,-0.4215,-6.936,-4.1769,-26.713,6.6783,10.1565
560,-0.4215,-6.7827,-4.1386,-29.1478,6.887,10.3652
565,-0.3449,-6.8593,-4.0236,-31.6522,7.2348,10.7826
570,-0.2299,-6.7827,-4.062,-34.087,7.4435,10.9913
575,-0.2682,-6.7061,-3.947,-36.1739,7.7913,11.2
580,-0.1916,-6.7061,-3.832,-38.0522,8.1391,11.2696
585,-0.115,-6.7061,-3.8704,-40.0696,8.5565,11.7565
590,0.0,-6.7444,-4.0236,-42.4348,8.8348,11.9652
595,0.0,-6.9743,-4.1003,-44.5217,9.113,12.2435
600,-0.0383,-7.0509,-4.062,-46.9565,9.3913,12.0348
605,0.0,-7.2042,-4.1003,-49.6,9.6,11.687
610,0.0766,-7.1276,-4.1386,-52.0348,9.4609,11.0609
615,0.0383,-7.2042,-4.2152,-54.1913,9.2522,10.5043
620,0.0,-7.2425,-4.1769,-55.7913,8.8348,9.6
625,-0.0766,-7.2042,-4.1769,-57.2522,8.487,8.9043
630,-0.2682,-7.0893,-4.2919,-58.3652,7.9304,8.0
635,-0.4215,-7.1276,-4.3685,-59.2,7.3043,7.3739
640,-0.4215,-7.1276,-4.2152,-59.9652,6.5391,6.7478
645,-0.5365,-7.0126,-4.5218,-60.4522,5.7043,6.1913
650,-0.4982,-6.8593,-4.6751,-61.2174,5.0087,5.6348
655,-0.4598,-6.6677,-4.79,-62.0522,4.5217,5.287
660,-0.5365,-6.4761,-4.8667,-62.9565,4.1043,4.6609
665,-0.6131,-6.4378,-4.9433,-63.7217,3.8957,4.313
670,-0.4982,-6.3229,-4.8667,-64.0696,3.8261,4.1043
675,-0.4598,-6.3229,-5.0966,-64.3478,4.0348,4.2435
680,-0.4598,-6.2845,-5.0583,-64.4174,4.1739,4.5217
685,-0.2299,-6.3995,-4.905,-64.3478,4.5217,4.8
690,0.0,-6.4761,-4.905,-64.1391,4.9391,4.5217
695,0.115,-6.5528,-4.8667,-64.0,5.4261,4.3826
700,0.2682,-6.7061,-5.02,-64.0696,5.9826,4.0348
705,0.2299,-6.821,-4.9816,-64.4174,6.4,3.8261
710,0.1533,-6.821,-5.1349,-64.9043,6.8174,3.2
715,0.0766,-6.8977,-4.905,-65.6,7.2348,2.9217
720,0.0,-6.8593,-4.9816,-65.7391,7.7913,2.5739
725,-0.2682,-6.7827,-4.905,-65.9478,8.1391,2.5043
730,-0.2682,-6.821,-5.0583,-66.2261,8.6261,2.3652
735,-0.2299,-6.6677,-4.9816,-66.4348,8.9043,2.3652
740,-0.2299,-6.6294,-4.9816,-66.6435,8.9043,1.8087
745,-0.1533,-6.5911,-5.0966,-66.713,8.9043,1.3913
750,-0.2682,-6.3995,-5.2116,-66.9217,8.8348,0.5565
755,-0.3832,-6.2079,-5.0966,-67.2,9.113,-0.0696
760,-0.4215,-6.3229,-5.3265,-67.7565,9.7391,-0.9043
765,-0.3449,-6.3229,-5.3648,-68.3826,10.2957,-1.0435
770,-0.3832,-6.4378,-5.4798,-69.2174,11.1304,-1.3217
775,-0.3449,-6.4761,-5.5564,-69.8435,11.9652,-1.2522
780,-0.4215,-6.5911,-5.5948,-70.1913,12.5217,-1.8087
785,-0.2682,-6.7444,-5.6714,-70.1913,12.6609,-1.9478
790,-0.2682,-6.8593,-5.7097,-69.913,12.1043,-2.5043
795,-0.1916,-7.0126,-5.6331,-69.0087,11.2696,-2.5739
800,-0.1916,-7.2425,-5.7097,-67.4783,10.5739,-2.9913
805,-0.1916,-7.1659,-5.7864,-65.3217,9.9478,-3.1304
810,-0.1916,-7.2809,-6.1313,-62.887,9.113,-3.4087
815,-0.2682,-7.2809,-5.8247,-60.0348,8.8348,-3.3391
820,-0.2682,-7.2425,-5.863,-57.3913,8.4174,-3.2696
825,-0.3832,-7.1276,-5.8247,-54.887,8.2783,-2.9913
830,-0.3449,-7.2042,-5.9396,-52.4522,8.0696,-2.9913
835,-0.3449,-7.0509,-5.8247,-50.2261,7.3739,-3.1304
840,-0.3449,-7.0126,-5.7864,-47.5826,7.3043,-2.9217
845,-0.4598,-6.8977,-5.7864,-44.4522,7.4435,-2.9913
850,-0.4215,-6.9743,-5.748,-41.8087,7.7913,-3.3391
855,-0.4215,-6.8977,-6.0163,-39.3739,8.2783,-3.2696
860,-0.4215,-6.9743,-5.863,-37.287,9.0435,-3.9652
865,-0.2682,-6.821,-5.9013,-35.3391,9.6696,-4.1739
870,-0.1916,-6.7827,-5.9396,-33.1826,10.5043,-4.0348
875,0.0383,-6.821,-5.5564,-31.4435,11.3391,-3.687
880,0.0766,-6.8593,-5.7097,-29.0783,12.1739,-4.3826
885,0.0766,-6.8977,-5.978,-26.1565,12.4522,-5.4957
890,0.1916,-6.4378,-5.6714,-24.0696,12.8696,-6.1217
895,0.0766,-6.3612,-5.748,-21.4261,13.3565,-5.3565
900,0.0,-6.2845,-5.6714,-19.4087,13.4957,-4.9391
905,-0.1916,-6.2079,-5.6331,-17.8087,13.9826,-4.1043
910,-0.2299,-6.1313,-5.5181,-16.0696,14.1913,-3.4783
915,0.0383,-6.1696,-5.2882,-14.4,14.4,-2.6435
920,-0.115,-6.1313,-5.1349,-12.9391,14.9565,-2.0174
925,-0.0766,-5.9396,-5.2116,-12.1043,14.8174,-0.9739
930,-0.1916,-5.7864,-5.1349,-11.4783,14.5391,0.8348
935,-0.1533,-5.9013,-5.0966,-10.1565,14.6087,1.7391
940,-0.3066,-5.7864,-4.9816,-8.9739,14.7478,2.1565
945,-0.2299,-5.7864,-5.02,-8.1391,14.8174,2.9217
950,-0.2682,-5.7097,-4.8667,-8.0696,14.8174,3.4087
955,-0.2299,-5.863,-4.8667,-8.6261,14.4,3.9652
960,-0.2682,-5.6331,-4.8284,-9.8087,13.4957,3.2696
965,-0.1916,-5.748,-5.1349,-11.4783,12.1739,2.7826
970,-0.3832,-5.9396,-5.0583,-12.4522,10.6435,4.1043
975,-0.3832,-5.863,-5.0966,-12.8,9.0435,4.5217
980,-0.4598,-5.7864,-5.3265,-13.3565,6.3304,4.313
985,-0.4215,-5.748,-5.2882,-14.5391,4.1043,4.313
990,-0.8047,-5.6331,-5.3648,-16.6957,2.3652,2.4348
995,-0.7664,-5.5564,-5.6331,-18.7826,0.5565,3.1304
1000,-0.7664,-5.9013,-5.7097,-21.4261,-1.0435,3.9652
1005,-1.073,-6.0546,-5.6331,-23.9304,-2.2261,4.0348
1010,-1.073,-6.3612,-5.7097,-26.1565,-3.8261,3.7565
1015,-1.4562,-6.7827,-5.9396,-28.313,-5.287,4.1739
1020,-1.3029,-6.5528,-6.1696,-31.0957,-6.7478,3.2696
1025,-0.958,-6.9743,-6.4761,-32.9739,-8.2087,5.6348
1030,-0.7281,-7.7407,-6.4378,-34.9913,-9.113,5.9826
1035,-0.8814,-7.1276,-6.4761,-34.9217,-8.9739,3.7565
1040,-0.4598,-7.2425,-6.936,-33.0435,-8.7652,4.1739
1045,-0.2299,-7.6257,-6.7827,-30.4,-8.0696,4.7304
1050,0.0766,-7.5491,-7.0126,-27.3391,-7.0957,2.5739
1055,0.8047,-7.5108,-7.2425,-23.7217,-5.9826,3.8261
1060,1.3029,-8.2772,-7.5874,-19.6174,-3.7565,2.1565
1065,1.1496,-7.5874,-7.2425,-16.3478,-1.1826,-0.7652
1070,1.3029,-7.5874,-7.9706,-12.5217,0.6261,0.0
1075,1.2263,-8.0473,-8.2005,-9.5304,3.2,0.0
1080,0.958,-7.779,-7.8173,-6.1217,4.5913,-0.487
1085,0.6898,-7.9323,-7.894,0.6957,4.8,-0.2783
1090,0.3832,-7.9706,-8.0473,9.113,4.4522,-0.8348
1095,0.0,-7.8557,-8.0089,18.2261,3.4783,-1.1826
1100,-0.0383,-7.8173,-8.2389,26.2957,2.2957,-0.6261
1105,-0.7281,-7.3192,-7.8173,33.1826,1.6696,-2.9913
1110,-0.9197,-7.5108,-7.9706,40.8348,1.3913,-2.9217
1115,-1.1113,-7.5874,-7.5874,47.513,1.0435,-2.1565
1120,-1.4179,-7.7024,-7.3192,52.7304,0.8348,-2.3652
1125,-1.4945,-7.9323,-7.3575,57.8087,-0.9043,-1.8087
1130,-1.3795,-7.4341,-6.936,62.8174,-2.5739,-1.9478
1135,-1.073,-7.5108,-7.0509,68.8696,-4.8,-1.8087
1140,-0.9197,-7.6257,-6.9743,74.3652,-7.3043,-1.8783
1145,-0.6514,-7.5874,-6.8593,78.5391,-9.6696,-2.6435
1150,-0.3449,-7.5491,-6.8593,81.6,-11.8261,-3.8261
1155,-0.4215,-7.2042,-6.6294,83.2696,-13.287,-6.6783
1160,0.2682,-7.3575,-6.6677,84.6609,-14.6087,-8.2783
1165,0.3449,-7.1659,-6.8593,85.913,-15.1652,-9.113
1170,0.3449,-7.0893,-6.821,86.0522,-15.0957,-11.3391
1175,0.3066,-6.9743,-6.8593,85.4957,-14.5391,-12.6609
1180,0.3066,-6.7061,-6.7827,84.8,-14.1913,-13.913
1185,0.3832,-6.5145,-6.7444,83.8957,-14.0522,-14.3304
1190,0.115,-6.2845,-6.6677,83.1304,-13.7739,-14.6087
1195,0.0383,-6.3229,-6.7061,82.6435,-13.0783,-14.2609
1200,0.0,-6.3229,-6.6294,82.4348,-12.5217,-13.0783
1205,-0.1916,-5.8247,-6.5528,82.3652,-12.3826,-12.0348
1210,-0.3449,-5.7864,-6.6677,82.8522,-12.1043,-12.5217
1215,-0.3449,-6.0163,-6.4761,82.9913,-12.4522,-12.2435
1220,-0.4598,-5.978,-6.2845,82.9913,-12.8,-12.1043
1225,-0.4215,-6.0929,-6.2462,82.8522,-13.0087,-11.5478
1230,-0.1533,-6.2462,-5.9396,82.8522,-13.2174,-11.9652
1235,-0.2299,-6.4378,-5.9013,83.0609,-13.2174,-12.2435
1240,-0.4598,-6.3612,-5.4798,83.9652,-13.4261,-12.8
1245,-0.4215,-6.5528,-5.2499,85.4261,-13.7739,-12.9391
1250,-0.3066,-6.7444,-5.0966,87.3739,-14.2609,-13.0087
1255,-0.3449,-6.8593,-4.8667,90.0174,-14.8174,-12.4522
1260,-0.1533,-6.821,-4.8667,92.8,-15.0261,-11.9652
1265,-0.1533,-6.936,-4.5218,95.513,-14.8174,-10.6435
1270,-0.0383,-6.821,-4.4835,98.1565,-14.4696,-9.4609
1275,0.115,-6.7061,-4.4452,101.9826,-14.0522,-7.9304
1280,0.1533,-6.6677,-3.9853,105.5304,-13.7739,-6.9565
1285,0.1533,-6.7061,-3.9087,109.6348,-14.4696,-6.4
1290,-0.1533,-6.7827,-3.3339,113.3913,-15.9304,-6.5391
1295,-0.3832,-6.6677,-3.2189,115.9652,-18.0174,-6.1217
1300,-0.3449,-6.5528,-2.989,117.0087,-19.6174,-4.7304
1305,-0.115,-6.3995,-2.7591,117.1478,-20.0348,-2.5043
1310,-0.115,-6.7061,-2.3375,117.7043,-19.3391,-0.6261
1315,0.0,-6.8593,-1.8777,118.4,-18.0174,0.487
1320,0.3066,-7.2425,-1.3795,119.2348,-16.6261,0.0
1325,0.3066,-7.5108,-1.0346,121.2522,-15.7217,-2.3652
1330,0.3449,-7.779,-0.843,123.6174,-15.0957,-5.7739
1335,-0.0766,-8.4688,-0.5365,128.2087,-13.6348,-8.0696
1340,-0.2682,-9.7334,-0.0766,136.2783,-10.9913,-11.8957
1345,-0.3449,-11.7643,0.0766,151.3739,-6.7478,-12.7304
1350,-0.6131,-13.5271,-0.6514,172.4522,-2.087,-11.3391
1355,-0.4598,-14.7533,-2.3375,196.5217,1.4609,-7.8609
1360,-0.8047,-15.3281,-4.2152,222.2609,4.8,-2.3652
1365,-0.6898,-15.0599,-6.2462,245.9826,6.9565,4.0348
1370,-0.8814,-13.1822,-9.0819,265.4609,6.8174,10.8522
1375,-0.3832,-10.9596,-12.1859,279.0957,4.7304,16.2087
1380,-0.1916,-8.3538,-14.4084,277.7043,1.1826,19.3391
1385,-0.3832,-6.8593,-13.757,272.2087,-5.8435,21.2174
1390,-0.4982,-6.3612,-11.2662,273.3913,-15.5826,22.5391
1395,-0.8047,-5.748,-9.2735,284.5913,-22.9565,23.7217
1400,-1.073,-5.2116,-7.4341,301.0783,-27.6174,23.7913
1405,-1.4945,-3.8704,-5.7097,317.3565,-32.2087,22.9565
1410,-1.6478,-1.9927,-4.5601,328.3478,-36.2435,23.0261
1415,-2.7207,-0.0766,-4.1003,330.4348,-38.4696,24.8348
1420,-3.1423,1.8011,-3.0273,324.4522,-39.6522,28.5217
1425,-2.989,2.9123,-2.2992,311.8609,-42.4348,29.7739
1430,-1.8394,3.5638,-2.1843,300.3826,-44.8696,29.5652
1435,-0.9963,3.4871,-1.8394,287.6522,-45.4957,25.113
1440,-0.958,2.6441,-0.4982,275.7565,-43.3391,19.8957
1445,-0.3449,2.1076,-0.6131,266.2957,-40.2783,16.2087
1450,0.6898,0.5748,-0.5748,257.1826,-37.7043,12.2435
1455,1.6861,-0.958,-0.3832,249.0435,-35.8261,9.1826
1460,1.8011,-3.1423,-0.3066,243.2,-34.0174,7.8609
1465,2.031,-5.748,0.2299,238.7478,-32.2783,7.5826
1470,1.8011,-8.4688,0.8814,235.687,-30.0522,6.1217
1475,0.958,-11.4195,2.3375,236.0348,-25.1826,7.0261
1480,-1.1496,-18.2405,6.0546,240.6957,-20.8696,10.0174
1485,-2.4525,-31.461,14.6,253.913,-18.2261,13.6348
1490,-3.9853,-55.6794,30.8479,282.8522,-21.0783,14.1913
1495,-11.7643,-94.5745,54.7597,334.6783,-25.2522,13.2174
1500,-26.6326,-124.3877,54.798,401.8087,-29.1478,21.0087
1505,-29.1618,-109.4428,20.0032,411.7565,-41.0435,46.5391
1510,-15.7113,-78.1351,1.073,327.3043,-58.713,62.0522
1515,-1.6478,-54.9513,-18.5087,341.287,-76.313,45.4957
1520,7.9323,-28.357,-31.8059,445.8435,-69.0783,24.4174
1525,14.1019,-5.0966,-34.9481,541.7043,-59.0609,-3.8261
1530,14.9066,8.8137,-15.5964,580.0348,-44.3826,-22.4696
1535,14.1402,15.2132,16.631,629.0087,-14.0522,-20.8
1540,9.5801,24.1035,33.5303,698.0174,16.2783,-13.3565
1545,7.0126,38.4353,25.483,697.7391,31.2348,-5.3565
1550,4.7134,48.3219,14.2552,558.2609,28.6609,7.7217
1555,-0.6898,54.4915,1.8394,358.0522,14.1913,32.8348
1560,-5.863,45.6778,-0.8814,216.7652,2.2957,71.7913
1565,-6.4761,25.1764,9.1202,159.7913,1.7391,105.6696
1570,-9.5034,7.7407,17.2441,167.3739,7.513,114.1565
1575,-11.4578,-3.5638,14.6384,233.1826,8.8348,105.0435
1580,-8.8903,-9.3118,6.0546,278.9565,7.5826,94.1217
1585,-5.5948,-14.2552,5.2499,274.9217,0.6261,75.3391
1590,-2.1459,-22.2641,6.9743,245.0087,-13.4957,48.6261
1595,-1.1113,-28.4337,6.0929,207.0957,-27.6174,19.8261
1600,-1.7627,-30.0048,4.8667,163.2696,-37.7739,-1.3217
1605,-1.6478,-25.0998,4.5984,132.1043,-42.2261,-7.7913
1610,-0.4215,-17.7423,4.3302,128.0696,-44.8696,-4.7304
1615,-0.4598,-10.1166,7.2425,141.1478,-45.4957,2.713
1620,0.5748,-3.1806,11.3811,158.8174,-40.487,18.0174
1625,1.073,2.4142,13.7187,173.4261,-36.7304,28.9391
1630,0.6898,9.925,17.4741,171.8261,-33.4609,38.2609
1635,0.6898,17.0909,19.0452,160.1391,-29.4957,42.2261
1640,0.5365,23.9502,23.2221,146.4348,-25.6696,40.0696
1645,0.3832,27.399,22.494,148.9391,-24.2783,34.5043
1650,-0.4215,26.2111,21.6893,141.1478,-23.6522,29.9826
1655,0.0383,21.6127,20.693,119.7913,-21.3565,25.3217
1660,-0.4215,17.7423,19.0835,94.0522,-19.3391,19.8261
1665,-0.958,12.8756,17.2058,69.913,-14.4696,16.7652
1670,-1.1879,8.3538,16.3628,50.6435,-10.6435,14.6087
1675,-1.3412,4.2919,14.5617,34.2261,-10.8522,12.3826
1680,-1.073,1.2263,12.2625,21.7043,-11.5478,9.3217
1685,-0.3449,-1.1879,9.9633,8.2087,-11.3391,7.4435
1690,0.3449,-3.6404,8.0473,-1.8087,-11.1304,6.0522
1695,1.1113,-5.5564,6.3229,-4.8696,-10.8522,3.8957
1700,1.4562,-6.5528,4.79,-2.5739,-9.6696,2.7826
1705,1.1496,-7.1659,3.1806,2.1565,-7.0957,2.0174
1710,1.1113,-7.5874,2.6824,7.513,-3.4783,2.9913
1715,0.6131,-7.5874,3.2189,15.4435,-0.9043,4.8696
1720,0.3449,-7.5491,5.2116,31.3043,0.9739,9.5304
1725,0.2682,-7.3575,5.7864,50.2957,3.8957,14.6087
1730,0.4215,-5.7097,4.5984,65.3913,5.4957,18.5739
1735,0.0383,-3.832,3.9087,68.8,4.313,20.5913
1740,-0.3832,-1.916,4.1769,62.1913,2.9217,20.8696
1745,-0.9963,-0.6131,6.0163,52.7304,4.1739,20.0348
1750,-1.3412,0.115,7.9706,47.3043,6.6087,18.8522
1755,-1.7627,1.0346,8.852,46.7478,8.2087,16.3478
1760,-1.8777,2.0693,8.852,45.913,8.2087,12.6609
1765,-1.6095,2.8357,9.3502,40.9043,7.0957,5.4957
1770,-1.916,3.1039,10.6147,31.7217,6.0522,-1.8087
1775,-2.031,2.7974,11.7643,25.9478,4.313,-8.0696
1780,-1.5711,2.4142,12.8373,23.6522,1.4609,-12.4522
1785,-1.1113,1.9927,12.2625,23.0957,-2.2261,-15.9304
1790,-0.7281,1.5328,11.1895,21.7043,-5.9826,-18.0174
1795,-0.4215,1.1496,10.1166,20.2435,-8.5565,-19.2
1800,0.0383,0.6514,9.7334,19.4783,-8.8348,-18.5043
1805,0.1533,-0.1533,10.2315,20.1043,-7.0957,-16.9043
1810,0.5365,-0.9197,10.8063,22.7478,-4.4522,-14.1217
1815,0.5365,-0.6131,10.6914,26.087,-2.3652,-11.3391
1820,0.7281,-0.115,10.2315,27.9652,-1.3913,-9.0435
1825,0.9197,0.8047,10.0399,28.9391,-0.8348,-7.513
1830,0.7281,1.6478,9.9633,29.9826,-0.3478,-5.8435
1835,0.4598,1.8394,10.1932,31.6522,0.1391,-4.313
1840,0.4215,1.5711,10.4231,34.5739,0.8348,-2.8522
1845,0.4215,1.3029,10.6914,38.6783,1.4609,-1.6
1850,0.2299,1.3029,10.4614,43.2696,2.2261,0.0
1855,-0.0383,1.073,10.5381,45.9826,2.2261,1.5304
1860,-0.1533,0.5748,10.4614,47.5826,1.4609,3.2
1865,-0.3832,0.0383,10.3082,48.3478,0.0,3.3391
1870,-0.3449,-0.6514,10.0016,48.5565,-1.9478,3.2696
1875,-0.4215,-1.1879,9.5801,49.6,-2.9913,2.5043
1880,-0.5748,-1.7627,9.4268,51.0609,-4.1043,1.7391
1885,-0.5365,-2.1076,9.1969,53.6348,-5.913,0.6261
1890,-0.4982,-2.2609,8.967,56.7652,-8.0696,-1.0435
1895,-0.5365,-2.1076,8.6987,59.8957,-8.9739,-3.4087
1900,-0.4982,-2.1843,8.4688,62.4696,-9.1826,-5.1478
1905,-0.8814,-1.8394,8.3921,64.5565,-9.8783,-7.4435
1910,-0.5748,-1.4945,8.2389,67.0609,-10.5043,-9.1826
1915,-0.5748,-0.958,8.3155,69.5652,-10.2957,-9.8087
1920,-0.5365,-0.2299,8.0089,71.2348,-9.1826,-9.8087
1925,-0.5365,0.0766,7.9323,71.2348,-7.3739,-9.5304
1930,-0.4598,0.5365,7.779,70.4696,-5.0783,-8.2087
1935,-0.4215,0.9197,7.5108,68.6609,-2.9913,-7.2348
1940,-0.3449,1.1879,7.2809,66.3652,-0.6957,-6.0522
1945,0.0,1.2646,6.9743,63.7217,1.5304,-5.287
1950,-0.115,1.3029,7.2809,61.4261,3.8261,-4.313
1955,-0.115,1.4945,7.1276,59.4087,5.913,-3.8261
1960,-0.0383,1.3795,7.3958,57.9478,7.6522,-3.1304
1965,0.0,1.3412,7.5874,56.2783,9.1826,-3.0609
1970,0.0383,1.3412,7.779,55.0261,10.1565,-2.4348
1975,0.0,1.4179,7.8557,53.4957,10.6435,-1.8783
1980,0.0766,1.4945,8.0473,51.687,10.6435,-1.113
1985,0.0,1.5328,8.1239,48.8348,10.3652,-0.6261
1990,0.0,1.4179,8.4305,44.5913,10.6435,-0.4174
1995,-0.0383,1.4562,8.5454,38.4696,11.0609,-1.4609
2000,-0.115,1.7627,8.737,31.3043,11.5478,-3.0609
2005,-0.1916,1.8394,8.5838,23.513,11.8261,-5.2174
2010,-0.3066,1.9543,8.4305,16.0,12.0348,-7.5826
2015,-0.2682,2.031,8.1239,8.2783,12.313,-9.6
2020,-0.2682,1.9927,7.9706,2.5043,12.4522,-10.9217
2025,-0.115,1.9927,7.7024,-3.1304,12.3826,-12.0348
2030,-0.115,2.2609,7.4725,-8.487,12.5217,-12.5217
2035,0.0,2.1843,7.1659,-13.4261,12.8,-13.0783
2040,-0.1533,2.3375,6.7827,-17.3217,13.4261,-12.8696
2045,-0.1533,2.4525,6.6294,-20.1739,14.4,-13.0087
2050,-0.1533,2.2992,6.4761,-21.7739,15.513,-12.4522
2055,-0.115,2.4525,6.6294,-22.4,16.9739,-12.1043
2060,-0.1533,2.5291,6.6677,-22.8174,18.5043,-11.4087
2065,-0.3066,2.7207,7.0126,-23.5826,19.7565,-11.0609
2070,-0.3832,2.9123,7.0509,-24.8348,20.5913,-10.2957
2075,-0.4215,3.1806,7.2042,-26.2261,20.9391,-9.8783
2080,-0.4215,3.0273,7.3958,-27.7565,21.287,-9.0435
2085,-0.4598,3.1806,7.6641,-29.2174,21.7043,-8.3478
2090,-0.5365,3.2189,7.8557,-30.8174,22.4,-7.5826
2095,-0.4598,3.1039,8.0089,-32.9043,22.7478,-7.2348
2100,-0.5748,3.0656,8.4305,-35.4087,22.8174,-6.6783
2105,-0.4598,2.7974,8.737,-38.1913,22.1913,-6.8174
2110,-0.4598,2.6824,8.9286,-40.8348,20.9391,-6.4696
2115,-0.4598,2.5291,8.8137,-43.3391,19.4783,-6.4
2120,-0.4598,2.2992,9.0053,-45.6348,18.1565,-6.1913
2125,-0.4598,2.2609,8.852,-47.7913,16.9043,-6.4
2130,-0.2299,1.8394,8.9286,-49.8783,16.3478,-6.6783
2135,-0.3066,1.7244,8.6987,-52.1043,16.2783,-7.2348
2140,-0.2682,1.5328,8.5838,-54.5391,16.487,-7.6522
2145,-0.115,1.3795,8.3921,-57.0435,16.7652,-8.5565
2150,-0.2299,1.2646,8.4688,-59.687,17.113,-9.2522
2155,-0.4598,1.1879,8.4688,-62.6087,17.6,-9.9478
2160,-0.4982,0.8814,8.4305,-65.7391,17.8087,-10.2957
2165,-0.3832,0.6131,8.2772,-67.7565,18.1565,-10.8522
2170,-0.3066,0.3832,8.2389,-69.2174,18.8522,-11.3391
2175,-0.4598,0.3449,8.0856,-69.913,19.8261,-11.8261
2180,-0.4982,0.1916,8.0856,-69.9826,20.3826,-11.7565
2185,-0.5748,0.0,8.1622,-69.913,20.5913,-11.8957
2190,-0.6898,-0.0766,8.1622,-69.913,20.7304,-11.5478
2195,-0.4598,-0.1533,8.2389,-69.2174,21.0783,-11.4783
2200,-0.6898,-0.1533,8.2005,-68.1043,21.4957,-11.1304
2205,-0.7281,-0.2299,8.0856,-66.9217,21.7739,-10.9913
2210,-0.958,-0.1916,8.6604,-66.8522,21.8435,-10.9217
2215,-1.073,-0.115,8.8137,-67.8957,20.4522,-11.7565
2220,-1.1113,0.115,8.9286,-69.4957,18.5043,-12.8696
2225,-1.0346,-0.1533,9.3118,-71.1652,16.9739,-13.8435
2230,-1.1879,-0.3066,9.8483,-73.2522,15.513,-13.1478
2235,-0.8047,-1.073,10.3465,-75.8261,14.3304,-10.8522
2240,-0.4215,-1.7244,10.8446,-77.8435,13.287,-8.6261
2245,0.0,-2.1076,10.9596,-78.6783,12.5217,-7.0261
2250,-0.0766,-2.0693,10.9979,-79.9304,11.8261,-4.8
2255,-0.1533,-1.8394,11.0363,-83.5478,11.9652,-2.5739
2260,-1.1113,-1.3795,11.0746,-91.0609,14.2609,-2.0174
2265,-1.6095,-0.8814,11.1512,-99.8261,16.4174,-1.7391
2270,-1.4945,-0.4598,11.3045,-109.0783,18.0174,-4.313
2275,-1.8011,-0.115,11.3045,-116.4522,19.6174,-8.9739
2280,-2.3375,0.0383,10.6147,-122.087,19.9652,-12.8
2285,-2.1459,0.0,10.1166,-125.1478,18.9217,-17.113
2290,-2.031,-0.115,9.5801,-124.8,18.7826,-21.287
2295,-2.5291,-0.6898,9.1202,-121.8783,20.5913,-24.9043
2300,-2.6441,-1.1496,9.0436,-117.6348,23.4435,-26.2957
2305,-2.3375,-1.9927,8.967,-112.7652,26.4348,-26.9217
2310,-2.1459,-2.6058,8.8903,-106.9913,29.0783,-27.3391
2315,-2.4908,-3.5255,8.852,-102.8174,28.8696,-26.2957
2320,-2.5291,-4.3685,8.6987,-99.687,25.8087,-23.513
2325,-2.4142,-5.0583,8.2389,-96.6957,21.0087,-20.8696
2330,-1.9927,-5.6714,8.2005,-92.6609,16.1391,-18.2261
2335,-1.7627,-5.6714,8.0473,-85.9826,12.7304,-17.113
2340,-1.7244,-5.4798,7.894,-77.913,11.0609,-16.1391
2345,-1.8394,-5.2116,8.0473,-70.4696,9.8087,-15.7913
2350,-1.9543,-5.0583,8.6987,-63.8609,8.4174,-15.9304
2355,-2.2609,-4.7517,9.5801,-57.3913,6.8174,-16.0
2360,-2.2226,-4.7134,10.4231,-48.6957,4.7304,-15.5826
2365,-1.9543,-4.5601,10.768,-41.5304,3.4087,-15.1652
2370,-1.4945,-4.4452,11.3428,-35.687,2.713,-14.0522
2375,-2.031,-4.3302,11.841,-30.6087,2.6435,-12.4522
2380,-2.0693,-4.7134,11.9943,-25.8087,2.2261,-9.3217
2385,-1.4179,-5.2499,11.2662,-21.7739,2.7826,-6.6087
2390,-1.9927,-5.5564,10.9979,-19.4783,4.6609,-4.8
2395,-1.916,-5.5181,9.7717,-18.2261,6.5391,-2.6435
2400,-1.4562,-5.863,9.3502,-15.7217,8.1391,0.6261
2405,-2.1843,-5.978,8.2772,-11.4783,9.4609,4.0348
2410,-1.073,-6.4761,8.3538,-4.1043,9.6696,6.0522
2415,-1.4179,-6.3612,7.779,2.713,9.6696,6.3304
2420,-1.5328,-6.5145,7.2042,11.4783,8.9739,7.6522
2425,-1.4562,-6.4378,6.9743,18.9913,7.5826,6.887
2430,-1.3795,-5.6331,6.7061,24.6957,6.8174,6.2609
2435,-1.3029,-5.3265,7.0126,27.2696,6.4696,5.287
2440,-1.7627,-4.8284,7.1276,28.6609,6.6087,3.4087
2445,-1.2263,-4.2536,7.0893,28.313,7.0261,2.5739
2450,-1.5711,-4.0236,7.1659,25.6,7.513,0.9739
2455,-1.1113,-4.062,7.4341,22.4,8.2783,0.1391
2460,-1.4179,-3.4871,7.3192,18.6435,8.6261,-0.9043
2465,-1.4945,-3.4105,7.2809,15.7913,7.9304,-0.7652
2470,-1.2646,-3.4105,7.3575,12.5217,6.6087,0.3478
2475,-1.0346,-3.4105,7.3958,10.713,4.8,0.9739
2480,-0.9963,-3.5255,7.2425,10.3652,3.3391,0.7652
2485,-0.6898,-3.7937,7.1659,11.0609,2.713,1.3217
2490,-0.4598,-3.7937,6.936,13.3565,3.0609,2.5739
2495,-0.7664,-3.947,7.0893,15.0261,3.7565,2.8522
2500,-0.5748,-4.3302,7.0126,17.0435,4.1043,4.0348
2505,0.2682,-4.4835,7.4341,18.4348,4.5217,4.2435
2510,-0.7664,-4.5984,7.2809,20.1043,4.9391,3.3391
2515,-0.4598,-4.6368,7.6641,21.0087,4.5913,5.4261
2520,-1.1496,-4.4835,8.0473,20.6609,3.7565,7.2348
2525,-0.4598,-4.5601,8.2389,19.3391,2.9913,9.4609
2530,-0.4982,-4.5601,8.4305,16.1391,2.9217,9.4609
2535,-1.0346,-4.4452,8.8137,11.6174,3.3391,8.8348
2540,-1.5711,-4.4068,8.6604,8.0,3.8957,9.5304
2545,-0.843,-4.6368,8.7754,5.6348,4.0348,10.5043
2550,-0.843,-4.8284,8.4688,5.287,4.6609,9.5304
2555,-1.1496,-4.6751,8.5454,5.3565,5.9826,7.0957
2560,-1.073,-4.5601,8.0089,5.4261,6.5391,7.4435
2565,-0.958,-4.4068,7.9323,4.3826,7.2348,7.3739
2570,-0.8047,-4.3302,8.0856,2.3652,8.0,6.9565
2575,-0.5748,-4.3685,8.2005,1.9478,8.8348,6.9565
2580,0.2299,-4.5218,8.0473,2.1565,10.1565,6.6087
2585,-0.3832,-4.2152,8.4305,1.6696,11.6174,5.0087
2590,-0.3832,-4.0236,8.4688,2.5043,13.0783,4.5913
2595,-0.2299,-3.8704,8.1622,3.2696,13.8435,5.0087
2600,-0.4598,-3.832,8.2772,3.1304,14.1913,3.7565
2605,-0.7664,-3.6787,8.1239,2.6435,14.887,3.0609
2610,-0.9963,-3.7554,7.9323,1.8783,16.0,3.2696
2615,-0.958,-3.5638,7.9323,0.6957,17.113,3.4087
2620,-0.9963,-3.5638,7.9706,-0.9043,18.2957,3.5478
2625,-0.6898,-3.7171,7.9706,-2.3652,19.2696,3.8957
2630,-0.5748,-3.9853,7.9706,-2.8522,19.687,3.8957
2635,-0.4982,-4.062,7.8557,-2.0174,19.6174,4.4522
2640,-0.3066,-4.3302,7.6641,-0.487,19.5478,4.313
2645,-0.7281,-4.2152,7.779,-0.4174,19.8261,1.8087
2650,-1.073,-4.1386,7.779,0.2783,19.9652,0.3478
2655,-0.9197,-4.1769,7.9706,1.1826,19.6174,-0.3478
2660,-1.1879,-3.9087,8.0089,0.6957,19.3391,-1.2522
2665,-1.3795,-3.947,8.1622,0.1391,18.713,-1.1826
2670,-1.4562,-3.7171,8.0856,0.1391,17.6,-1.1826
2675,-1.3412,-3.4871,8.1622,-0.9739,15.9304,-1.8783
2680,-1.3795,-3.2572,7.9706,-2.713,14.6087,-2.8522
2685,-1.2263,-3.4105,7.9706,-4.5913,13.7739,-3.8261
2690,-1.0346,-3.3339,8.1622,-5.2174,14.1913,-5.2174
2695,-1.3029,-3.7171,8.3155,-3.4783,15.1652,-7.4435
2700,-1.2263,-4.1003,8.3155,-2.087,16.4174,-6.4
2705,-1.3795,-4.2536,8.3921,-0.0696,17.3913,-7.0261
2710,-0.9963,-4.4452,8.5454,2.0174,18.1565,-8.1391
2715,-0.843,-4.2536,8.4305,3.8957,19.1304,-9.7391
2720,-0.9197,-4.0236,8.2772,5.0087,20.313,-11.4783
2725,-0.8047,-3.6021,8.3538,5.0087,21.4261,-12.7304
2730,-0.958,-3.1423,8.2772,5.0087,22.4696,-13.4957
2735,-1.073,-2.6824,8.3155,4.8696,23.2348,-13.4261
2740,-1.4945,-2.2226,8.2772,4.2435,22.9565,-12.5217
2745,-1.8011,-1.9927,8.4688,2.7826,21.8435,-10.3652
2750,-2.0693,-1.916,8.4688,1.113,20.5913,-8.3478
2755,-2.5675,-1.9543,8.6987,-0.6957,18.713,-6.887
2760,-2.8357,-2.0693,8.6987,-1.7391,16.5565,-5.8435
2765,-3.1806,-2.2609,8.6604,-2.7826,14.6783,-5.6348
2770,-3.3339,-2.5675,8.6221,-3.8261,13.0783,-6.1217
2775,-3.5255,-2.7974,8.3155,-5.0087,11.2696,-7.513
2780,-3.2572,-2.9123,8.2772,-6.1913,9.2522,-9.6696
2785,-3.2189,-2.989,8.3155,-7.5826,7.2348,-12.4522
2790,-2.989,-3.2572,8.3155,-8.6261,5.1478,-14.8174
2795,-2.989,-3.3339,8.3538,-8.6957,3.5478,-16.487
2800,-2.4525,-3.3722,8.2389,-7.7217,2.7826,-17.8087
2805,-2.2609,-3.3339,8.1622,-6.4696,3.2696,-18.9217
2810,-2.1459,-3.2572,8.2772,-4.1043,4.3826,-20.8696
2815,-1.8777,-2.989,8.3155,-4.1043,5.8435,-18.6435
2820,-1.8011,-2.7591,8.9286,-4.9391,6.2609,-17.9478
2825,-1.3412,-2.5291,8.7754,-4.2435,6.4,-17.0435
2830,-1.0346,-2.4142,8.5838,-3.9652,6.9565,-15.3739
2835,-1.4179,-2.0693,8.5454,-4.8696,8.3478,-13.1478
2840,-1.3412,-2.0693,8.6604,-5.913,10.087,-9.6
2845,-1.7627,-2.0693,8.4688,-6.1913,12.1043,-4.4522
2850,-1.7244,-2.5675,8.5454,-6.7478,13.913,0.0
2855,-1.916,-3.0273,8.6604,-7.1652,14.6783,3.4087
2860,-1.8777,-3.6404,8.8137,-6.4,14.8174,5.3565
2865,-2.1076,-3.9853,8.7754,-3.8261,14.0522,6.5391
2870,-2.2609,-4.2919,8.6604,-0.6957,12.5913,6.8174
2875,-2.4908,-4.5984,8.5454,1.9478,10.9913,6.6783
2880,-2.3759,-4.8284,8.4688,3.4783,8.9739,5.7043
2885,-2.2226,-4.8667,8.4688,4.7304,6.887,4.4522
2890,-2.2992,-4.6751,8.0856,6.4,5.2174,2.7826
2895,-2.1076,-4.2536,7.894,8.3478,3.4783,2.3652
2900,-2.1076,-3.9853,7.7407,10.5043,2.713,2.2957
2905,-2.3375,-3.6404,7.894,11.2,1.7391,2.3652
2910,-1.9543,-3.6404,7.894,12.9391,0.9043,3.3391
2915,-2.1076,-2.9123,7.9323,12.0348,0.7652,1.8087
2920,-1.8777,-2.7207,7.8173,10.0174,1.4609,0.8348
2925,-1.9927,-2.4908,8.1622,7.4435,2.4348,0.4174
2930,-1.9927,-2.4142,8.2772,6.2609,3.8261,0.7652
2935,-2.4908,-2.1459,8.6604,5.4957,4.9391,1.8087
2940,-2.1076,-2.3759,8.852,6.4,5.4261,3.4087
2945,-2.4142,-2.5291,8.967,7.1652,5.287,5.2174
2950,-2.2226,-2.7207,9.1202,9.113,4.0348,8.0696
2955,-1.9927,-3.2189,8.852,9.8783,2.3652,8.9043
2960,-1.6861,-3.7171,8.9286,10.2957,1.1826,8.6261
2965,-1.8011,-3.9853,9.0053,11.4783,-0.5565,9.0435
2970,-1.7244,-4.2919,8.6604,14.5391,-2.5043,9.3913
2975,-1.1879,-4.79,8.5071,18.087,-3.687,9.6696
2980,-1.3029,-5.0583,8.6987,20.2435,-5.2174,7.3043
2985,-0.6898,-5.4415,8.4305,20.5217,-6.9565,3.8261
2990,-1.3412,-5.4415,8.2005,20.2435,-7.5826,-0.487
2995,-1.3029,-5.6331,8.3155,20.7304,-8.6957,-2.2957
