timestamp,accX,accY,accZ,gyroX,gyroY,gyroZ
0,6.4761,-24.5633,1.4179,-23.9304,-23.513,32.0696
5,6.3612,-24.2184,1.2263,-16.8348,-23.1652,37.0087
10,5.2116,-23.0305,0.958,-10.0174,-22.1913,40.4174
15,3.9853,-21.6893,0.6898,-3.3391,-21.7043,42.713
20,3.1039,-20.1948,0.4215,3.9652,-22.5391,44.3826
25,2.3759,-18.5854,0.3066,10.2261,-23.513,44.7304
30,1.1879,-16.8226,0.5365,16.1391,-23.0261,43.8957
35,-0.2299,-15.3664,0.6898,22.2609,-23.4435,43.7565
40,-0.7281,-14.1785,0.6514,28.5217,-25.8087,43.8957
45,-1.4179,-12.6074,0.8814,33.113,-26.9913,44.2435
50,-1.8011,-11.4578,0.9963,36.8,-26.8522,45.2174
55,-2.2226,-10.4614,1.3412,38.5391,-27.0609,46.3304
60,-2.7591,-9.4651,1.4945,39.5826,-27.7565,46.3304
65,-2.7974,-8.6221,1.3412,40.8348,-29.4261,45.913
70,-3.0656,-7.6257,0.9963,40.9043,-30.5391,44.4522
75,-2.9123,-6.5528,0.9197,38.9565,-30.6087,42.2957
80,-2.4525,-5.4032,0.7664,37.4261,-30.9565,40.2087
85,-1.6095,-4.5218,0.6131,36.2435,-31.0261,38.0522
90,-0.6131,-3.4105,0.115,33.8783,-30.7478,34.0174
95,0.0766,-2.5675,0.2682,29.2174,-29.6348,28.313
100,0.9963,-1.9543,-0.4215,23.8609,-28.7304,21.287
105,1.8011,-1.1113,-1.2646,18.9217,-29.0087,13.5652
110,2.4908,-0.3449,-1.8394,13.0783,-28.3826,5.4957
115,2.9123,0.4982,-2.0693,9.6,-28.0348,-2.0174
120,2.7974,1.2263,-2.1843,7.6522,-27.9652,-9.3217
125,2.1843,1.916,-2.3375,7.2348,-29.0087,-15.7217
130,2.031,2.4142,-2.6824,6.5391,-31.1652,-19.687
135,1.6478,2.874,-2.9507,3.4783,-32.7652,-22.8174
140,1.3795,2.9123,-2.9507,-2.1565,-32.9739,-25.4609
145,1.2263,2.3759,-2.989,-8.5565,-32.2087,-27.9652
150,1.1113,1.7627,-2.9123,-13.287,-30.3304,-29.913
155,0.4598,0.8047,-2.9507,-15.513,-27.7565,-31.6522
160,0.6898,-0.2299,-3.1039,-14.5391,-25.113,-33.4609
165,0.6131,-1.3412,-2.9123,-11.4783,-22.3304,-36.1043
170,0.4982,-1.7244,-2.7591,-5.5652,-18.6435,-39.0261
175,0.5365,-1.8011,-2.874,3.3391,-13.6348,-40.6957
180,0.6898,-1.9927,-3.1039,13.287,-6.8174,-41.3217
185,0.7281,-1.8777,-3.1039,21.8435,1.3913,-41.1826
190,0.6898,-1.5711,-3.3722,28.8,10.0174,-40.2087
195,0.7281,-1.5328,-3.3339,34.1565,18.3652,-38.9565
200,0.6898,-1.5328,-3.1806,38.1217,26.0174,-37.0783
205,0.8814,-0.958,-3.3339,41.6,32.487,-34.9913
210,0.5365,-0.843,-3.0656,44.5217,37.913,-32.9043
215,0.5748,-0.3066,-3.2189,47.2348,41.4609,-30.1913
220,0.4598,0.1916,-3.1039,48.9043,44.1043,-27.2696
225,0.3449,0.5748,-2.874,49.8783,45.913,-24.5565
230,0.3449,0.9963,-2.8357,49.6696,46.4,-21.6348
235,0.8814,1.5328,-3.2189,47.2348,46.2609,-18.713
240,1.1879,1.8394,-3.8704,41.8087,46.1217,-15.8609
245,1.4945,1.6478,-4.9433,33.0435,46.1913,-12.5217
250,1.073,0.6898,-5.978,20.313,47.0957,-8.3478
255,0.6514,-0.9197,-7.779,2.5043,46.2609,-2.0174
260,0.1533,-2.7974,-9.4651,-20.8,40.8348,5.7043
265,-1.1113,-4.8667,-10.3465,-49.6,31.7217,13.2174
270,-2.7591,-7.5874,-9.7334,-84.2435,25.4609,21.2174
275,-4.1769,-10.653,-8.7754,-119.1652,21.9826,33.1826
280,-3.7554,-14.4468,-8.0473,-146.8522,20.8,49.0435
285,-3.6021,-19.0452,-7.2425,-162.713,25.3913,64.1391
290,-2.9507,-23.2604,-6.0546,-163.4087,32.9043,75.2
295,-0.958,-27.0541,-4.5601,-143.8609,40.9043,82.4348
300,1.0346,-29.3534,-3.1039,-101.287,45.913,84.3826
305,3.2572,-30.0048,-2.7591,-43.2696,45.0087,77.0087
310,4.3685,-27.9355,-3.4105,14.3304,40.5565,59.8261
315,5.0966,-24.2568,-4.5218,56.0,37.2174,38.6087
320,4.1386,-19.1985,-4.7517,72.4174,39.9304,17.3217
325,3.0273,-15.0599,-4.2152,65.7391,46.1913,-0.2087
330,1.4179,-11.8793,-2.5291,48.0,53.4261,-13.2174
335,-0.958,-10.2698,-1.4179,27.8957,57.4609,-22.1913
340,-1.5711,-9.81,-0.7664,8.6957,58.0174,-25.3217
345,-1.0346,-10.8063,-0.4982,-7.7217,58.8522,-25.1826
350,-0.843,-13.1439,-0.4215,-21.9826,59.4783,-23.5826
355,-1.2263,-16.0945,-0.1916,-33.1826,58.3652,-21.2174
360,-1.8777,-19.0452,0.115,-40.3478,57.113,-18.3652
365,-2.1459,-21.7659,0.7664,-43.6174,56.9739,-16.4174
370,-2.5291,-23.9885,1.9927,-43.8261,58.9217,-15.3739
375,-2.4142,-25.6363,2.5675,-40.8348,62.0522,-14.4
380,-1.7244,-26.7859,2.7974,-35.7565,66.5739,-13.5652
385,-0.8047,-27.5906,2.874,-30.6783,71.7913,-14.4
390,-0.2682,-27.514,2.8357,-24.2783,76.2435,-17.6696
395,0.2682,-26.5943,2.5291,-15.0261,78.887,-22.2609
400,0.7281,-25.2531,2.3375,-5.287,78.9565,-27.4783
405,1.1879,-23.6053,1.916,3.1304,76.8696,-31.6522
410,1.5711,-22.0342,1.8011,8.8348,73.2522,-34.2261
415,2.2226,-20.5014,2.3759,11.7565,68.5217,-35.2
420,3.1423,-18.547,2.3759,16.0,63.3739,-35.4087
425,3.4105,-16.7843,2.7974,20.3826,58.9217,-35.8957
430,3.8704,-15.5964,3.2572,23.3043,55.8609,-35.8261
435,4.1769,-14.2935,3.0273,26.4348,54.0522,-35.2
440,4.4452,-13.3738,2.7207,27.1304,53.7043,-35.0609
445,4.4068,-12.5307,2.2609,24.2783,55.0261,-35.4783
450,4.2152,-11.3811,1.9543,20.6609,58.4348,-36.0348
455,4.5984,-10.5764,1.4945,19.2696,63.4435,-36.6609
460,4.2536,-9.1969,0.6898,17.113,68.8696,-38.6087
465,3.6787,-8.4688,0.5365,11.4087,73.4609,-40.1391
470,3.0273,-7.7407,0.5365,2.6435,76.9391,-40.4174
475,2.0693,-7.2425,0.2299,-6.7478,79.3043,-38.7478
480,1.2263,-6.5145,0.5365,-14.1217,80.2087,-34.5739
485,0.5748,-5.2499,0.2682,-17.1826,79.2348,-27.3391
490,0.3066,-3.832,-0.7664,-18.2957,78.3304,-18.8522
495,-0.4982,-2.0693,-1.5328,-22.4696,78.9565,-10.713
500,-1.1496,-0.1916,-2.8357,-32.0,79.8609,-3.4087
505,-1.7244,1.0346,-3.4871,-48.8348,80.2783,3.1304
510,-2.031,1.9543,-4.0236,-71.2348,79.6522,8.487
515,-1.8011,2.2226,-4.4452,-95.7913,77.2174,12.8696
520,-1.7627,2.0693,-4.8284,-119.0957,73.8783,16.8348
525,-1.8011,1.7244,-4.8667,-136.3478,69.4957,21.4261
530,-1.4945,0.7664,-4.9433,-143.6522,63.6522,25.3217
535,-1.8777,0.0766,-4.8667,-140.1043,55.2348,27.6174
540,-1.8011,-0.5748,-5.2499,-127.0957,44.5913,29.3565
545,-1.916,-1.3029,-5.1349,-108.8,33.8783,30.4
550,-1.9927,-1.8394,-5.02,-89.0435,24.0,29.7043
555,-2.5675,-1.4945,-5.2882,-70.4696,14.8174,28.3826
560,-2.6058,-1.3795,-4.9816,-56.9739,6.8174,27.8261
565,-2.6441,-1.6478,-4.6368,-48.6261,-1.3913,25.8783
570,-2.7591,-1.3795,-4.1003,-43.8957,-9.5304,23.0261
575,-2.6058,-1.1879,-3.3722,-40.9739,-16.2783,20.5913
580,-2.4908,-0.5365,-2.9123,-39.0957,-21.2174,18.9913
585,-1.6861,0.3066,-2.1459,-38.5391,-23.6522,18.087
590,-0.6898,1.0346,-1.5328,-39.3043,-22.4696,17.8783
595,0.3066,2.031,-1.1113,-41.9478,-18.2261,18.1565
600,1.3795,2.6441,-0.8047,-46.887,-12.1739,18.6435
605,1.9927,2.8357,-0.6514,-53.3565,-6.3304,19.2
610,2.6824,2.9123,-0.843,-61.287,-1.2522,19.687
615,3.0656,2.874,-1.1113,-68.313,2.8522,20.0348
620,3.0656,2.6058,-1.3029,-73.5304,5.2174,19.6174
625,2.5675,2.031,-1.8011,-75.9652,5.7739,18.3652
630,1.6095,1.3795,-2.2226,-76.7304,4.1739,16.1391
635,0.4598,0.7664,-2.9507,-76.313,0.9043,14.4
640,-0.3832,0.2682,-3.6787,-76.8,-3.1304,12.2435
645,-1.073,-0.8047,-4.4068,-78.8174,-8.0696,10.2261
650,-1.4179,-1.8011,-5.0966,-81.8783,-13.1478,8.487
655,-1.7627,-2.6824,-5.7097,-85.0783,-17.7391,6.6087
660,-2.1076,-3.832,-6.0546,-87.7217,-21.5652,4.2435
665,-2.6058,-5.0583,-6.0546,-89.113,-25.3217,1.6696
670,-3.2572,-6.1313,-5.748,-88.6957,-28.8696,-1.7391
675,-4.1386,-7.2809,-5.0583,-87.1652,-33.2522,-5.0087
680,-4.9816,-8.0856,-4.5601,-84.2435,-39.0261,-8.1391
685,-5.6714,-8.6221,-4.4068,-79.2348,-45.9826,-10.713
690,-5.9396,-8.6987,-5.4415,-71.0957,-52.0348,-11.687
695,-6.2462,-7.7024,-6.8977,-61.287,-54.4,-10.5043
700,-5.7864,-6.1313,-9.1586,-54.1217,-51.4783,-7.4435
705,-4.4835,-4.1386,-11.6494,-54.1913,-43.1304,-2.4348
710,-2.9507,-2.989,-12.8373,-65.4609,-31.2348,3.5478
715,0.0766,-3.1806,-13.872,-90.5739,-20.4522,9.2522
720,3.1039,-4.2152,-14.6767,-125.5652,-8.6261,14.0522
725,5.2116,-6.0163,-15.788,-164.8,0.5565,17.0435
730,7.779,-9.2735,-16.8609,-200.9739,3.2696,19.4783
735,9.3118,-12.799,-16.9376,-225.7391,3.9652,16.9043
740,9.2735,-16.5927,-16.6693,-233.113,7.3043,7.6522
745,6.7827,-19.8116,-15.1365,-221.9826,13.4957,-7.9304
750,1.9543,-23.4904,-12.1859,-195.5478,19.4087,-22.887
755,-1.8394,-26.1728,-9.2352,-152.7652,18.8522,-27.2696
760,-3.2572,-26.1728,-7.5108,-96.7652,13.8435,-19.7565
765,-3.4488,-24.3334,-6.2845,-45.3565,13.6348,-9.1826
770,-3.6787,-21.5743,-4.7134,-14.6783,19.2,0.9739
775,-3.2572,-19.7733,-3.6021,-4.0348,27.687,13.2174
780,-1.8011,-18.8153,-3.0273,-6.4696,35.1304,25.2522
785,-2.2992,-18.2021,-3.6021,-17.4609,37.9826,36.1043
790,-0.5365,-19.1218,-4.0236,-31.7913,34.2261,44.313
795,0.3832,-19.9266,-4.9816,-47.3043,23.7913,48.9043
800,1.6478,-20.9995,-5.7097,-63.513,10.7826,52.8
805,2.2992,-21.8043,-6.3229,-79.5826,-4.4522,56.6261
810,2.6058,-22.7623,-6.8977,-90.8522,-21.3565,60.7304
815,1.7627,-23.452,-7.3575,-95.0261,-36.9391,64.0
820,1.4562,-24.1801,-6.8977,-92.1739,-49.113,66.1565
825,0.8047,-24.9848,-6.0546,-82.9217,-54.887,67.5478
830,0.1533,-25.5596,-5.3265,-68.8,-52.313,68.2435
835,0.0383,-26.0961,-5.0966,-50.9217,-44.4522,69.1478
840,0.4598,-26.2494,-4.6368,-31.6522,-32.8348,70.887
845,1.4562,-25.4447,-4.4068,-13.287,-19.7565,72.3478
850,2.2609,-24.6016,-4.1769,-0.0696,-6.5391,73.6696
855,3.2955,-23.2988,-3.9853,3.9652,4.2435,74.9217
860,3.6404,-22.494,-4.3685,-3.1304,10.9217,76.8696
865,3.4488,-22.6856,-4.6368,-17.3217,12.6609,79.8609
870,3.0273,-23.2221,-4.8284,-32.2783,11.8957,84.9391
875,2.4525,-23.682,-5.02,-43.2,11.0609,90.713
880,1.8011,-24.0268,-5.2116,-49.3913,11.1304,95.3043
885,1.5328,-24.1801,-4.8284,-51.4087,10.3652,98.3652
890,0.7281,-23.9502,-4.4835,-48.8348,10.1565,99.9652
895,-0.4598,-23.2604,-3.6404,-41.8087,11.4087,99.4783
900,-1.4179,-22.0725,-2.6441,-31.9304,13.0783,97.3217
905,-2.6058,-20.6163,-1.916,-20.8696,13.6348,93.4957
910,-3.8704,-18.3171,-1.1113,-9.3217,12.1043,88.9739
915,-4.2152,-15.7496,-0.7281,4.2435,8.6957,86.4696
920,-4.0236,-13.4121,-0.8814,19.8261,4.7304,84.0348
925,-3.2572,-10.883,-1.3795,33.8783,2.713,79.3043
930,-2.6441,-8.3538,-1.7244,43.3391,4.0348,71.8609
935,-2.1459,-5.863,-1.6478,48.0696,7.0261,63.7913
940,-1.0346,-3.0273,-1.5711,47.7913,10.5739,55.0261
945,0.843,-1.1113,-1.073,43.4087,15.3043,45.5652
950,3.0273,0.5365,-1.3029,35.5478,23.5826,33.7391
955,5.2116,1.3412,-1.4945,24.1391,36.3826,19.2696
960,5.978,2.031,-1.2263,12.2435,51.6174,3.7565
965,6.3995,2.7974,-1.5328,2.7826,62.9565,-9.9478
970,6.821,3.4105,-1.916,-2.2957,69.9826,-20.5913
975,6.7827,4.1003,-2.6441,-3.0609,74.8522,-28.1739
980,6.3612,4.905,-3.2955,-1.7391,79.6522,-32.2087
985,5.1349,5.6714,-3.7937,0.9739,83.3391,-31.0957
990,4.0236,5.7097,-4.3302,2.8522,86.0522,-26.6435
995,3.1039,5.5948,-4.5984,1.8783,88.1391,-21.2174
1000,2.2992,5.0966,-4.9433,-2.6435,90.9913,-15.8609
1005,1.1879,4.4452,-4.3685,-9.0435,95.2348,-12.3826
1010,0.5748,3.2572,-4.062,-13.7739,99.3391,-10.2261
1015,0.1533,2.7591,-3.4105,-15.6522,103.9304,-9.113
1020,-0.3066,1.8011,-2.7207,-15.3043,109.4957,-9.0435
1025,-0.7281,1.1496,-2.2226,-12.5217,115.4087,-8.8348
1030,-0.843,0.7664,-2.0693,-8.0696,120.0,-8.4174
1035,-0.8814,0.6898,-2.0693,-3.8261,124.2435,-7.9304
1040,-1.1496,0.5748,-1.6095,-0.3478,127.4435,-7.0957
1045,-1.2263,0.4598,-1.3795,2.1565,129.2522,-6.2609
1050,-1.4562,0.4598,-0.958,2.6435,130.1565,-5.8435
1055,-1.3029,0.4982,-0.5748,1.5304,130.8522,-5.7043
1060,-0.5365,0.8047,-0.3832,0.9043,131.2696,-5.7739
1065,-0.5748,0.9963,-0.6898,1.9478,131.8957,-6.1913
1070,-0.115,1.5711,-1.073,3.7565,133.0087,-6.7478
1075,0.2299,2.1459,-1.5711,5.3565,133.8435,-7.9304
1080,0.4598,2.874,-1.9927,5.1478,134.4,-9.9478
1085,0.8047,3.2955,-2.3759,2.9217,135.0261,-12.3826
1090,0.958,3.7171,-2.9507,-1.1826,136.0,-15.0261
1095,1.1113,4.0236,-3.5638,-7.0957,137.0435,-17.9478
1100,1.0346,4.1769,-3.9087,-14.8174,138.087,-20.8696
1105,1.1113,4.1003,-4.3302,-23.3043,139.7565,-23.1652
1110,1.4562,3.832,-4.5984,-32.6261,142.8174,-24.487
1115,1.3412,3.0656,-5.02,-41.3913,146.9913,-25.113
1120,1.6478,2.1843,-4.79,-46.7478,150.887,-25.6696
1125,1.4562,1.3029,-4.6368,-48.3478,155.7565,-26.3652
1130,1.6478,0.5748,-4.1769,-44.8696,161.0435,-26.5739
1135,1.6095,0.1916,-4.2536,-39.3043,165.0087,-25.9478
1140,1.6478,0.0383,-3.9087,-33.1826,168.6957,-25.3913
1145,1.6478,0.0766,-3.7171,-28.4522,171.8957,-25.6
1150,1.7244,0.1533,-3.6404,-25.7391,174.5391,-26.9913
1155,1.4945,-0.115,-4.1003,-24.2087,177.3217,-28.5913
1160,1.0346,0.115,-4.2919,-22.887,181.5652,-30.8174
1165,0.9963,0.3066,-4.8284,-21.913,187.2,-33.9478
1170,0.2299,0.115,-5.02,-22.0522,192.8348,-37.4261
1175,0.0766,0.1533,-5.2882,-19.9652,196.6609,-40.7652
1180,0.0,0.0383,-5.5564,-15.7913,199.3043,-45.287
1185,-0.1916,0.4215,-5.9396,-13.4261,201.6,-49.3217
1190,-0.2682,0.0766,-6.0929,-11.4783,201.8087,-51.4783
1195,-0.0383,0.2682,-6.4761,-9.113,198.1217,-52.5913
1200,0.0383,0.3066,-6.5145,-10.8522,193.2522,-52.5913
1205,0.6898,0.4982,-6.6677,-12.8696,185.6696,-51.6174
1210,0.7281,0.4598,-6.2462,-19.2,179.4087,-51.0609
1215,0.9197,0.6514,-5.5948,-27.5478,174.0522,-48.8348
1220,1.1496,0.6898,-4.5984,-37.0087,167.8609,-46.9565
1225,1.7627,0.8047,-3.947,-43.8261,160.0696,-45.7739
1230,2.4142,0.5748,-3.4488,-47.1652,152.0696,-45.0783
1235,3.4105,1.1879,-4.2536,-46.4696,145.6,-44.6609
1240,3.2955,0.3832,-4.1003,-46.6783,143.2348,-43.8261
1245,3.6021,0.1533,-4.5601,-40.2783,139.687,-44.5913
1250,3.947,-0.4982,-4.8284,-31.1652,139.6174,-46.0522
1255,3.9853,-0.3449,-5.0966,-23.0957,143.7217,-49.3217
1260,4.0236,-0.1916,-5.02,-19.1304,150.5391,-53.4957
1265,3.9853,0.1533,-4.9816,-19.4087,158.9565,-58.3652
1270,3.6787,0.3449,-4.4452,-23.0261,168.2087,-63.0957
1275,3.7937,0.0383,-3.6404,-28.1043,176.6261,-67.5478
1280,3.832,0.0766,-2.7207,-33.1826,183.6522,-71.7217
1285,3.6404,-0.0766,-1.9543,-37.4957,188.7304,-75.687
1290,3.0656,-0.3066,-1.3795,-40.3478,191.5826,-79.6522
1295,3.0656,-0.7664,-1.2263,-40.8348,192.2087,-81.9478
1300,2.8357,-1.4179,-1.1496,-40.0696,191.5826,-83.4783
1305,2.3759,-2.3375,-1.1113,-37.7739,189.3565,-84.2435
1310,1.6478,-3.1806,-0.3449,-33.8783,185.113,-83.9652
1315,1.1113,-4.4452,0.1533,-27.2,179.2,-83.2
1320,0.2299,-5.6331,0.5748,-18.2957,171.4783,-82.087
1325,-1.6478,-7.0509,1.8011,-7.7913,162.713,-80.3478
1330,-3.2572,-8.0856,1.8394,5.2174,149.8435,-77.6348
1335,-4.5218,-8.2005,1.1496,17.0435,138.0174,-74.3652
1340,-7.2425,-9.0053,2.0693,25.0435,128.8348,-70.8174
1345,-8.5071,-8.6221,0.6898,33.7391,114.9217,-70.6783
1350,-10.3465,-7.9323,-1.3029,38.7478,100.5217,-72.0696
1355,-10.3848,-6.7061,-4.905,36.7304,88.5565,-74.713
1360,-10.0016,-5.3265,-8.3538,27.4783,81.4609,-78.8174
1365,-8.5454,-4.4068,-12.1475,15.3043,76.0348,-82.3652
1370,-5.4415,-3.7171,-16.7843,1.2522,74.087,-83.8261
1375,-1.1879,-3.2189,-21.5743,-13.7043,74.5739,-85.7043
1380,3.4871,-2.6441,-28.0888,-28.3826,71.2348,-91.7565
1385,8.967,-1.1879,-36.5959,-50.0174,63.3739,-102.1217
1390,11.726,0.5748,-45.6395,-88.0,52.1043,-118.0522
1395,12.2242,1.4562,-53.6868,-146.0174,40.0,-138.2261
1400,11.5727,0.0,-60.2012,-217.2522,24.8348,-154.1565
1405,13.5654,-5.6714,-61.0059,-283.4087,14.887,-159.7913
1410,13.9103,-13.0672,-53.4568,-321.0435,17.5304,-162.2261
1415,10.9979,-17.6273,-41.3476,-334.6087,21.6348,-170.2261
1420,13.6037,-19.4284,-24.9465,-333.7739,13.7043,-174.4696
1425,15.0982,-21.651,-8.3921,-330.087,-4.0348,-173.9826
1430,14.0252,-23.1071,6.9743,-317.7739,-34.6435,-181.0783
1435,10.653,-23.0688,16.9376,-284.313,-71.3739,-190.3304
1440,5.5564,-21.536,21.9575,-231.7217,-107.4783,-190.6783
1445,-0.3066,-18.9686,23.8352,-176.7652,-137.0435,-179.8261
1450,-5.5181,-16.6693,23.452,-142.2609,-161.3217,-166.5391
1455,-9.3502,-15.9796,19.1985,-136.6261,-174.9565,-154.0174
1460,-12.4924,-17.6273,12.7607,-150.5391,-172.3826,-144.0696
1465,-17.1675,-19.1218,8.967,-160.7652,-157.9826,-137.2522
1470,-15.6347,-17.8573,6.8593,-152.487,-137.7391,-127.8609
1475,-9.6567,-12.8756,4.1003,-126.0522,-108.0348,-115.4087
1480,-0.9197,-4.8667,2.5675,-95.0957,-73.3913,-105.1826
1485,5.748,3.7171,1.5328,-79.0957,-46.887,-97.9478
1490,11.3428,12.1092,2.1459,-90.4348,-22.8174,-96.7652
1495,19.505,18.0872,2.4142,-122.7826,0.2783,-100.8696
1500,91.2023,39.1634,-11.9176,-131.687,-38.9565,-133.287
1505,9.2735,36.9791,-6.3995,-268.7304,-290.8522,-324.6609
1510,31.0395,31.461,-1.1879,-410.713,-201.3217,-347.9652
1515,40.3896,31.9208,-17.8956,-314.9217,-215.0957,-333.3565
1520,24.41,24.4867,-27.2841,-225.5304,-233.7391,-358.0522
1525,29.6982,28.357,-33.5303,-192.487,-229.0783,-354.087
1530,21.7276,25.368,-30.8479,-176.487,-222.6087,-336.1391
1535,17.5124,17.5507,-29.5066,-178.6435,-182.1913,-297.7391
1540,8.3155,14.2552,-27.8972,-207.4435,-105.9478,-232.0696
1545,8.0473,1.3795,-21.8043,-249.113,-53.6348,-147.2
1550,25.6363,9.6184,-29.8132,-237.1478,4.4522,-97.6
1555,34.8715,20.2714,-39.5082,-217.7391,7.7913,-87.7217
1560,26.0961,22.8389,-40.5429,-205.4261,14.6783,-78.8174
1565,42.6122,14.2552,-36.5193,-199.2348,7.9304,-70.3304
1570,19.0835,21.2295,-44.6432,-203.7565,-26.4348,-89.3913
1575,20.2714,19.2751,-42.5739,-195.4087,-24.4174,-99.4087
1580,17.0525,11.841,-39.6232,-183.1652,-9.8087,-102.887
1585,17.2441,2.6824,-31.7675,-155.1304,21.6348,-99.9652
1590,17.589,1.4179,-25.2531,-120.3478,52.9391,-96.5565
1595,13.6037,0.0,-19.1602,-91.9652,81.3217,-95.1652
1600,14.7533,-0.4982,-13.5271,-68.5913,111.7217,-94.1217
1605,15.4814,-3.4871,-8.9286,-40.0696,136.4174,-85.287
1610,13.1822,-4.2536,-6.821,-5.287,149.1478,-70.5391
1615,12.1092,-5.02,-6.2462,33.5304,155.3391,-49.5304
1620,7.5491,-1.6095,-6.5145,66.1565,158.4696,-30.8174
1625,4.3685,-0.7281,-6.9743,87.2348,151.2348,-14.1217
1630,3.0273,1.6478,-5.7097,100.1739,144.1391,6.3304
1635,1.1113,2.8357,-4.5601,108.0348,128.1391,27.1304
1640,1.3412,4.2536,-2.9123,109.7043,105.0435,47.7217
1645,1.1879,6.6294,-2.874,106.8522,70.2609,58.4348
1650,0.6131,8.6987,-3.3339,97.3913,30.2609,60.3826
1655,-0.7664,7.6257,-3.3339,84.313,-10.5739,57.7391
1660,1.916,7.2042,-3.9087,75.6174,-39.0957,60.7304
1665,1.6861,6.6677,-4.2536,67.0609,-55.9304,58.9913
1670,2.7591,5.5181,-4.8667,61.6348,-70.7478,55.7913
1675,5.0966,6.0929,-5.978,58.5043,-79.0957,52.6609
1680,4.8284,5.4032,-5.978,52.1043,-79.7217,46.887
1685,5.748,5.4798,-5.9013,46.1217,-75.8957,42.3652
1690,7.3575,5.748,-6.2079,43.1304,-72.2783,38.4696
1695,6.7061,5.9013,-6.4378,38.1913,-70.5391,31.3739
1700,5.5948,5.3265,-5.9396,31.7217,-71.0261,26.9913
1705,7.0509,5.7864,-6.0163,26.5043,-70.6783,25.8087
1710,6.821,5.6714,-5.6714,21.8435,-68.8,24.1391
1715,6.3995,5.5564,-5.2882,16.0696,-65.113,22.6087
1720,6.3995,6.0929,-5.6714,10.1565,-61.4261,21.2174
1725,6.0546,5.8247,-5.7097,3.6174,-60.2435,19.2
1730,6.3229,5.6714,-5.0966,-2.713,-57.0435,19.6174
1735,6.1696,5.4415,-5.02,-8.0696,-52.1043,19.8261
1740,6.0929,5.5948,-5.0966,-12.6609,-47.8609,19.8261
1745,6.1696,5.3648,-5.5181,-15.7217,-47.1652,17.8087
1750,5.863,5.5948,-6.2845,-17.2522,-47.0261,14.8174
1755,5.5564,5.4415,-6.7061,-20.6609,-48.5565,11.9652
1760,5.0966,5.2116,-6.7061,-25.7391,-49.0435,10.2261
1765,5.8247,4.5984,-6.7061,-29.5652,-49.7391,9.5304
1770,6.3612,5.0583,-7.0126,-31.513,-50.1565,9.2522
1775,5.978,5.3265,-7.2425,-33.8783,-51.4087,7.8609
1780,5.1732,4.2919,-6.6294,-38.0522,-53.4957,7.3739
1785,3.947,3.9853,-6.2845,-38.7478,-58.0174,6.9565
1790,3.3722,4.062,-6.2462,-34.6435,-61.4261,6.7478
1795,3.6404,3.6021,-6.7061,-26.4348,-63.7217,8.5565
1800,3.2955,3.2189,-6.7444,-21.0783,-66.087,8.6957
1805,3.7171,3.7554,-7.1276,-17.7391,-68.8696,11.2696
1810,4.4835,3.1423,-6.936,-16.1391,-70.5391,11.5478
1815,5.2116,4.2152,-7.2425,-15.4435,-69.8435,10.4348
1820,5.5564,3.6787,-7.3192,-15.0261,-69.4261,8.1391
1825,5.3265,4.5601,-7.7407,-11.9652,-69.0783,5.913
1830,4.905,4.1769,-8.0856,-10.2957,-68.8696,2.2957
1835,5.863,5.2882,-8.9286,-9.1826,-69.913,-0.3478
1840,6.2462,6.0546,-9.1202,-9.4609,-68.5913,-5.0087
1845,6.0546,6.5145,-9.1586,-9.7391,-62.887,-8.1391
1850,5.8247,7.1276,-9.3502,-10.6435,-54.4696,-11.4087
1855,4.8284,7.3192,-8.8137,-11.9652,-46.887,-13.2174
1860,4.905,7.3958,-8.6221,-10.2261,-42.9913,-11.7565
1865,3.9853,7.6641,-9.0053,-8.6957,-41.8087,-11.2696
1870,4.4068,7.5491,-9.3885,-6.9565,-40.8348,-9.8783
1875,4.79,7.894,-10.1166,-6.0522,-38.7478,-9.6
1880,5.1349,8.0856,-10.1932,-7.0261,-36.5217,-11.2
1885,5.6331,7.3192,-10.2698,-7.7217,-34.2261,-12.5913
1890,6.0163,6.9743,-10.6147,-7.3739,-31.513,-11.9652
1895,5.9013,6.9743,-10.9596,-8.0696,-28.8,-11.5478
1900,5.5564,7.0126,-10.883,-8.9043,-24.8348,-11.4087
1905,5.7864,7.1276,-11.6111,-8.6957,-22.5391,-10.7826
1910,3.6787,6.8977,-11.1512,-11.4087,-23.4435,-10.2261
1915,2.2226,5.2116,-10.6914,-11.7565,-22.8174,-9.2522
1920,4.3685,3.3722,-11.0363,-7.513,-19.2696,-6.4
1925,4.6368,2.7974,-11.1512,-3.9652,-16.7652,-4.5913
1930,4.3685,2.874,-10.6147,-2.4348,-15.3043,-2.713
1935,4.4452,2.9123,-10.4614,-0.1391,-14.5391,-0.9739
1940,4.1003,2.874,-10.5764,2.3652,-14.6087,0.4174
1945,4.3685,2.7207,-10.653,5.913,-12.8696,4.0348
1950,4.062,2.7591,-10.4231,7.9304,-13.0783,4.0348
1955,4.062,2.2992,-10.1549,7.8609,-15.0957,4.6609
1960,4.1769,2.2226,-10.0016,8.1391,-16.8348,5.2174
1965,3.832,2.4142,-9.9633,8.487,-19.2696,5.5652
1970,4.0236,2.2226,-9.6184,8.6957,-21.287,5.8435
1975,3.947,1.9927,-9.7717,10.087,-23.2348,5.5652
1980,3.7171,1.916,-9.7334,11.6174,-25.0435,6.0522
1985,3.947,1.6478,-9.5418,12.313,-26.5043,7.2348
1990,4.1003,1.6861,-9.3885,12.4522,-27.4783,7.6522
1995,4.2536,1.4945,-9.4651,12.2435,-27.7565,8.0
2000,4.062,1.3029,-9.5418,11.8261,-28.0348,7.7913
2005,4.0236,1.5328,-9.4268,10.9217,-27.6174,7.0261
2010,3.9853,1.7244,-9.5801,9.7391,-26.713,6.1913
2015,3.947,1.5711,-9.3502,9.1826,-26.0174,5.913
2020,3.8704,1.8011,-9.2735,9.5304,-25.9478,5.7739
2025,3.4871,1.6478,-9.2352,10.3652,-26.2957,6.8174
2030,3.8704,1.4945,-9.3502,11.687,-26.4348,8.0
2035,4.1386,0.843,-9.695,12.1043,-26.2957,7.9304
2040,3.9087,1.1879,-9.81,12.0348,-25.4609,6.887
2045,3.7171,0.958,-9.695,11.8957,-24.9043,6.887
2050,4.0236,1.1879,-10.0016,12.2435,-23.4435,6.7478
2055,3.6787,1.2263,-9.81,12.4522,-21.6348,7.2348
2060,3.7554,1.0346,-9.9633,13.0087,-20.8696,8.0
2065,3.6404,1.1113,-10.1166,13.4957,-20.5217,8.8348
2070,3.7171,0.7281,-10.2698,14.1913,-19.9652,9.8087
2075,3.7171,0.6131,-10.3082,15.7217,-18.5739,10.1565
2080,3.9853,0.6131,-10.8063,16.0696,-16.4174,9.8783
2085,4.062,0.7281,-10.6914,15.2348,-13.7043,9.0435
2090,3.7171,0.9963,-10.883,14.3304,-10.9217,8.6261
2095,3.5638,0.958,-10.883,13.2174,-8.4174,8.8348
2100,3.6787,0.8814,-10.653,11.4783,-6.2609,10.1565
2105,3.6404,0.7281,-10.7297,10.087,-4.313,12.2435
2110,3.2189,1.3412,-11.0746,9.3217,-2.9217,13.7739
2115,3.6404,1.073,-11.1129,5.2174,-1.7391,17.6696
2120,4.3302,-0.0383,-10.768,3.6174,1.3217,19.0609
2125,4.1769,0.2299,-10.7297,4.3826,4.4522,17.3217
2130,4.1386,0.115,-10.6914,5.3565,6.8174,14.4
2135,4.2152,0.3449,-10.6914,6.0522,8.0,10.9217
2140,3.947,0.4598,-10.883,5.5652,9.113,7.513
2145,3.9853,0.4982,-10.6147,3.4783,10.2261,5.6348
2150,3.9087,0.5748,-10.7297,1.4609,11.4783,3.8957
2155,4.062,0.6131,-10.5764,-0.1391,12.5913,2.6435
2160,3.8704,0.8814,-10.4614,-1.6696,13.4957,1.8087
2165,4.062,0.7664,-10.3848,-3.3391,13.9826,0.9739
2170,3.9853,0.7664,-10.3848,-4.9391,14.1913,0.3478
2175,4.062,0.7664,-10.3465,-6.2609,14.1217,-0.3478
2180,3.7554,0.9963,-10.1166,-7.3043,13.9826,-0.8348
2185,3.947,0.9963,-10.1932,-8.3478,13.5652,-1.3217
2190,3.947,1.1879,-10.0782,-9.1826,12.9391,-1.6696
2195,4.062,1.2263,-9.9633,-9.8783,12.1739,-1.9478
2200,4.1769,1.1496,-10.0399,-10.1565,11.4783,-2.1565
2205,4.1386,1.1113,-9.8866,-10.3652,11.0609,-2.2261
2210,4.1003,1.073,-9.9633,-10.5739,10.5043,-2.2261
2215,4.1003,1.0346,-9.6567,-10.8522,10.0174,-2.1565
2220,4.3302,0.9197,-9.7717,-11.3391,9.3913,-2.2261
2225,4.2152,1.1113,-9.6567,-11.7565,8.9043,-2.0174
2230,4.062,1.073,-9.5801,-12.2435,8.5565,-2.1565
2235,4.2152,0.958,-9.6184,-12.6609,8.2087,-2.2261
2240,4.1003,1.073,-9.3885,-12.7304,7.8609,-2.2261
2245,4.1386,1.0346,-9.4268,-12.9391,7.513,-2.2261
2250,4.1003,1.073,-9.3885,-12.9391,7.0261,-2.1565
2255,4.1769,1.1879,-9.3502,-12.8696,6.4,-2.1565
2260,4.2152,1.3029,-9.3502,-12.6609,5.8435,-2.087
2265,4.1386,1.2646,-9.4268,-12.3826,5.0087,-1.9478
2270,4.1386,1.3029,-9.3502,-11.8957,4.2435,-1.8783
2275,4.1386,1.2646,-9.4651,-11.3391,3.4087,-1.7391
2280,4.1386,1.2263,-9.6184,-10.6435,2.6435,-1.5304
2285,4.1769,1.3412,-9.4651,-10.0174,1.9478,-1.5304
2290,4.1003,1.3795,-9.6184,-9.3913,1.0435,-1.5304
2295,4.1769,1.3029,-9.695,-8.8348,0.2783,-1.4609
2300,4.1003,1.3795,-9.5801,-8.2783,-0.487,-1.5304
2305,4.1386,1.3412,-9.5418,-7.9304,-1.1826,-1.4609
2310,4.1386,1.2646,-9.5418,-7.3739,-1.7391,-1.3913
2315,4.1769,1.3029,-9.5801,-6.9565,-2.4348,-1.3217
2320,4.1769,1.2646,-9.5418,-6.6087,-3.1304,-1.3217
2325,4.1386,1.3795,-9.81,-6.1217,-3.7565,-1.3913
2330,4.2536,1.4179,-9.6567,-5.5652,-4.2435,-1.3217
2335,4.1769,1.4562,-9.7334,-5.2174,-4.8,-1.1826
2340,4.1003,1.5328,-9.7717,-4.8696,-5.2174,-1.3217
2345,4.3302,1.4562,-9.8483,-4.5913,-5.6348,-1.2522
2350,4.1386,1.4562,-9.9633,-4.4522,-5.913,-1.2522
2355,4.1003,1.3795,-9.8483,-4.2435,-6.3304,-1.1826
2360,4.1003,1.4562,-9.8483,-3.8261,-6.6783,-1.1826
2365,4.1003,1.4945,-10.0782,-3.4087,-7.0957,-1.1826
2370,4.1003,1.4945,-10.0399,-2.8522,-7.4435,-1.0435
2375,4.062,1.4562,-10.0399,-2.5043,-7.5826,-1.0435
2380,3.947,1.5328,-10.1932,-2.1565,-7.513,-0.9739
2385,3.832,1.4179,-10.1166,-2.087,-7.3043,-0.9043
2390,3.9087,1.5711,-10.1932,-2.1565,-6.9565,-0.9739
2395,3.9853,1.4562,-10.0782,-2.1565,-6.6087,-0.9043
2400,3.9087,1.4562,-10.1166,-1.8783,-6.6087,-0.7652
2405,4.0236,1.3412,-10.1166,-1.6,-6.6783,-0.6957
2410,3.947,1.4562,-10.0782,-0.9739,-6.8174,-0.5565
2415,3.9087,1.2646,-10.1549,-0.487,-6.7478,-0.2783
2420,3.9087,1.3029,-10.2698,-0.2087,-6.4696,-0.2087
2425,3.832,1.3029,-10.0399,-0.0696,-6.0522,-0.1391
2430,3.832,1.3029,-10.1166,-0.2783,-5.4957,-0.1391
2435,3.8704,1.3412,-10.0782,-0.3478,-5.0783,-0.1391
2440,3.832,1.3029,-10.1166,-0.6261,-4.5913,-0.2087
2445,3.832,1.3029,-10.0782,-0.5565,-4.1739,-0.2087
2450,3.7171,1.2646,-10.0016,-0.6957,-3.6174,-0.2087
2455,3.9087,1.4179,-9.9633,-0.8348,-2.8522,-0.0696
2460,3.7937,1.2646,-10.0016,-1.1826,-2.4348,-0.1391
2465,3.6404,1.1879,-10.2698,-1.4609,-1.9478,-0.1391
2470,3.5638,1.3412,-9.8866,-1.6,-1.3913,-0.1391
2475,3.7171,1.1879,-10.0016,-1.6696,-1.0435,-0.0696
2480,3.7171,1.2646,-9.9633,-1.6,-0.487,-0.0696
2485,3.832,1.2646,-9.9633,-1.6,-0.0696,-0.1391
2490,3.7171,1.3029,-10.1549,-1.6,0.4174,-0.1391
2495,3.6404,1.2263,-10.1932,-1.7391,0.9739,0.0
2500,3.7937,1.1113,-10.1166,-1.8087,1.4609,0.0696
2505,3.7171,1.2263,-10.1932,-2.087,2.087,0.0
2510,3.7171,1.2263,-10.1549,-2.2957,2.7826,-0.0696
2515,3.7171,1.2646,-10.2315,-2.5739,3.3391,0.0
2520,3.9087,1.2263,-10.0016,-2.8522,4.0348,0.0
2525,3.832,1.3029,-10.1932,-2.9913,4.5913,0.0
2530,3.7554,1.2646,-10.0016,-3.1304,5.1478,0.0
2535,3.832,1.2646,-9.8483,-3.2,5.5652,-0.0696
2540,3.7171,1.3795,-9.8866,-3.2696,5.913,-0.0696
2545,3.8704,1.3029,-9.81,-3.3391,6.0522,-0.0696
2550,3.8704,1.2646,-10.0016,-3.4087,6.2609,-0.0696
2555,3.9087,1.1496,-10.0016,-3.4783,6.3304,-0.1391
2560,3.8704,1.1879,-9.8483,-3.6174,6.3304,-0.1391
2565,3.947,1.1496,-10.0399,-3.687,6.2609,-0.2087
2570,3.9853,1.1879,-9.8483,-3.8261,6.2609,-0.2087
2575,4.062,1.1879,-10.0399,-3.9652,6.1217,-0.2087
2580,4.062,1.3412,-10.0016,-4.0348,5.913,-0.3478
2585,3.9087,1.2646,-9.8866,-3.8957,5.7739,-0.3478
2590,3.9087,1.4179,-9.81,-4.0348,5.5652,-0.3478
2595,3.9853,1.3795,-10.0399,-3.8957,5.2174,-0.2783
2600,3.947,1.3029,-9.8483,-3.9652,4.8696,-0.4174
2605,4.1003,1.3412,-9.8866,-4.0348,4.5913,-0.4174
2610,4.0236,1.2646,-9.8483,-3.9652,4.1739,-0.4174
2615,4.1003,1.2263,-9.695,-3.8261,3.6174,-0.4174
2620,4.1769,1.3412,-9.7717,-3.687,3.2,-0.4174
2625,4.062,1.1879,-10.0016,-3.687,2.713,-0.5565
2630,4.1003,1.3029,-9.8483,-3.687,2.3652,-0.4174
2635,4.062,1.2263,-9.8483,-3.4783,1.9478,-0.487
2640,4.1003,1.2646,-9.8866,-3.4087,1.3913,-0.487
2645,4.062,1.2646,-9.8866,-3.4783,1.1826,-0.487
2650,4.1003,1.3029,-9.8483,-3.4783,0.9739,-0.5565
2655,4.062,1.3412,-9.9633,-3.4783,0.8348,-0.6261
2660,4.0236,1.4179,-10.0016,-3.4087,0.6261,-0.7652
2665,4.0236,1.3029,-10.0016,-3.4783,0.4174,-0.6261
2670,4.0236,1.3412,-9.81,-3.3391,0.1391,-0.6261
2675,4.062,1.073,-10.0782,-3.2696,-0.0696,-0.6261
2680,4.0236,1.2646,-9.925,-3.3391,-0.1391,-0.6261
2685,4.0236,1.2263,-9.925,-3.4783,-0.4174,-0.6261
2690,4.062,1.3795,-9.9633,-3.4783,-0.5565,-0.6261
2695,4.062,1.3795,-9.8483,-3.687,-0.7652,-0.6261
2700,4.062,1.3029,-9.7334,-3.7565,-0.9739,-0.5565
2705,3.9853,1.3795,-9.8866,-3.7565,-1.113,-0.6261
2710,3.9853,1.3412,-9.925,-3.6174,-1.6,-0.6261
2715,3.9087,1.2646,-9.9633,-3.6174,-1.8087,-0.487
2720,4.062,1.2263,-10.0016,-3.4087,-2.0174,-0.487
2725,3.9087,1.3412,-10.1932,-3.2,-2.0174,-0.487
2730,3.9087,1.5711,-10.0782,-2.9913,-2.2261,-0.3478
2735,3.832,1.3795,-9.8866,-2.9217,-2.0174,-0.2783
2740,3.9853,1.2646,-10.1166,-2.9913,-1.8087,-0.4174
2745,3.9853,1.1879,-10.1166,-2.9913,-1.7391,-0.487
2750,3.9087,1.2263,-9.9633,-3.0609,-1.5304,-0.487
2755,3.9087,1.2646,-9.9633,-3.2696,-1.3217,-0.3478
2760,3.947,1.2263,-9.9633,-3.3391,-1.2522,-0.487
2765,3.9853,1.2646,-9.9633,-3.2696,-1.1826,-0.3478
2770,3.947,1.2263,-10.1166,-3.1304,-1.113,-0.3478
2775,3.947,1.2263,-10.0399,-2.9217,-0.9739,-0.3478
2780,3.9087,1.3412,-9.81,-2.713,-0.8348,-0.4174
2785,3.9087,1.3029,-10.0016,-2.8522,-0.6957,-0.3478
2790,3.832,1.4179,-10.0782,-2.9913,-0.4174,-0.3478
2795,3.9087,1.2263,-9.8866,-3.2,-0.2783,-0.3478
2800,3.947,1.2263,-9.8483,-3.2,-0.2087,-0.2783
2805,3.8704,1.3029,-9.8483,-3.1304,-0.2783,-0.2783
2810,3.7937,1.3029,-10.1166,-3.1304,-0.4174,-0.2087
2815,3.8704,1.1879,-10.0016,-2.9913,-0.3478,-0.2783
2820,3.7937,1.3412,-10.0016,-2.9913,-0.2783,-0.3478
2825,3.7171,1.3412,-10.0399,-3.1304,0.1391,-0.4174
2830,3.947,1.4179,-10.0782,-3.3391,0.5565,-0.4174
2835,3.9087,1.3795,-10.1166,-3.2696,0.6957,-0.3478
2840,3.8704,1.3795,-10.0399,-3.1304,0.6957,-0.487
2845,3.8704,1.3412,-9.8483,-2.9913,0.7652,-0.2783
2850,3.9087,1.3795,-10.0399,-2.6435,0.9043,-0.2783
2855,3.832,1.3029,-10.0782,-2.4348,0.9739,-0.2783
2860,3.8704,1.2263,-10.0399,-2.3652,1.113,-0.2783
2865,3.8704,1.2263,-9.925,-2.5043,1.3217,-0.1391
2870,3.8704,1.4562,-9.81,-2.713,1.4609,-0.2783
2875,3.947,1.3412,-9.81,-2.9217,1.5304,-0.2783
2880,3.9853,1.073,-9.925,-2.8522,1.4609,-0.2783
2885,3.7554,1.2263,-10.0016,-2.9913,1.3913,-0.2783
2890,3.7937,1.3412,-10.0016,-3.0609,1.5304,-0.3478
2895,3.947,1.2646,-9.925,-3.2,1.6696,-0.3478
2900,3.9853,1.2263,-10.0782,-3.3391,1.7391,-0.3478
2905,3.947,1.3412,-9.8483,-3.4087,1.7391,-0.3478
2910,3.9853,1.1113,-9.9633,-3.3391,1.6,-0.2783
2915,4.0236,1.1496,-10.0782,-3.2696,1.4609,-0.2783
2920,3.947,1.3412,-9.925,-3.1304,1.2522,-0.2087
2925,3.9087,1.3029,-10.0399,-3.1304,1.1826,-0.2783
2930,3.8704,1.3029,-9.925,-2.9217,1.113,-0.2087
2935,4.0236,1.1879,-10.0782,-2.9217,1.0435,-0.2783
2940,3.9087,1.3029,-10.1932,-2.8522,1.113,-0.2783
2945,4.0236,1.3029,-10.0016,-2.9217,1.0435,-0.2783
2950,3.9853,1.2263,-9.9633,-2.8522,1.113,-0.3478
2955,3.8704,1.3029,-9.925,-2.8522,1.0435,-0.2783
2960,3.9853,1.3412,-10.0399,-2.9913,1.113,-0.2783
2965,3.9853,1.3029,-9.8866,-3.0609,1.0435,-0.4174
2970,3.9853,1.3029,-9.7717,-3.1304,0.9043,-0.4174
2975,3.9087,1.3029,-9.8483,-3.1304,0.6957,-0.2783
2980,3.947,1.2646,-10.0399,-3.1304,0.487,-0.3478
2985,3.947,1.3795,-9.925,-3.0609,0.2783,-0.3478
2990,3.947,1.2646,-9.8866,-3.0609,0.0696,-0.3478
2995,3.9087,1.3795,-9.81,-3.0609,-0.0696,-0.487
