timestamp,accX,accY,accZ,gyroX,gyroY,gyroZ
0,-0.4982,-9.7334,-1.7627,-8.7652,6.6783,-0.6261
5,-0.4215,-9.7717,-1.8777,-8.487,6.8174,-0.8348
10,-0.4982,-9.7334,-1.8394,-8.0696,6.887,-0.9739
15,-0.5365,-9.695,-1.9543,-7.8609,6.9565,-0.9739
20,-0.5748,-9.7717,-1.7244,-7.5826,6.887,-1.3217
25,-0.5365,-9.7334,-1.8394,-7.1652,6.8174,-1.3913
30,-0.5365,-9.5801,-1.8394,-6.887,6.887,-1.6
35,-0.5365,-9.7334,-1.9927,-6.7478,6.887,-1.8087
40,-0.5365,-9.81,-1.7244,-6.4,6.887,-1.8783
45,-0.5365,-9.7334,-1.8777,-5.8435,7.0957,-2.0174
50,-0.4982,-9.7334,-1.9927,-5.4261,7.2348,-2.087
55,-0.4215,-9.7717,-1.916,-4.9391,7.3739,-2.2957
60,-0.4598,-9.6567,-2.031,-4.6609,7.3739,-2.5739
65,-0.4982,-9.6567,-1.9543,-4.313,7.3043,-2.7826
70,-0.3832,-9.6567,-2.0693,-3.9652,7.3043,-3.1304
75,-0.4982,-9.7334,-2.031,-3.687,7.3739,-3.3391
80,-0.3066,-9.6184,-1.8777,-3.4087,7.2348,-3.687
85,-0.3832,-9.5801,-2.0693,-3.3391,7.1652,-3.9652
90,-0.3449,-9.7334,-2.0693,-3.1304,7.0957,-4.3826
95,-0.3832,-9.5801,-2.1843,-2.7826,7.1652,-4.5913
100,-0.3066,-9.6184,-2.1076,-2.7826,7.0261,-4.7304
105,-0.4215,-9.6184,-2.1076,-2.9217,7.0261,-4.8696
110,-0.4598,-9.7717,-2.031,-2.9913,6.887,-5.0087
115,-0.4598,-9.5801,-2.1076,-3.2,6.6783,-4.9391
120,-0.3449,-9.5034,-1.916,-3.4783,6.5391,-4.8696
125,-0.4982,-9.4268,-2.031,-3.8957,6.4,-4.6609
130,-0.4982,-9.5418,-1.9927,-4.313,6.1217,-4.5217
135,-0.4598,-9.5418,-1.9927,-4.5913,5.913,-4.2435
140,-0.4598,-9.6184,-2.1459,-4.7304,5.7043,-4.1043
145,-0.4215,-9.5034,-2.1076,-5.0087,5.4261,-3.9652
150,-0.4598,-9.4651,-2.031,-5.1478,5.3565,-3.687
155,-0.3832,-9.5034,-1.9927,-5.2174,5.287,-3.5478
160,-0.4215,-9.4651,-2.1459,-5.4957,5.2174,-3.4783
165,-0.3832,-9.4651,-2.0693,-5.7043,5.1478,-3.4783
170,-0.3449,-9.5418,-2.1459,-5.9826,5.0087,-3.4783
175,-0.4215,-9.5034,-2.031,-6.2609,5.0087,-3.6174
180,-0.3066,-9.4268,-2.1076,-6.5391,4.9391,-3.7565
185,-0.4598,-9.5418,-1.9927,-6.887,4.8,-3.8957
190,-0.3449,-9.5801,-1.916,-7.2348,4.5217,-3.9652
195,-0.4215,-9.5418,-1.9927,-7.5826,4.3826,-4.0348
200,-0.3066,-9.6184,-1.916,-7.7913,4.2435,-4.1043
205,-0.2299,-9.5418,-1.9927,-8.2783,3.9652,-4.1739
210,-0.4215,-9.5034,-2.0693,-8.6957,3.7565,-4.2435
215,-0.4215,-9.5418,-1.916,-9.113,3.4087,-4.313
220,-0.3832,-9.6567,-1.9543,-9.6,2.9913,-4.2435
225,-0.4982,-9.695,-2.0693,-10.1565,2.5739,-4.313
230,-0.4982,-9.6184,-2.031,-10.5739,2.3652,-4.313
235,-0.3832,-9.7334,-1.8777,-10.7826,2.0174,-4.2435
240,-0.3449,-9.7717,-2.031,-11.1304,1.7391,-4.313
245,-0.2682,-9.7717,-1.9927,-11.4783,1.4609,-4.1043
250,-0.4215,-9.6567,-1.916,-11.6174,1.2522,-4.1043
255,-0.4215,-9.6567,-2.0693,-11.8261,0.9739,-3.9652
260,-0.2299,-9.695,-2.031,-12.1043,0.6957,-3.8261
265,-0.3832,-9.6184,-2.031,-12.2435,0.4174,-3.4087
270,-0.3832,-9.6567,-1.9927,-12.4522,0.4174,-3.2
275,-0.3066,-9.5801,-2.031,-12.5217,0.3478,-2.9217
280,-0.3066,-9.6567,-2.031,-12.5913,0.3478,-2.5739
285,-0.2299,-9.6567,-2.031,-12.8,0.5565,-2.4348
290,-0.2299,-9.5801,-2.1076,-12.9391,0.6261,-2.1565
295,-0.115,-9.5418,-1.9927,-13.0087,0.6261,-1.9478
300,-0.1916,-9.4651,-2.1076,-13.0783,0.487,-1.9478
305,-0.2299,-9.6184,-2.0693,-13.4261,0.2783,-1.8783
310,0.0,-9.5801,-1.916,-13.4261,0.1391,-1.9478
315,-0.1533,-9.4651,-1.8777,-13.5652,-0.0696,-1.9478
320,-0.0766,-9.5418,-1.9927,-13.7043,-0.4174,-1.9478
325,-0.3449,-9.5418,-2.031,-13.8435,-0.7652,-2.0174
330,-0.0766,-9.4651,-1.9543,-14.1217,-1.2522,-2.087
335,0.0,-9.5034,-2.0693,-14.2609,-1.7391,-2.1565
340,-0.0766,-9.5034,-1.9927,-14.5391,-2.2261,-2.1565
345,-0.1916,-9.5418,-1.8777,-14.6783,-2.6435,-2.2957
350,-0.0766,-9.5034,-1.916,-14.7478,-2.8522,-2.3652
355,-0.1916,-9.4651,-1.8011,-14.7478,-2.9913,-2.5043
360,-0.1533,-9.5034,-1.916,-14.7478,-3.0609,-2.5043
365,-0.3066,-9.4651,-1.8777,-14.6783,-3.2,-2.6435
370,-0.115,-9.5801,-1.916,-14.7478,-3.2696,-2.7826
375,-0.0766,-9.5418,-1.9927,-14.887,-3.1304,-2.9217
380,-0.2299,-9.4651,-1.8394,-15.0957,-3.1304,-2.9217
385,-0.1916,-9.5418,-1.8777,-15.3043,-2.9913,-2.9217
390,-0.0766,-9.5418,-1.9927,-15.513,-3.0609,-2.8522
395,-0.0766,-9.5801,-1.9927,-15.7217,-2.9913,-2.7826
400,-0.0383,-9.4268,-2.031,-16.0696,-2.9913,-2.9217
405,-0.0766,-9.5801,-1.916,-16.1391,-2.9913,-2.9913
410,-0.0383,-9.5801,-2.031,-16.4174,-3.0609,-2.9217
415,-0.0766,-9.5034,-2.031,-16.2087,-2.9217,-2.9217
420,-0.115,-9.4651,-1.9543,-16.1391,-2.9913,-2.9217
425,-0.0766,-9.5418,-2.0693,-16.3478,-3.1304,-2.8522
430,-0.115,-9.5801,-2.1076,-16.4174,-3.2696,-2.713
435,-0.0766,-9.5034,-2.0693,-16.6957,-3.4783,-2.4348
440,-0.1533,-9.5034,-1.916,-16.9739,-3.7565,-2.5043
445,-0.1533,-9.5801,-1.9927,-17.2522,-4.0348,-2.2261
450,-0.1533,-9.5418,-1.9927,-17.1826,-4.3826,-2.087
455,-0.115,-9.5418,-1.9543,-17.3217,-4.6609,-2.1565
460,-0.1533,-9.4268,-1.8777,-17.0435,-4.8,-2.1565
465,-0.1916,-9.4651,-1.9927,-16.9739,-4.8,-2.1565
470,-0.0383,-9.5034,-2.0693,-17.113,-5.0087,-2.087
475,0.0383,-9.5418,-2.0693,-17.1826,-5.0783,-2.087
480,-0.115,-9.3885,-2.1076,-17.1826,-4.9391,-1.9478
485,-0.0766,-9.4651,-1.8777,-17.1826,-4.9391,-1.9478
490,-0.0766,-9.3885,-1.9543,-17.2522,-4.8696,-1.9478
495,0.0,-9.4268,-1.8777,-16.9043,-4.8,-1.7391
500,0.0383,-9.4268,-1.916,-16.8348,-4.8,-1.7391
505,0.0383,-9.5034,-1.916,-16.7652,-4.8696,-1.6696
510,0.0766,-9.4651,-1.916,-16.7652,-5.0087,-1.6696
515,0.0383,-9.3502,-1.8394,-16.6261,-4.8696,-1.6696
520,-0.115,-9.2352,-1.9543,-16.6957,-4.6609,-1.6696
525,0.0383,-9.3885,-1.8394,-16.9739,-4.6609,-1.6
530,0.0,-9.3502,-1.916,-17.0435,-4.5913,-1.3913
535,0.0383,-9.3118,-2.031,-17.1826,-4.5217,-1.2522
540,-0.0383,-9.3118,-1.916,-17.2522,-4.313,-1.2522
545,0.0766,-9.3118,-2.0693,-17.4609,-4.1043,-1.0435
550,-0.1533,-9.3118,-1.6861,-17.9478,-4.0348,-0.9043
555,-0.0383,-9.2352,-1.916,-18.2957,-3.9652,-0.8348
560,-0.115,-9.2735,-1.8777,-18.5739,-3.9652,-0.7652
565,0.0,-9.2735,-1.7627,-18.713,-4.1043,-0.6261
570,-0.1916,-9.2352,-1.7244,-18.9217,-4.1739,-0.5565
575,-0.115,-9.2735,-1.7627,-19.2696,-4.5217,-0.3478
580,-0.1916,-9.3118,-1.8777,-19.8261,-5.0783,-0.2087
585,-0.2299,-9.2352,-1.8777,-20.0348,-5.287,-0.0696
590,-0.115,-9.1969,-1.916,-20.313,-5.4957,0.1391
595,-0.0766,-9.2735,-2.0693,-20.5217,-5.4957,0.4174
600,-0.115,-9.2735,-1.9927,-20.9391,-5.287,0.5565
605,0.0,-9.1969,-1.9927,-21.1478,-5.0783,0.8348
610,-0.0383,-9.1586,-2.031,-21.1478,-4.8696,1.0435
615,-0.115,-9.1586,-2.1076,-21.1478,-4.4522,1.3217
620,0.0,-9.1202,-2.0693,-21.2174,-4.1043,1.3217
625,-0.0383,-9.1202,-2.0693,-21.2174,-3.4783,1.5304
630,0.0766,-9.1586,-2.1076,-21.287,-3.1304,1.6696
635,-0.0766,-9.1202,-1.8777,-21.3565,-2.5739,1.8783
640,-0.0766,-9.1969,-2.031,-21.4957,-2.2957,1.9478
645,0.0,-9.1969,-1.916,-21.4957,-1.9478,2.1565
650,0.0383,-9.1969,-2.0693,-21.5652,-1.3913,2.4348
655,0.0766,-9.2735,-2.0693,-22.0522,-1.0435,2.6435
660,0.0766,-9.1202,-1.8394,-22.5391,-0.9043,2.7826
665,0.0383,-9.0436,-2.1459,-22.8174,-0.9739,2.7826
670,0.115,-9.0436,-1.9543,-23.1652,-0.9739,2.9217
675,-0.0766,-9.0819,-2.031,-23.5826,-1.3217,3.1304
680,-0.0383,-9.1586,-2.0693,-23.7913,-1.3217,3.2696
685,-0.1533,-9.0053,-1.9927,-23.9304,-1.4609,3.4783
690,-0.2299,-9.0053,-2.1459,-23.9304,-1.5304,3.687
695,-0.2299,-9.0053,-2.031,-24.1391,-1.5304,3.8957
700,-0.1916,-9.0819,-2.1076,-24.2087,-1.3913,4.1739
705,-0.3449,-8.9286,-2.031,-24.2087,-1.1826,4.4522
710,-0.3449,-9.0436,-1.916,-24.2087,-0.9739,4.8
715,-0.3832,-9.0436,-1.9927,-24.0696,-0.6261,5.0783
720,-0.4598,-9.0053,-1.916,-24.0,-0.0696,5.0783
725,-0.3066,-9.0819,-1.8011,-23.8609,0.5565,4.8
730,-0.3449,-8.8903,-1.9927,-23.6522,1.113,4.4522
735,-0.2299,-9.0436,-1.8777,-23.3739,1.6696,3.9652
740,-0.2682,-8.967,-1.8777,-23.0957,2.2261,3.4087
745,-0.0383,-8.9286,-1.8394,-22.6087,2.713,2.8522
750,-0.0766,-8.852,-1.9927,-22.1913,3.1304,2.2261
755,0.0383,-8.737,-2.031,-21.8435,3.5478,1.6
760,-0.1533,-8.852,-1.8394,-21.4957,4.1739,0.9739
765,0.1533,-8.737,-1.7627,-21.0087,4.5217,0.5565
770,0.0383,-8.737,-1.8394,-20.313,5.1478,0.2087
775,0.0766,-8.8137,-1.8777,-19.687,5.7043,0.0
780,0.0,-8.6221,-1.6861,-19.1304,6.4,0.0
785,0.115,-8.8137,-1.6861,-18.5043,6.8174,0.0
790,0.0766,-8.8137,-1.6478,-18.087,7.2348,0.0
795,-0.0383,-8.7754,-1.6478,-17.8087,7.5826,0.1391
800,0.0,-8.6604,-1.5711,-17.8087,7.8609,0.1391
805,0.0766,-8.7754,-1.3795,-18.087,8.1391,0.1391
810,0.0766,-8.6987,-1.4562,-18.1565,8.4174,0.0696
815,-0.0383,-8.5838,-1.3412,-18.2957,8.9043,-0.1391
820,0.0,-8.6987,-1.3029,-18.2261,9.3913,-0.3478
825,0.1533,-8.6604,-1.3029,-17.8783,10.087,-0.7652
830,0.0,-8.5071,-1.2646,-17.3913,10.5739,-1.5304
835,0.1533,-8.6987,-1.1879,-16.8348,11.1304,-2.1565
840,0.115,-8.3921,-1.1496,-15.7913,11.8261,-2.8522
845,0.1916,-8.3538,-1.073,-14.4696,12.4522,-3.5478
850,0.1533,-8.3538,-0.9963,-13.3565,13.1478,-4.2435
855,0.2299,-8.2772,-0.8814,-12.1739,13.6348,-5.0783
860,0.2299,-8.3538,-0.8814,-11.0609,14.2609,-5.8435
865,0.1916,-8.2005,-0.8814,-10.2261,14.3304,-6.5391
870,0.4982,-8.1239,-0.7281,-9.5304,14.2609,-7.1652
875,0.2682,-8.0473,-0.6514,-8.9739,14.3304,-7.6522
880,0.2682,-7.8557,-0.6898,-8.6261,14.2609,-7.9304
885,0.3449,-7.7407,-0.5365,-8.2783,14.1913,-8.1391
890,0.3832,-7.6641,-0.6131,-8.2087,14.1217,-8.2087
895,0.2299,-7.6641,-0.4215,-8.2087,14.1913,-8.3478
900,0.2682,-7.6257,-0.4215,-8.6957,14.4,-8.2087
905,0.3066,-7.6641,-0.4598,-9.4609,14.9565,-7.8609
910,0.0,-7.6257,-0.4982,-10.1565,15.2348,-7.4435
915,-0.0766,-7.7024,-0.2682,-10.6435,15.3739,-6.6087
920,0.0766,-7.9706,-0.4215,-11.3391,15.2348,-5.6348
925,0.0383,-7.9706,-0.8047,-12.6609,15.4435,-4.7304
930,0.1533,-8.1622,-0.843,-14.4,15.6522,-3.7565
935,-0.0766,-8.2005,-0.7664,-16.6261,16.0,-2.713
940,0.0,-8.2389,-0.9963,-18.5739,15.6522,-1.6
945,-0.2299,-8.3538,-0.958,-20.5217,15.3739,-0.8348
950,-0.2682,-8.5838,-0.958,-22.0522,14.7478,-0.0696
955,-0.2299,-8.6604,-1.1496,-22.6087,13.7043,0.487
960,-0.2682,-8.852,-1.073,-23.0957,13.0783,0.8348
965,-0.2682,-8.7754,-1.2646,-23.3043,12.2435,1.0435
970,-0.4598,-8.9286,-1.2263,-23.7913,11.9652,0.9739
975,-0.5365,-8.9286,-1.2646,-24.2783,11.4783,1.0435
980,-0.5365,-8.967,-1.2646,-24.4174,10.6435,1.0435
985,-0.4982,-8.9286,-1.3029,-25.0435,9.9478,0.8348
990,-0.5748,-8.967,-1.5711,-26.087,9.8783,0.6261
995,-0.5748,-8.852,-1.4562,-27.4783,9.6,0.4174
1000,-0.5748,-8.8903,-1.4562,-28.8696,9.2522,0.1391
1005,-0.6898,-8.8903,-1.5711,-30.1913,8.6261,-0.2087
1010,-0.6514,-9.0053,-1.7244,-32.0,7.7913,-0.487
1015,-0.6131,-8.9286,-1.9927,-33.6,6.9565,-0.8348
1020,-0.6514,-9.0819,-2.1459,-35.5478,6.3304,-1.2522
1025,-0.6131,-9.2735,-2.2226,-37.7739,6.4,-1.8087
1030,-0.6131,-9.3118,-2.4908,-40.4174,6.6087,-2.4348
1035,-0.5748,-9.5418,-2.5675,-43.1304,6.887,-3.4087
1040,-0.6131,-9.6184,-2.9507,-45.2174,7.0261,-4.4522
1045,-0.6131,-9.81,-3.4488,-47.0957,7.0957,-5.4261
1050,-0.6131,-10.1549,-3.7937,-49.5304,7.3739,-6.1913
1055,-0.6131,-10.3082,-4.4835,-52.4522,7.513,-7.0957
1060,-0.6898,-10.653,-5.3265,-55.8609,7.5826,-8.0
1065,-0.9197,-10.8446,-6.3229,-60.1043,7.3739,-8.487
1070,-1.1496,-10.9979,-7.7407,-65.5304,7.2348,-8.4174
1075,-1.1496,-11.4578,-9.6184,-73.0435,6.887,-7.9304
1080,-1.3795,-11.7643,-11.6494,-83.0609,6.4,-6.887
1085,-1.7627,-12.1475,-13.7953,-95.2348,5.9826,-5.287
1090,-1.916,-12.6074,-16.0179,-109.6348,5.3565,-3.4087
1095,-2.1843,-13.1822,-18.2405,-126.3304,5.287,-0.9739
1100,-2.2992,-13.6804,-19.8499,-145.3217,5.7043,1.5304
1105,-2.2226,-14.3701,-20.8846,-165.7043,6.4696,3.6174
1110,-2.0693,-15.0982,-20.9229,-186.6435,7.1652,4.8696
1115,-1.6095,-15.9029,-20.2331,-205.2174,8.0696,5.1478
1120,-1.5711,-16.631,-18.7003,-218.6435,10.087,4.2435
1125,-1.7627,-17.0909,-16.8993,-225.3217,13.287,4.1739
1130,-1.6478,-17.6273,-14.715,-227.4087,16.9739,5.2174
1135,-1.6478,-17.704,-12.3775,-226.9217,20.1739,6.0522
1140,-1.4562,-17.7423,-9.81,-224.3478,22.5391,7.3043
1145,-1.073,-17.7423,-7.0509,-218.6435,24.4174,8.2087
1150,-0.8047,-17.4357,-4.5218,-208.1391,26.2261,8.487
1155,-0.6514,-17.2825,-2.1843,-191.5826,27.687,7.5826
1160,-0.6898,-16.7843,-0.7281,-169.113,28.1739,6.3304
1165,-0.6898,-15.9413,0.1916,-143.4435,28.1043,5.4957
1170,-0.6514,-14.9449,0.3449,-117.7739,27.3391,4.9391
1175,-0.2682,-13.4121,-0.3066,-95.513,26.5739,3.687
1180,-0.1916,-11.6111,-1.4945,-81.7391,26.713,1.6
1185,-0.0766,-9.8866,-2.2992,-79.1652,27.8957,-1.6
1190,0.3832,-8.5454,-2.4525,-85.2174,29.0783,-5.3565
1195,0.4982,-6.8977,-2.4908,-95.513,29.5652,-9.6696
1200,0.8047,-5.3648,-2.1843,-107.1304,29.6348,-14.2609
1205,1.1879,-3.7937,-1.8394,-117.6348,30.4696,-19.2696
1210,1.3029,-2.2226,-1.7244,-127.0957,32.2087,-24.6261
1215,1.6095,-0.6898,-2.031,-138.0174,34.4348,-29.6348
1220,1.6861,0.5748,-2.0693,-153.0435,37.7043,-34.2261
1225,1.4179,1.6861,-2.2226,-169.8783,41.6696,-37.2174
1230,1.2263,1.3412,-1.9927,-185.8783,43.7565,-38.6783
1235,1.2263,1.0346,-2.2226,-197.287,42.2957,-40.1391
1240,1.2646,0.4215,-2.6824,-202.7826,37.9826,-41.6696
1245,1.2263,-0.6131,-2.9507,-203.9652,33.6696,-43.2696
1250,1.4562,-1.6478,-3.4871,-201.113,31.9304,-45.1478
1255,1.2646,-2.2226,-3.7171,-194.7826,33.113,-46.887
1260,0.958,-3.1039,-3.9087,-185.3913,35.6174,-46.887
1265,1.073,-3.6404,-3.947,-173.913,39.0957,-45.7043
1270,0.7281,-3.6021,-4.3685,-160.9739,41.8783,-45.287
1275,0.6898,-3.4488,-4.4452,-148.9391,44.7304,-43.5478
1280,0.6131,-3.4871,-4.5218,-139.4783,47.0261,-40.9043
1285,0.4982,-3.5638,-4.4068,-132.2435,49.2522,-38.1913
1290,0.8814,-3.6021,-4.2152,-125.4957,51.2,-35.4087
1295,0.8047,-3.7937,-4.1386,-119.4435,53.0087,-33.0435
1300,0.843,-3.9087,-4.0236,-113.8087,54.7478,-30.6783
1305,1.1496,-4.062,-4.1003,-109.9826,57.1826,-28.3826
1310,1.1879,-4.5218,-3.9853,-109.4957,60.7304,-26.6435
1315,1.4179,-4.905,-3.9853,-111.0957,64.6957,-25.8087
1320,1.4945,-5.3265,-3.7554,-112.8348,69.287,-25.5304
1325,1.5711,-5.863,-3.6404,-114.5739,74.2261,-25.6696
1330,1.5711,-6.1313,-3.832,-115.7565,78.0522,-26.0174
1335,1.6478,-6.5911,-3.7554,-117.0783,80.3478,-26.713
1340,1.4945,-6.8593,-3.7937,-118.0522,81.113,-27.2
1345,1.3795,-6.9743,-3.7171,-118.6087,80.7652,-27.5478
1350,1.4179,-7.0126,-3.7171,-118.4,79.6522,-27.7565
1355,1.3029,-6.821,-3.9087,-118.0522,78.1217,-28.2435
1360,1.073,-6.5145,-4.0236,-118.887,76.5217,-28.8
1365,0.8814,-6.2079,-4.062,-121.113,75.4087,-29.4261
1370,0.5365,-6.1313,-3.9087,-124.3826,74.9913,-30.4
1375,0.3832,-5.863,-3.6021,-128.1391,74.5739,-31.0957
1380,0.1533,-5.6331,-3.5255,-131.9652,73.2522,-32.3478
1385,-0.0383,-5.2116,-3.3339,-136.6261,71.7217,-33.1826
1390,-0.115,-4.8667,-3.1806,-142.4696,70.6087,-34.0174
1395,0.115,-4.7517,-2.7207,-148.5217,69.1478,-34.5043
1400,0.3066,-4.3685,-3.1423,-154.087,67.4087,-35.3391
1405,0.6131,-4.5218,-2.5675,-159.5826,65.9478,-36.3826
1410,0.7281,-4.7134,-2.4525,-162.5043,64.6957,-37.7043
1415,1.1113,-4.5984,-2.3759,-161.3217,63.0261,-38.6087
1420,1.2263,-4.3302,-2.6441,-155.2,60.9391,-39.0957
1425,1.5711,-4.0236,-3.2189,-146.4348,57.7391,-38.3304
1430,1.8394,-4.9816,-3.3339,-137.113,53.1478,-37.3565
1435,1.6095,-5.0583,-4.79,-124.9391,47.5826,-38.4696
1440,1.8777,-5.2882,-5.1732,-109.6348,42.7826,-39.0261
1445,2.2992,-4.1386,-6.936,-88.9043,38.9565,-37.8435
1450,2.7974,-4.0236,-7.894,-69.5652,37.8435,-33.5304
1455,2.989,-3.2955,-8.2772,-52.5217,37.8435,-29.9826
1460,3.1039,-2.5291,-9.3885,-32.487,37.7043,-26.1565
1465,3.4871,-1.6478,-10.1932,-11.7565,38.887,-17.9478
1470,4.0236,-1.7627,-10.6914,6.3304,40.0,-6.0522
1475,5.0583,-2.1076,-10.768,25.3913,40.5565,4.3826
1480,5.3265,-0.4982,-12.799,47.3043,42.9913,11.8261
1485,6.3229,-0.115,-13.6804,61.7043,49.3217,19.4783
1490,6.4378,0.6131,-14.6384,66.8522,55.0261,24.9043
1495,8.4305,2.6441,-32.8405,62.0522,60.2435,29.4957
1500,9.0819,3.3339,-36.6342,-31.3043,29.9826,18.3652
1505,9.1969,7.7407,-22.5323,-227.9652,-1.3217,17.0435
1510,10.883,4.5218,-15.1748,-314.5043,-17.3913,37.6348
1515,12.3775,1.5711,-13.3355,-293.287,-32.4174,44.5913
1520,4.8284,5.4032,-14.8683,-217.6,8.6261,32.1391
1525,9.2352,12.0709,-30.3114,-183.7217,63.513,18.9913
1530,19.8882,10.9596,-10.2315,-338.6435,25.4609,5.9826
1535,16.3628,9.9633,-12.1092,-356.313,-40.9043,-4.4522
1540,10.8446,14.1402,-14.5617,-244.9391,-78.1913,-26.713
1545,7.2042,14.2552,-19.3134,-169.9478,-74.1565,-41.8087
1550,4.8284,11.2662,-16.7843,-145.7391,-69.913,-45.7043
1555,7.3575,13.7187,-26.2111,-115.687,-54.7478,-46.887
1560,2.1843,11.6111,-18.7386,-138.1565,-76.7304,-57.2522
1565,2.6058,12.684,-19.3134,-128.2783,-49.6696,-53.5652
1570,3.1039,12.9906,-21.3444,-125.1478,-18.0174,-51.0609
1575,2.0693,12.3008,-17.8956,-129.8783,5.287,-50.5043
1580,0.7281,11.4195,-19.1218,-121.2522,14.887,-51.2696
1585,-0.6131,8.8903,-18.7003,-117.0783,22.2609,-42.8522
1590,1.4562,8.4305,-22.3024,-114.2957,21.0087,-36.8696
1595,1.8777,5.5181,-21.0762,-118.8174,24.2087,-33.5304
1600,3.947,4.8284,-22.494,-122.5739,25.9478,-30.1217
1605,4.9816,4.4068,-18.2788,-132.2435,24.0,-28.313
1610,4.6368,2.5675,-18.1638,-122.5739,18.5739,-23.7217
1615,5.2882,1.8777,-18.2021,-106.7826,12.8,-18.2261
1620,5.0966,0.5365,-17.9722,-91.6174,6.1217,-14.4
1625,5.2499,-0.7664,-17.2441,-80.6261,3.1304,-10.5739
1630,5.1732,-1.8394,-16.746,-72.5565,3.9652,-6.6783
1635,4.905,-2.2226,-15.8646,-64.7652,8.0,-2.713
1640,5.4798,-2.4908,-15.4814,-55.8609,13.6348,0.2087
1645,5.0966,-2.2226,-14.9066,-48.9739,20.5913,0.6957
1650,4.6751,-1.2646,-14.6384,-45.4957,29.7043,-1.5304
1655,4.1386,-0.4215,-14.3701,-44.5913,39.7913,-7.3043
1660,4.062,0.3832,-13.7953,-44.1739,50.7826,-14.1913
1665,3.6787,0.5365,-13.3738,-44.5913,62.6783,-20.8696
1670,3.6021,1.1879,-13.7187,-45.8435,73.6696,-26.5739
1675,3.7554,0.843,-13.4504,-47.7217,83.9652,-30.9565
1680,2.9123,0.7664,-13.1439,-50.2957,93.0783,-34.2261
1685,2.6824,0.958,-12.9139,-49.4609,103.8609,-34.1565
1690,2.3759,0.5748,-12.5691,-45.913,115.1304,-36.1043
1695,2.9507,0.843,-12.4541,-44.3826,125.4957,-37.2174
1700,3.7554,0.3066,-11.8027,-42.9913,132.5217,-38.8174
1705,2.2609,1.916,-12.0709,-39.7217,136.4174,-44.313
1710,3.947,2.9507,-12.3775,-42.9913,139.2696,-44.1043
1715,3.6021,3.3339,-12.1475,-53.1478,142.1913,-39.8609
1720,3.2189,4.0236,-12.0709,-65.8783,145.0435,-33.6
1725,6.936,2.4525,-10.0016,-79.8609,147.8261,-28.0348
1730,6.7061,1.8394,-9.7717,-73.6696,155.8261,-34.087
1735,1.9543,4.062,-9.8866,-66.1565,156.6609,-42.4348
1740,3.2572,4.6751,-10.3848,-73.3217,142.1913,-38.887
1745,4.3685,4.1386,-10.1549,-76.8,134.0522,-29.7739
1750,5.2499,2.5291,-9.6184,-70.4696,133.913,-22.6087
1755,4.1386,2.9507,-10.1166,-57.9478,137.7391,-22.6783
1760,3.9087,3.6021,-10.3848,-56.2087,137.113,-21.5652
1765,4.1769,3.2189,-9.925,-62.4696,134.6783,-16.8348
1770,4.7517,2.4525,-9.3885,-68.7304,132.1043,-11.4087
1775,3.6787,1.8777,-8.2005,-70.3304,128.7652,-8.8348
1780,4.7134,1.4179,-7.0126,-64.0696,139.9652,-5.0783
1785,4.5601,1.8394,-7.0126,-52.5913,147.9652,-3.2
1790,4.905,2.4908,-7.4725,-41.6696,148.6609,-1.8087
1795,5.0583,2.6058,-7.8557,-33.113,145.3913,0.9043
1800,5.3648,2.6441,-7.7407,-26.9217,141.8435,3.9652
1805,5.1732,2.7974,-7.7407,-21.5652,137.6696,5.0783
1810,5.5564,2.989,-7.8557,-17.1826,133.3565,5.2174
1815,5.4415,3.2955,-7.6641,-15.0261,130.0174,5.4957
1820,5.4415,3.832,-7.1276,-12.0348,126.1913,6.0522
1825,5.4032,4.1769,-7.0893,-8.3478,122.087,6.0522
1830,5.4415,3.947,-6.7827,-5.3565,118.5391,6.4
1835,5.4798,4.2919,-7.0126,-4.0348,115.2696,6.9565
1840,5.4415,4.3302,-7.0893,-3.3391,111.0261,8.2087
1845,5.4798,4.2152,-7.2425,-0.6261,106.2261,10.1565
1850,5.1732,3.7937,-7.2042,3.8261,99.9652,11.9652
1855,6.3229,3.5255,-7.3192,9.5304,92.8696,13.2174
1860,6.3612,3.2955,-7.3575,14.6783,87.1652,12.4522
1865,6.0163,3.1039,-7.0893,16.7652,84.8,11.2
1870,5.3648,2.874,-6.6294,14.8174,84.9391,9.6
1875,4.8284,3.6787,-6.3995,9.8783,84.3826,7.0261
1880,5.3648,4.5984,-5.978,3.687,82.9217,4.313
1885,5.748,4.6368,-6.1313,-0.9043,80.6957,0.4174
1890,6.0163,5.0966,-6.3612,-2.4348,76.3826,-2.8522
1895,6.0929,5.1732,-6.3995,-7.3043,70.2609,-5.7043
1900,5.978,5.0583,-5.4415,-14.1217,65.3217,-7.513
1905,5.4798,4.1003,-4.6751,-14.9565,63.0957,-6.887
1910,6.2079,3.3339,-4.6751,-9.6,59.8261,-5.4261
1915,6.6677,2.9123,-4.9816,-3.2696,55.4435,-4.4522
1920,7.0893,2.6824,-5.1732,0.9043,50.5739,-3.7565
1925,7.3192,2.4525,-5.3265,3.3391,45.913,-2.9913
1930,6.6294,2.4525,-5.5564,5.5652,39.6522,-2.2261
1935,6.936,2.2992,-5.7864,9.0435,32.0696,-0.6957
1940,7.4725,1.6861,-5.9013,13.0087,25.2522,0.0
1945,7.894,2.2992,-6.2079,17.2522,19.687,0.4174
1950,7.6641,2.1459,-6.5528,20.9391,15.0261,0.1391
1955,7.1659,2.3375,-6.6294,23.7913,10.5043,0.4174
1960,7.3192,2.1076,-6.9743,25.6,6.3304,1.1826
1965,7.6641,2.1459,-7.0126,26.9913,2.713,1.113
1970,7.7407,2.1843,-7.0126,27.6174,-0.487,1.5304
1975,7.9323,1.8777,-6.9743,28.4522,-3.5478,2.1565
1980,8.0473,1.8777,-6.7827,30.2609,-6.8174,2.6435
1985,7.9323,1.6478,-7.0509,33.6696,-10.2957,2.9913
1990,7.2809,1.6861,-7.0126,37.0783,-14.8174,3.3391
1995,7.0126,1.4945,-7.1659,39.7217,-20.8696,3.4087
2000,7.0893,0.8047,-7.1659,42.087,-25.9478,3.2696
2005,7.6257,1.2646,-7.2425,43.3391,-29.6348,3.1304
2010,7.8557,1.5711,-7.1659,44.7304,-29.287,1.3913
2015,6.7444,1.7627,-7.5108,45.7043,-28.4522,-1.113
2020,6.6677,1.3412,-7.5491,44.8,-28.3826,-0.6261
2025,7.3192,1.3412,-7.3192,42.7826,-28.1043,0.5565
2030,7.3192,1.4562,-7.6641,42.9217,-28.0348,-1.2522
2035,7.1276,1.5711,-7.779,42.6435,-28.3826,-2.5739
2040,7.2042,1.9927,-8.0089,42.9913,-28.3826,-3.6174
2045,7.8173,1.916,-8.6604,42.9217,-28.4522,-5.6348
2050,7.5108,2.2992,-7.9323,41.0435,-28.5217,-6.0522
2055,7.7024,2.6058,-8.2005,39.513,-27.4783,-8.0
2060,7.1276,2.1076,-8.2005,34.9217,-27.0609,-8.6957
2065,6.7827,2.4525,-8.3155,29.2174,-28.1739,-7.7913
2070,8.0473,1.6861,-8.4305,24.6957,-29.4957,-8.0696
2075,7.1276,2.5291,-8.3155,20.4522,-29.5652,-7.513
2080,7.7024,2.6441,-8.6987,16.9739,-30.6087,-8.0696
2085,7.3192,2.6824,-8.5838,13.0087,-31.8609,-8.4174
2090,6.7444,2.8357,-8.7754,10.5739,-32.8348,-6.3304
2095,8.8137,1.916,-8.4688,7.8609,-34.713,-5.2174
2100,7.4341,1.0346,-7.7407,6.5391,-34.2957,-4.313
2105,6.6677,1.4945,-7.894,10.713,-31.0957,-0.7652
2110,7.7407,1.4945,-8.3921,13.7739,-31.6522,-0.3478
2115,6.2079,2.1459,-8.4305,13.8435,-32.3478,0.0696
2120,5.5948,2.7591,-9.0053,13.4957,-32.1391,3.687
2125,7.894,2.0693,-9.0819,9.9478,-33.3217,6.4
2130,8.3538,1.2263,-8.3155,7.4435,-33.7391,4.0348
2135,5.6331,2.1076,-8.0089,10.713,-28.8,4.8696
2140,5.1349,3.2189,-9.3118,13.5652,-28.1739,7.513
2145,6.5528,2.9123,-9.6567,8.2087,-29.9826,10.9913
2150,7.8173,1.5328,-8.967,3.1304,-30.3304,9.9478
2155,6.7444,2.0693,-8.852,4.3826,-27.2,9.7391
2160,5.6714,2.6824,-8.967,5.7739,-22.9565,10.4348
2165,5.6331,2.3375,-9.3502,4.6609,-21.4261,12.7304
2170,6.4378,1.8394,-9.4268,3.1304,-20.6609,15.2348
2175,6.6294,1.4945,-9.2352,3.5478,-17.8087,15.9304
2180,6.6294,1.5328,-9.3502,4.5913,-14.2609,15.5826
2185,6.7827,1.5328,-9.3118,5.2174,-10.5043,15.3739
2190,7.0509,1.5328,-9.1969,5.7739,-6.9565,15.0957
2195,6.7827,1.6478,-9.2352,6.6087,-3.9652,14.8174
2200,6.936,1.6478,-9.5034,7.1652,-2.6435,14.1217
2205,6.7444,1.6478,-9.2735,7.2348,-1.1826,13.913
2210,6.821,1.6478,-9.3118,7.6522,-0.1391,14.0522
2215,6.8977,1.4562,-9.1586,8.0,1.7391,14.1217
2220,6.9743,1.2646,-9.2352,8.1391,3.5478,13.5652
2225,6.7827,1.2263,-9.0436,7.513,5.4261,12.9391
2230,6.821,1.1496,-8.8137,7.3043,7.513,12.1739
2235,6.5911,1.073,-9.0819,6.887,8.6957,11.0609
2240,6.7061,1.1113,-8.8903,5.7043,8.9043,9.7391
2245,7.1276,0.843,-8.967,4.313,10.1565,8.2087
2250,6.7444,0.8814,-8.852,3.9652,12.2435,6.7478
2255,6.7444,0.843,-9.0436,2.8522,12.6609,4.8696
2260,7.2425,0.7664,-8.967,0.7652,13.7043,2.9913
2265,6.7827,0.5748,-8.5838,-0.487,15.9304,1.2522
2270,6.821,0.958,-9.0819,-1.7391,16.9043,-0.4174
2275,7.3192,0.8814,-8.8903,-3.9652,17.8783,-2.0174
2280,6.936,0.9963,-8.7754,-5.287,20.1043,-3.4087
2285,6.7444,0.9197,-9.0053,-5.7043,21.2174,-4.3826
2290,7.1276,0.9963,-9.1202,-7.3043,21.7043,-5.287
2295,6.8593,1.2646,-8.8137,-8.5565,23.6522,-6.6783
2300,6.7827,1.2646,-8.8137,-9.3217,24.6261,-7.5826
2305,7.2042,1.1879,-8.852,-10.0174,25.1826,-8.1391
2310,7.1659,1.3029,-8.6987,-10.3652,26.7826,-8.9043
2315,6.8593,1.5328,-8.8903,-10.6435,27.6174,-9.6
2320,7.0893,1.3412,-8.6987,-12.2435,26.9913,-10.2957
2325,7.4341,1.1496,-8.5454,-12.5913,27.8957,-10.6435
2330,7.1659,1.0346,-8.3155,-11.2696,30.0522,-11.2
2335,7.2042,1.3029,-8.6987,-10.1565,29.9826,-11.4087
2340,7.0893,1.3795,-8.3921,-10.7826,29.6348,-12.0348
2345,7.1659,1.2646,-8.4688,-11.4783,29.287,-12.3826
2350,7.1276,1.3029,-8.2772,-11.687,29.3565,-12.8696
2355,7.0509,1.4562,-8.1239,-11.4087,29.0783,-13.3565
2360,7.2425,1.3795,-8.0473,-10.713,28.3826,-13.3565
2365,6.936,1.3795,-7.8557,-9.8087,27.6174,-13.0087
2370,7.0126,1.3412,-7.8173,-8.9043,25.8087,-12.5217
2375,7.1276,1.8394,-7.7407,-7.5826,23.7913,-12.4522
2380,7.0893,1.6095,-7.7407,-6.4696,22.2609,-12.5217
2385,7.0509,1.7244,-7.6641,-5.2174,20.5913,-12.5913
2390,7.0893,1.7244,-7.4341,-4.3826,19.0609,-12.6609
2395,7.1276,1.6478,-7.2809,-3.3391,16.8348,-12.1043
2400,7.0126,1.4179,-7.1659,-1.8783,14.1913,-12.1043
2405,7.1276,1.3795,-7.1659,0.1391,11.2696,-12.1043
2410,7.0509,1.5711,-7.2042,1.9478,8.4174,-12.5913
2415,7.0893,1.4945,-7.1659,3.1304,5.3565,-12.5217
2420,6.8977,1.5711,-7.0126,4.2435,2.087,-12.8
2425,7.0126,1.5328,-7.0893,4.0348,-1.113,-12.8696
2430,6.936,1.6478,-7.2042,3.4087,-4.5913,-12.2435
2435,6.9743,1.7244,-7.0509,2.713,-8.487,-11.8261
2440,6.936,1.8011,-7.0893,2.1565,-11.7565,-11.6174
2445,7.1659,1.9543,-7.2809,1.6,-14.887,-11.0609
2450,7.0126,1.8777,-7.4341,0.0696,-17.3217,-10.8522
2455,6.9743,1.8394,-7.5108,-1.0435,-19.687,-9.8783
2460,6.9743,1.8011,-7.5108,-1.6,-21.8435,-9.3217
2465,7.0126,1.9927,-7.6641,-1.5304,-23.3043,-8.6261
2470,7.0126,1.8011,-7.6257,-0.8348,-24.5565,-7.6522
2475,6.821,1.9927,-7.9323,0.2783,-25.5304,-6.7478
2480,6.9743,1.8777,-8.0473,0.9739,-26.4348,-6.1913
2485,6.3995,1.4562,-8.1622,1.6696,-26.9217,-5.287
2490,6.936,1.7627,-8.3155,3.0609,-27.1304,-4.1043
2495,7.2042,1.7244,-8.3155,3.4783,-26.9217,-3.3391
2500,7.0509,1.8777,-8.4305,3.5478,-25.6696,-2.3652
2505,6.8593,2.1843,-8.5838,4.1043,-25.1826,-2.087
2510,6.9743,2.1843,-8.6221,4.2435,-24.4174,-1.7391
2515,6.9743,2.1076,-8.6987,3.4783,-23.4435,-1.6
2520,6.9743,1.916,-8.6221,2.7826,-22.2609,-1.4609
2525,6.7061,1.9927,-8.5838,1.7391,-20.8696,-1.113
2530,8.4305,1.1113,-8.5838,0.487,-20.4522,-1.113
2535,6.7444,1.6478,-8.6604,-0.1391,-21.4957,-3.3391
2540,6.7444,1.916,-8.4305,-0.6261,-20.7304,-2.5739
2545,6.5911,1.916,-8.5454,-0.1391,-19.0609,-1.4609
2550,6.7827,1.916,-8.6604,-0.3478,-18.5739,-0.9043
2555,6.7444,1.916,-8.9286,-1.0435,-18.1565,-0.7652
2560,6.7827,1.916,-8.7754,-1.6696,-17.4609,-0.6261
2565,6.7444,1.8011,-8.6987,-2.0174,-16.8348,-0.4174
2570,6.8977,1.6861,-8.6604,-1.8087,-16.3478,-0.2087
2575,6.7444,1.6478,-8.7754,-1.4609,-15.8609,0.0
2580,6.7444,1.6861,-8.6987,-1.3913,-15.4435,0.0
2585,6.7444,1.6861,-8.5838,-1.4609,-15.0957,0.0
2590,6.7444,1.7244,-8.8137,-1.1826,-14.8174,0.0696
2595,7.1276,1.4179,-8.5838,-0.9739,-14.887,0.2087
2600,7.9323,1.073,-8.6987,-0.4174,-15.7217,-1.0435
2605,5.5181,2.1459,-8.852,-0.3478,-16.5565,-3.1304
2610,6.3229,1.8777,-8.4688,-2.2957,-14.887,-1.8783
2615,6.4378,1.5711,-8.6221,-1.8087,-13.7739,-0.5565
2620,6.5145,1.6478,-8.5454,-1.1826,-13.4261,0.0
2625,6.6294,1.5711,-8.6221,-1.7391,-12.9391,0.0
2630,6.4761,1.7244,-8.6604,-1.9478,-12.5217,0.1391
2635,6.4761,1.7244,-8.6987,-1.7391,-12.1739,0.2783
2640,6.7061,1.5711,-8.737,-1.5304,-12.1043,0.6261
2645,6.5528,1.6861,-8.6604,-1.3913,-11.8957,0.6957
2650,6.5911,1.6095,-8.6221,-1.3913,-11.9652,0.8348
2655,6.6294,1.5711,-8.5838,-1.3217,-12.2435,1.113
2660,6.5911,1.6095,-8.6221,-1.2522,-12.4522,1.2522
2665,6.5145,1.6478,-8.4305,-1.3913,-12.8,1.3217
2670,6.5911,1.4945,-8.5071,-1.3913,-13.1478,1.1826
2675,6.6294,1.4945,-8.7754,-1.5304,-13.4957,1.113
2680,6.7827,1.3412,-8.5071,-1.6696,-13.7043,0.9739
2685,6.5911,1.5328,-8.6604,-2.087,-13.913,0.5565
2690,6.5145,1.6095,-8.6604,-2.5739,-14.1913,0.2783
2695,6.6294,1.4562,-8.737,-2.713,-14.3304,0.0
2700,6.5528,1.6861,-8.8903,-2.8522,-14.3304,-0.3478
2705,6.5528,1.4945,-8.8903,-3.4087,-14.0522,-0.6261
2710,6.4378,1.6861,-8.967,-4.0348,-13.7739,-0.9043
2715,6.5911,1.6478,-8.852,-4.3826,-13.287,-1.113
2720,6.5911,1.6095,-8.8903,-4.5913,-12.7304,-1.1826
2725,6.5528,1.6095,-9.0053,-4.5913,-12.313,-1.3913
2730,6.4761,1.5328,-8.9286,-4.5913,-11.8957,-1.3913
2735,6.4378,1.5711,-8.9286,-4.3826,-11.2696,-1.6
2740,6.3995,1.5328,-8.9286,-4.1043,-10.6435,-1.8087
2745,6.4378,1.6861,-9.0053,-3.8957,-10.087,-1.6696
2750,6.3612,1.7244,-8.852,-3.9652,-9.3913,-1.7391
2755,6.4761,1.5328,-9.0053,-3.8957,-8.9043,-1.7391
2760,6.7061,1.7627,-9.0053,-3.687,-8.2087,-1.9478
2765,6.5528,1.6861,-9.0053,-4.0348,-7.3739,-2.1565
2770,6.4761,1.6478,-8.9286,-3.8957,-6.8174,-1.9478
2775,6.4761,1.5711,-8.967,-3.6174,-5.9826,-1.7391
2780,6.4761,1.6861,-8.9286,-3.6174,-5.3565,-1.9478
2785,6.5528,1.6478,-8.9286,-3.9652,-4.8,-2.0174
2790,6.5145,1.7244,-8.8137,-4.2435,-4.313,-1.9478
2795,6.4378,1.6861,-8.967,-4.2435,-3.7565,-2.0174
2800,6.5145,1.4945,-8.7754,-4.313,-3.2696,-1.7391
2805,6.5145,1.6095,-8.9286,-4.1739,-2.713,-1.7391
2810,6.2845,1.6478,-8.8137,-4.3826,-2.5043,-1.6696
2815,6.5145,1.8777,-8.852,-4.313,-2.3652,-1.6
2820,6.5145,1.6478,-8.852,-4.3826,-2.2957,-1.6
2825,6.3229,1.6861,-8.8137,-4.0348,-2.2261,-1.3913
2830,6.3995,1.6861,-9.0053,-3.8957,-2.1565,-1.1826
2835,6.4761,1.6861,-8.852,-3.8261,-2.1565,-1.0435
2840,6.3612,1.7627,-8.737,-3.687,-2.2957,-0.9739
2845,6.2462,1.7627,-8.6604,-3.4087,-2.3652,-0.8348
2850,6.3229,1.6095,-8.6987,-2.9913,-2.4348,-0.6261
2855,6.4761,1.6095,-8.6987,-2.6435,-2.5739,-0.2087
2860,6.3995,1.6478,-8.6604,-2.5043,-2.5739,0.0696
2865,6.3995,1.8011,-8.7754,-2.1565,-2.8522,0.2087
2870,6.1696,1.7627,-8.9286,-2.2261,-2.9913,0.2783
2875,6.3995,1.6478,-8.852,-1.7391,-2.713,0.487
2880,6.5145,1.4945,-8.852,-1.3913,-2.5739,0.6957
2885,6.4378,1.6478,-8.8137,-1.3217,-2.3652,0.7652
2890,6.3995,1.6861,-8.737,-1.6,-2.3652,0.487
2895,6.3995,1.6478,-8.8903,-1.6696,-2.2957,0.487
2900,6.3612,1.5711,-8.8903,-1.5304,-2.087,0.6957
2905,6.4761,1.6095,-8.967,-1.3217,-2.087,0.9043
2910,6.4378,1.6861,-8.852,-1.4609,-2.0174,0.8348
2915,6.4378,1.7244,-8.967,-1.6696,-1.9478,0.6261
2920,6.3229,1.7627,-8.9286,-1.7391,-1.8783,0.6957
2925,6.2845,1.6861,-8.852,-1.5304,-1.7391,1.0435
2930,6.4378,1.5328,-8.9286,-1.4609,-1.6,1.113
2935,6.3995,1.6861,-8.8137,-1.6,-1.4609,0.8348
2940,6.3995,1.6861,-8.8903,-1.8783,-1.3217,0.6957
2945,6.3229,1.7627,-9.0436,-1.8783,-1.3913,0.8348
2950,6.3229,1.5711,-8.7754,-1.6696,-1.0435,1.0435
2955,6.3229,1.5711,-8.852,-1.5304,-0.9739,1.0435
2960,6.4378,1.5711,-8.9286,-1.8087,-0.8348,0.9043
2965,6.3995,1.7244,-8.9286,-1.9478,-0.5565,0.6261
2970,6.2079,1.5711,-8.9286,-2.0174,-0.3478,0.6261
2975,6.4378,1.4562,-8.9286,-1.6696,0.0,0.9043
2980,6.3229,1.5328,-8.8903,-1.4609,0.1391,0.9043
2985,6.3612,1.6095,-8.9286,-1.6,0.1391,0.8348
2990,6.2845,1.7244,-8.8903,-1.9478,0.0696,0.6261
2995,6.3229,1.5711,-8.9286,-2.087,0.1391,0.487
