timestamp,accX,accY,accZ,gyroX,gyroY,gyroZ
0,-0.6514,-9.8483,-2.4142,-14.6087,3.2696,0.1391
5,-0.7664,-9.81,-2.4908,-14.6783,3.2,0.2087
10,-0.8047,-9.8866,-2.4142,-14.6783,3.2696,0.0696
15,-0.843,-9.81,-2.2609,-14.6087,3.2696,0.0
20,-0.6514,-9.81,-2.2992,-14.6087,3.0609,0.0
25,-0.6898,-9.8866,-2.4908,-14.5391,2.9913,-0.0696
30,-0.6898,-9.8866,-2.4142,-14.5391,2.9913,-0.0696
35,-0.8047,-9.8483,-2.4908,-14.4696,2.9913,-0.0696
40,-0.6898,-9.9633,-2.5675,-14.3304,3.0609,-0.1391
45,-0.7281,-9.925,-2.5291,-14.4,3.1304,-0.0696
50,-0.6514,-9.8866,-2.4525,-14.4,3.0609,-0.0696
55,-0.7281,-9.81,-2.5291,-14.4,2.9217,-0.0696
60,-0.6514,-9.7717,-2.4525,-14.5391,2.9913,-0.1391
65,-0.8047,-9.8483,-2.4142,-14.4696,2.9913,-0.2783
70,-0.6514,-9.8866,-2.5675,-14.7478,2.9217,-0.4174
75,-0.6514,-9.7717,-2.6058,-14.887,2.9913,-0.487
80,-0.6898,-9.81,-2.5675,-15.1652,2.9217,-0.5565
85,-0.7664,-9.7717,-2.6058,-15.2348,2.9913,-0.6957
90,-0.7281,-9.7717,-2.4525,-15.513,2.9913,-0.9043
95,-0.6131,-9.81,-2.6441,-15.7217,3.0609,-0.9043
100,-0.7281,-9.8483,-2.6058,-15.8609,3.0609,-1.0435
105,-0.6131,-9.8483,-2.5291,-16.0696,2.9913,-1.2522
110,-0.6514,-9.81,-2.7974,-16.487,2.9913,-1.3217
115,-0.6131,-9.81,-2.6824,-16.6261,3.2696,-1.4609
120,-0.6898,-9.81,-2.7974,-16.9043,3.1304,-1.4609
125,-0.6131,-9.8866,-2.6441,-17.1826,3.1304,-1.5304
130,-0.6514,-9.7717,-2.5675,-17.6696,3.2,-1.6696
135,-0.6898,-9.8483,-2.7974,-17.8783,3.2,-1.6696
140,-0.6898,-9.7717,-2.7974,-18.0174,3.2696,-1.6696
145,-0.6898,-9.81,-2.7974,-18.087,3.2,-1.7391
150,-0.6898,-9.81,-2.7974,-18.4348,3.3391,-1.8783
155,-0.6514,-9.7717,-2.7974,-18.713,3.4783,-1.8783
160,-0.6131,-9.81,-2.9123,-19.0609,3.4783,-2.087
165,-0.6131,-9.8483,-2.7974,-19.4783,3.4783,-2.0174
170,-0.6898,-9.81,-2.6441,-19.6174,3.6174,-2.087
175,-0.6131,-9.7717,-2.7974,-19.6174,3.5478,-2.087
180,-0.7664,-9.7334,-2.989,-19.687,3.5478,-2.2957
185,-0.6514,-9.7717,-2.7974,-19.687,3.4783,-2.4348
190,-0.6514,-9.8866,-2.874,-19.8261,3.4783,-2.5043
195,-0.7281,-9.81,-2.9123,-20.1043,3.4783,-2.4348
200,-0.6898,-9.81,-3.0273,-20.1043,3.4087,-2.5043
205,-0.6514,-9.7717,-2.9123,-20.313,3.4087,-2.5043
210,-0.6898,-9.7334,-2.989,-20.6609,3.3391,-2.5739
215,-0.8047,-9.8483,-2.9507,-20.8,3.3391,-2.5739
220,-0.6898,-9.81,-2.874,-20.8696,3.4087,-2.6435
225,-0.5748,-9.925,-2.874,-21.2174,3.3391,-2.6435
230,-0.6514,-9.7334,-2.9507,-21.4261,3.3391,-2.713
235,-0.6898,-9.81,-2.9507,-21.7043,3.4087,-2.7826
240,-0.8047,-9.7334,-3.0273,-22.1913,3.3391,-2.9217
245,-0.6514,-9.81,-2.989,-22.6087,3.2696,-2.9913
250,-0.6131,-9.7717,-3.0656,-22.887,3.2,-3.0609
255,-0.6131,-9.7717,-3.2189,-23.4435,3.2696,-3.1304
260,-0.6898,-9.695,-3.1039,-24.0,3.2,-3.3391
265,-0.6131,-9.695,-3.2572,-24.3478,3.1304,-3.4087
270,-0.5365,-9.6567,-3.2189,-24.6957,3.1304,-3.4087
275,-0.6898,-9.7334,-3.1423,-25.4609,3.2,-3.6174
280,-0.6898,-9.7717,-3.1806,-26.0174,3.1304,-3.7565
285,-0.6131,-9.695,-3.0656,-26.5739,3.1304,-3.7565
290,-0.6131,-9.4651,-3.2572,-27.2,2.9217,-3.7565
295,-0.6131,-9.7334,-3.1806,-27.7565,2.8522,-3.8261
300,-0.6898,-9.6567,-3.1423,-28.1739,2.7826,-3.8261
305,-0.6514,-9.6184,-3.2572,-28.6609,2.7826,-3.7565
310,-0.7281,-9.6567,-3.0656,-28.9391,2.713,-3.7565
315,-0.6131,-9.7334,-3.1423,-29.3565,2.713,-3.8261
320,-0.6514,-9.5801,-3.2955,-29.7043,2.5739,-3.7565
325,-0.8047,-9.7717,-3.2189,-29.913,2.5739,-3.7565
330,-0.6514,-9.7717,-3.2189,-30.1913,2.4348,-3.687
335,-0.6131,-9.8866,-3.4105,-30.4,2.4348,-3.687
340,-0.6131,-9.81,-3.2572,-30.4,2.3652,-3.7565
345,-0.5748,-9.81,-3.2955,-30.4,2.5043,-3.8261
350,-0.6131,-9.7334,-3.4105,-30.4,2.2957,-3.9652
355,-0.5365,-9.695,-3.4871,-30.4,2.2957,-3.8261
360,-0.5365,-9.7334,-3.5255,-30.4,2.2957,-3.8261
365,-0.5748,-9.695,-3.4488,-30.5391,2.4348,-3.8957
370,-0.5748,-9.6184,-3.5638,-30.6783,2.4348,-3.9652
375,-0.6131,-9.7334,-3.6021,-30.9565,2.5739,-4.0348
380,-0.5365,-9.6184,-3.4871,-31.4435,2.5043,-4.1043
385,-0.6131,-9.5034,-3.4488,-31.6522,2.5043,-4.1739
390,-0.6131,-9.5801,-3.5638,-31.9304,2.5043,-4.2435
395,-0.5748,-9.5418,-3.4488,-32.4174,2.6435,-4.3826
400,-0.6131,-9.6184,-3.7171,-32.9043,2.713,-4.5217
405,-0.6131,-9.5034,-3.6021,-33.3913,2.713,-4.6609
410,-0.5365,-9.5418,-3.6404,-33.8087,2.6435,-4.6609
415,-0.5748,-9.6184,-3.6787,-34.4348,2.6435,-4.8696
420,-0.6131,-9.5418,-3.6404,-35.0609,2.6435,-4.8696
425,-0.6514,-9.4651,-3.5638,-35.3391,2.713,-4.9391
430,-0.6131,-9.5801,-3.7554,-36.0348,2.713,-5.0783
435,-0.5748,-9.6184,-4.0236,-36.4522,2.8522,-5.1478
440,-0.6131,-9.5034,-3.7171,-37.0087,2.8522,-5.2174
445,-0.6131,-9.5418,-3.8704,-37.4261,2.9913,-5.0783
450,-0.5748,-9.5418,-3.9853,-37.913,2.8522,-5.287
455,-0.5748,-9.4268,-3.9853,-38.2609,2.8522,-5.4261
460,-0.5365,-9.5801,-3.947,-38.887,2.7826,-5.5652
465,-0.5365,-9.4651,-3.9853,-39.3043,2.7826,-5.4957
470,-0.4598,-9.5418,-4.1769,-39.7217,2.7826,-5.5652
475,-0.5365,-9.4651,-4.062,-40.2087,2.713,-5.5652
480,-0.4982,-9.4268,-4.1769,-40.6261,2.9217,-5.6348
485,-0.5365,-9.3885,-4.062,-40.8348,3.0609,-5.7043
490,-0.5365,-9.5034,-4.2152,-41.2522,3.2,-5.913
495,-0.4598,-9.5034,-4.2152,-41.6696,3.2696,-6.0522
500,-0.4215,-9.5801,-4.2919,-42.087,3.5478,-6.1217
505,-0.3832,-9.5034,-4.2536,-42.5043,3.6174,-6.1913
510,-0.4598,-9.4651,-4.2152,-42.713,3.7565,-6.1913
515,-0.4215,-9.5418,-4.2919,-43.1304,3.8957,-6.3304
520,-0.4215,-9.3118,-4.3302,-43.4087,3.8957,-6.2609
525,-0.3832,-9.3885,-4.3302,-43.6174,3.8957,-6.1217
530,-0.2682,-9.3118,-4.3302,-44.1043,4.0348,-6.1217
535,-0.4982,-9.1586,-4.4452,-44.313,4.0348,-6.1217
540,-0.4982,-9.2735,-4.3685,-44.8,4.0348,-6.1913
545,-0.4598,-9.0819,-4.4835,-45.4261,4.1739,-6.2609
550,-0.4598,-9.1586,-4.4835,-46.1913,4.1043,-6.3304
555,-0.3449,-9.1969,-4.5218,-47.1652,4.1043,-6.4
560,-0.3449,-9.2735,-4.6751,-47.9304,3.9652,-6.6087
565,-0.3832,-9.1969,-4.6368,-49.2522,3.9652,-6.6087
570,-0.4598,-9.0819,-4.6368,-50.2957,3.8957,-6.7478
575,-0.4215,-9.0436,-4.6751,-51.4783,3.8261,-6.8174
580,-0.4982,-9.1202,-4.79,-52.5913,3.687,-6.7478
585,-0.4982,-9.0819,-4.8667,-53.7043,3.5478,-6.7478
590,-0.5365,-9.1969,-4.9816,-54.7478,3.4783,-6.8174
595,-0.4215,-9.0819,-4.8667,-55.7913,3.4087,-6.7478
600,-0.4982,-9.0053,-4.8284,-56.7652,3.2696,-6.7478
605,-0.4215,-9.0436,-5.0583,-57.3217,2.9913,-6.6783
610,-0.4982,-9.0436,-5.02,-58.1565,3.0609,-6.6087
615,-0.4982,-9.0436,-5.1349,-59.0609,2.9913,-6.5391
620,-0.3832,-9.0053,-5.1349,-60.1043,2.9217,-6.5391
625,-0.4215,-8.967,-5.2882,-61.0087,3.0609,-6.6087
630,-0.3832,-8.9286,-5.2882,-62.2609,3.2,-6.6087
635,-0.3449,-8.967,-5.2116,-63.3043,3.2696,-6.6087
640,-0.4215,-8.9286,-5.5564,-64.4174,3.6174,-6.5391
645,-0.3449,-8.8903,-5.5564,-65.4609,4.1739,-6.6783
650,-0.2299,-8.967,-5.5181,-66.2957,4.8,-7.0261
655,-0.1533,-8.967,-5.6331,-67.0609,5.287,-7.3739
660,-0.1916,-8.7754,-5.6714,-68.0348,5.5652,-7.5826
665,-0.1916,-8.852,-5.6714,-69.0783,5.7739,-7.7217
670,-0.115,-8.852,-5.6331,-70.1913,6.1217,-7.8609
675,-0.0383,-8.6987,-5.5948,-71.2348,6.4696,-8.2087
680,-0.0766,-8.6221,-5.7097,-71.8609,6.9565,-8.6261
685,-0.0383,-8.6987,-5.748,-71.9304,7.513,-8.9739
690,-0.2299,-8.5838,-5.8247,-72.2783,8.0696,-9.3217
695,-0.2682,-8.5071,-5.7864,-73.3913,8.0696,-9.3913
700,-0.115,-8.3538,-5.9013,-75.1304,7.7913,-9.3217
705,0.0,-8.4305,-6.0546,-76.9391,7.513,-9.4609
710,-0.0383,-8.3921,-6.0546,-78.9565,7.513,-9.8087
715,-0.0766,-8.1622,-5.9396,-81.0435,7.5826,-10.2957
720,-0.3449,-8.7754,-6.0546,-82.5739,7.9304,-10.2261
725,-0.115,-8.3155,-6.4378,-84.3826,8.0696,-10.2261
730,-0.1916,-8.2772,-6.5528,-86.6783,8.0,-10.2261
735,-0.0383,-8.1239,-6.3612,-88.7652,7.7913,-10.087
740,0.0,-8.0473,-6.4761,-90.7826,7.9304,-10.4348
745,0.0,-8.2005,-6.4761,-92.313,7.9304,-10.3652
750,-0.0383,-8.0089,-6.5911,-93.5652,8.4174,-10.4348
755,0.0,-8.0089,-6.6294,-94.6783,9.2522,-10.6435
760,-0.0383,-8.2389,-6.9743,-96.3478,9.8087,-10.8522
765,0.115,-7.9706,-6.8593,-98.5043,10.5739,-11.2
770,0.2299,-8.2005,-7.0126,-100.1043,11.2696,-11.4783
775,0.2299,-7.8557,-7.0126,-101.5652,11.8957,-11.8261
780,0.0766,-7.9323,-7.0126,-102.887,12.3826,-12.1739
785,0.1533,-7.6641,-7.1276,-104.3478,12.1739,-12.313
790,0.2299,-7.3958,-7.3192,-106.0174,11.8957,-11.8957
795,0.4598,-7.2425,-7.5874,-108.0348,11.8957,-11.2
800,0.115,-7.4341,-7.5491,-112.6261,13.287,-10.6435
805,0.0,-7.3958,-7.5108,-116.7304,13.5652,-10.1565
810,0.1533,-7.2809,-7.7024,-118.2609,13.4261,-10.6435
815,0.1916,-7.3192,-7.7024,-120.487,14.0522,-10.713
820,0.2299,-7.1659,-8.2772,-123.3391,14.6783,-10.9217
825,0.3066,-7.0893,-7.894,-126.4696,15.5826,-11.4783
830,0.2299,-7.1659,-7.894,-128.9739,15.7913,-11.1304
835,0.0766,-6.7827,-7.9323,-131.9652,15.4435,-10.5739
840,0.3832,-6.8977,-7.9323,-135.1652,15.0957,-11.1304
845,0.3449,-6.8977,-8.1622,-138.5043,14.3304,-11.8261
850,0.115,-6.7061,-8.1622,-142.4696,14.1913,-12.2435
855,0.2682,-6.7444,-8.3921,-146.713,13.4957,-12.8
860,-0.2299,-6.7444,-8.4688,-150.8174,13.287,-13.0087
865,0.1916,-6.5911,-8.9286,-155.0609,13.5652,-12.7304
870,-0.6131,-6.1313,-8.852,-159.0957,13.7043,-13.8435
875,-0.0383,-6.5145,-8.852,-163.2696,12.2435,-13.287
880,0.1916,-6.0929,-9.0819,-166.1913,11.5478,-12.9391
885,-0.1533,-5.9013,-8.7754,-168.8348,11.8957,-13.287
890,-0.0383,-6.0929,-9.0436,-172.0348,12.2435,-13.287
895,0.5748,-6.3612,-9.2735,-175.0261,11.6174,-13.287
900,0.6131,-5.978,-9.3118,-177.7391,10.8522,-12.3826
905,0.2682,-6.6677,-9.2735,-181.9826,10.8522,-9.5304
910,0.3832,-6.2845,-9.5034,-182.3304,9.1826,-11.1304
915,0.5748,-6.0546,-9.1586,-182.2609,9.0435,-12.4522
920,0.843,-6.3612,-9.5034,-181.913,8.8348,-11.6174
925,0.0766,-6.0929,-9.5034,-180.1739,7.9304,-12.0348
930,0.4215,-6.2845,-9.695,-177.0435,8.4174,-11.9652
935,0.0383,-5.978,-9.8483,-174.4,9.8783,-12.313
940,0.2299,-6.0163,-9.695,-173.7739,10.2261,-11.2
945,0.2682,-5.5564,-9.695,-171.8261,10.2261,-11.4087
950,0.3449,-5.4032,-9.5418,-170.2957,10.6435,-10.2261
955,0.2682,-5.4415,-9.6184,-168.0696,10.4348,-10.2261
960,-0.1916,-5.2116,-9.5418,-164.7304,9.8087,-11.1304
965,-0.3449,-5.0583,-9.5801,-161.113,8.6261,-11.687
970,-0.115,-5.0583,-9.7334,-158.1217,7.0261,-11.687
975,0.0383,-5.2882,-9.7717,-155.4087,6.887,-10.713
980,-0.3449,-5.3265,-9.695,-153.7391,8.6261,-9.8087
985,-0.4215,-5.2499,-9.4651,-150.4696,10.6435,-8.9043
990,-0.4598,-5.02,-9.4268,-145.6696,10.713,-8.9739
995,-0.3449,-4.9433,-9.4651,-140.8696,10.0174,-8.5565
1000,-0.4215,-4.6751,-9.3118,-135.513,9.3913,-8.0696
1005,-0.4982,-4.6751,-9.5034,-130.087,9.0435,-7.6522
1010,-0.5748,-4.7134,-9.7334,-125.6348,8.6957,-6.9565
1015,-0.5365,-4.3302,-9.6567,-122.3652,8.3478,-5.3565
1020,-0.4215,-4.3685,-9.695,-118.6783,7.5826,-5.287
1025,-0.1916,-4.2152,-9.925,-115.6174,6.9565,-4.4522
1030,-0.3832,-3.8704,-9.925,-113.6,6.6783,-4.0348
1035,-0.2299,-3.1806,-9.8483,-112.0,7.2348,-3.5478
1040,-0.3449,-3.832,-9.8483,-110.1217,8.3478,-3.1304
1045,-0.3066,-3.7937,-10.0782,-108.5217,9.1826,-3.2
1050,-0.4982,-3.6404,-10.0016,-106.5043,9.6696,-3.2
1055,-0.3449,-3.4105,-10.2698,-106.2957,9.9478,-3.3391
1060,-0.115,-3.4105,-10.1166,-104.2087,10.5043,-2.0174
1065,-0.2682,-3.2189,-9.81,-101.5652,10.6435,-1.3217
1070,0.0,-3.2955,-9.81,-99.3391,10.1565,-1.0435
1075,-0.0766,-3.3339,-9.695,-97.1826,9.1826,-0.9043
1080,-0.0383,-3.4871,-9.8483,-95.0957,8.2783,-0.9043
1085,0.1533,-3.2189,-9.925,-92.6609,7.6522,-1.113
1090,0.0,-3.1806,-9.6184,-89.9478,6.9565,-1.2522
1095,-0.0766,-3.1806,-9.7717,-87.9304,5.913,-1.113
1100,0.2299,-3.1423,-9.81,-86.2609,4.5217,-1.0435
1105,0.0383,-3.0656,-9.81,-85.3565,3.2,-0.9043
1110,-0.1533,-2.7207,-9.7717,-84.0348,1.9478,-1.113
1115,-0.3066,-2.6441,-9.6567,-82.1565,0.5565,-0.487
1120,-0.0383,-2.8357,-9.695,-78.6783,-2.087,-0.2087
1125,0.0,-2.8357,-9.5034,-75.9652,-4.0348,0.0696
1130,0.1916,-3.0656,-9.81,-73.9478,-5.7043,0.2783
1135,0.1533,-2.9123,-9.695,-71.7913,-6.8174,0.1391
1140,0.3449,-3.1806,-9.695,-69.9826,-7.4435,-0.4174
1145,0.5365,-2.8357,-9.7334,-67.9652,-7.5826,-1.1826
1150,0.7281,-2.6824,-9.6567,-66.0174,-7.8609,-1.9478
1155,0.7281,-2.6441,-9.6184,-64.6957,-8.9043,-2.7826
1160,0.5365,-2.7207,-9.6567,-63.8609,-10.3652,-3.687
1165,0.9197,-2.4525,-9.8483,-62.9565,-11.7565,-4.4522
1170,0.2682,-2.6441,-9.5418,-64.0696,-11.8261,-4.1739
1175,0.6514,-2.6058,-9.81,-63.7913,-13.3565,-4.5913
1180,0.4982,-2.5291,-9.6567,-61.8435,-14.887,-5.2174
1185,0.6131,-2.7207,-9.81,-60.8,-16.0,-5.1478
1190,0.6898,-2.6441,-9.7717,-60.0348,-16.7652,-5.2174
1195,0.843,-2.5675,-9.925,-58.9217,-17.113,-5.3565
1200,0.7281,-2.4525,-9.8866,-57.8783,-17.3913,-5.6348
1205,0.7664,-2.4142,-9.8866,-56.9043,-17.3913,-5.9826
1210,0.843,-2.4525,-9.7717,-56.1391,-17.113,-6.1217
1215,0.8814,-2.4525,-9.695,-56.1391,-16.7652,-6.1913
1220,0.9197,-2.5675,-9.6567,-56.487,-16.2783,-6.3304
1225,0.9963,-2.6441,-9.695,-56.4174,-15.1652,-6.3304
1230,1.0346,-2.7974,-9.7717,-56.487,-13.8435,-6.3304
1235,1.1879,-2.7207,-9.5034,-55.8609,-12.1043,-6.1217
1240,1.2646,-2.6441,-9.7717,-55.3739,-10.7826,-5.913
1245,1.3795,-2.9507,-9.6567,-55.3739,-8.3478,-5.9826
1250,0.958,-3.0656,-9.4268,-54.9565,-5.6348,-6.1217
1255,1.1879,-3.1423,-9.5418,-54.4,-3.4087,-6.2609
1260,1.1879,-3.3339,-9.3885,-54.0522,-1.6,-6.6783
1265,1.0346,-3.3339,-9.3118,-53.6348,-0.4174,-7.1652
1270,0.9963,-3.4488,-9.2352,-53.287,0.5565,-7.7217
1275,0.843,-3.5638,-9.1202,-52.8,1.0435,-8.1391
1280,0.7664,-3.6787,-8.967,-52.7304,0.9739,-8.7652
1285,0.9197,-3.5255,-8.7754,-53.0087,-0.1391,-9.4609
1290,0.8814,-3.7171,-8.5838,-54.6087,-1.8087,-10.4348
1295,0.7281,-3.9853,-8.5454,-54.2609,-2.713,-10.713
1300,0.7281,-3.9853,-8.3921,-53.5652,-2.9913,-10.9913
1305,0.2682,-4.0236,-7.6257,-52.8,-3.2696,-11.1304
1310,0.6131,-4.062,-7.5491,-52.1043,-3.6174,-11.1304
1315,0.3832,-4.0236,-7.2042,-51.687,-4.0348,-10.9217
1320,0.3066,-4.1386,-7.1276,-51.4087,-4.0348,-10.5739
1325,0.1916,-4.2536,-6.9743,-51.4087,-3.7565,-10.3652
1330,0.1916,-4.1003,-6.7827,-51.2,-3.2,-10.1565
1335,0.115,-4.062,-6.5528,-51.0609,-2.2957,-10.0174
1340,-0.0383,-4.0236,-6.4378,-50.713,-1.0435,-9.8783
1345,0.0,-3.9087,-6.2079,-50.5739,0.2087,-9.7391
1350,-0.0766,-3.7937,-6.0163,-50.6435,2.0174,-9.3913
1355,-0.0766,-3.3722,-5.748,-50.7826,4.1739,-8.9043
1360,0.0383,-2.989,-5.5181,-51.2,6.6087,-8.2087
1365,0.115,-2.874,-5.5564,-51.1304,9.3913,-7.3043
1370,0.0766,-2.4142,-5.4798,-51.0609,12.3826,-6.3304
1375,0.115,-1.9927,-5.5564,-51.8957,15.4435,-4.8696
1380,0.3066,-1.6861,-5.5564,-53.7043,18.713,-3.5478
1385,0.1916,-1.3795,-5.6331,-55.513,22.4,-2.7826
1390,0.3066,-1.3029,-5.5564,-57.5304,26.1565,-2.3652
1395,0.1533,-0.6514,-5.7864,-60.9391,30.1217,-2.5043
1400,0.2299,0.0383,-5.8247,-65.3217,34.2261,-3.687
1405,0.3066,0.7281,-5.863,-70.1913,37.7739,-5.913
1410,0.0766,1.3795,-6.0163,-74.8522,40.6261,-8.3478
1415,0.1533,1.8011,-6.3229,-78.887,41.3913,-10.1565
1420,0.6131,2.3759,-6.3995,-82.2261,39.0261,-12.2435
1425,0.4598,3.3722,-7.1659,-85.2174,31.5826,-14.1913
1430,0.4982,4.5601,-8.3921,-88.3478,16.4174,-14.7478
1435,1.2263,5.9013,-9.9633,-90.713,-7.0957,-15.9304
1440,2.2992,7.7407,-11.7643,-92.9391,-38.1913,-19.4783
1445,3.1039,9.925,-13.5271,-96.9739,-76.0348,-26.2957
1450,2.989,12.1859,-14.9066,-105.113,-117.9826,-36.7304
1455,2.1843,14.1019,-15.8263,-118.6087,-159.2348,-49.1826
1460,0.115,14.7916,-16.8609,-135.4435,-196.5217,-61.8435
1465,-2.2609,14.0252,-18.3938,-144.7652,-227.7565,-70.1217
1470,-4.4068,12.4158,-21.2678,-136.2783,-250.7826,-71.8609
1475,-7.5874,10.3082,-24.1035,-112.9043,-264.9043,-67.1304
1480,-10.0016,9.5418,-26.5943,-83.5478,-268.6609,-57.7391
1485,-12.1092,10.5381,-26.9009,-65.4609,-261.9826,-50.5043
1490,-13.3738,11.6494,-27.5523,-62.4,-246.5391,-45.7043
1495,-13.872,12.3008,-28.357,-66.1565,-215.9304,-38.2609
1500,-13.642,12.6074,-28.5486,-74.1565,-177.3217,-25.8783
1505,-12.4924,13.7953,-28.0505,-93.4261,-140.1043,-13.0783
1510,-11.3045,14.83,-25.7513,-124.4522,-111.6522,-1.113
1515,-9.8483,16.8993,-26.2494,-153.9478,-93.6348,12.3826
1520,-8.2005,16.4394,-25.9429,-180.2435,-71.4435,30.2609
1525,-5.9013,15.5197,-24.8699,-210.1565,-54.3304,44.2435
1530,-3.5638,13.5271,-23.7203,-237.913,-46.3304,55.0957
1535,-1.3412,11.9176,-22.8389,-261.9826,-42.5043,64.0696
1540,0.6131,10.1166,-21.3061,-281.2522,-37.3565,71.3739
1545,2.6441,8.6221,-20.0415,-294.7478,-31.4435,77.3565
1550,3.2955,6.821,-18.6237,-301.7739,-25.1826,82.6435
1555,3.4871,5.6714,-17.1292,-301.4261,-19.3391,86.7478
1560,3.1039,4.5984,-16.2861,-294.6783,-14.1217,88.9739
1565,2.5291,3.947,-14.8683,-283.2,-7.3043,89.7391
1570,1.6861,3.4488,-13.9869,-269.7739,-0.9043,89.4609
1575,0.5365,3.4871,-13.0672,-255.8609,6.2609,89.3913
1580,-0.0383,3.4105,-12.1092,-243.3391,15.0261,89.6696
1585,-0.3832,2.989,-11.3045,-231.2348,25.4609,88.9739
1590,-0.6514,2.5675,-10.2698,-217.0435,37.0087,86.6087
1595,-0.843,2.5291,-9.7334,-199.7217,48.6957,83.5478
1600,-0.7281,2.5291,-9.1586,-181.6348,58.9913,79.8609
1605,-0.5365,2.2992,-8.8137,-165.8435,67.1304,76.313
1610,-0.3832,2.1843,-8.5071,-152.9739,73.6,72.6261
1615,-0.3449,2.1843,-8.3155,-142.7478,79.7217,69.0087
1620,-0.2682,2.3375,-7.2809,-136.1391,85.3565,65.5304
1625,-0.6514,1.7627,-6.4761,-130.9217,89.8087,61.9826
1630,-0.4982,1.8777,-6.0163,-124.0348,93.5652,59.4087
1635,-0.115,1.6861,-5.978,-116.2435,98.2957,56.2087
1640,-0.1533,1.6861,-5.9013,-108.5217,106.1565,53.0783
1645,-0.6898,1.1496,-4.3685,-99.687,115.2696,49.9478
1650,-0.2682,0.9197,-4.2919,-88.0696,119.0957,46.1217
1655,0.2299,0.9963,-3.9853,-75.8261,122.5043,42.0174
1660,0.2299,0.958,-3.4105,-63.2348,125.7043,38.4696
1665,0.6514,0.7281,-3.4488,-48.6957,125.5652,35.8957
1670,1.5711,0.5365,-3.947,-32.7652,123.687,32.9043
1675,1.1879,0.7281,-2.7207,-16.5565,122.0174,31.3043
1680,0.4982,0.8814,-2.989,1.0435,118.3304,30.3304
1685,0.7664,1.073,-3.4871,18.3652,112.3478,28.5913
1690,0.0383,1.8011,-3.2189,32.4174,108.1739,25.9478
1695,-0.0766,1.7244,-2.9123,45.7739,101.7739,23.7217
1700,0.5748,1.8394,-4.1003,61.9826,92.9391,22.8174
1705,-0.4215,2.1843,-3.4488,75.8957,88.7652,19.8261
1710,-0.0383,2.6441,-4.0236,88.1391,82.2957,16.6261
1715,-0.4598,3.2955,-3.6021,98.0174,76.9391,15.5826
1720,-0.115,3.7937,-4.3302,106.7826,69.0087,17.4609
1725,-1.0346,4.4452,-3.3339,112.3478,62.5391,18.4348
1730,-1.1113,5.1349,-3.6404,115.4783,54.0522,18.3652
1735,-0.4215,5.3265,-4.062,117.5652,47.8609,19.9652
1740,-0.6898,5.5948,-3.6787,118.9565,46.1913,24.487
1745,-0.5748,5.7864,-4.062,122.5043,43.0609,29.913
1750,-0.0766,6.0546,-4.7134,125.4957,36.8,34.6435
1755,-0.1533,6.3612,-5.0966,125.0783,30.4,36.4522
1760,0.4598,6.8593,-5.4415,122.2261,23.3043,37.8435
1765,0.843,7.1276,-6.0546,118.6087,18.0174,39.4435
1770,0.9963,7.3958,-6.6294,115.7565,14.1913,40.4174
1775,1.3412,7.7407,-6.5528,112.0,11.3391,41.4609
1780,1.7244,8.0473,-6.7444,107.8261,9.4609,42.2957
1785,1.5711,8.3921,-6.9743,102.8174,8.6261,43.2
1790,1.6861,8.3155,-7.1276,96.2087,6.8174,44.6609
1795,1.8777,8.3538,-7.3192,88.0,4.6609,45.4957
1800,2.1076,8.2389,-7.5108,80.2087,3.3391,45.3565
1805,2.4142,8.1239,-7.7407,74.9217,4.313,44.5913
1810,2.3375,8.0856,-8.2772,72.2783,6.3304,42.7826
1815,2.3375,8.0856,-8.967,70.4696,6.887,40.2783
1820,2.1843,8.3155,-9.6567,68.5913,5.7043,37.6348
1825,2.2992,8.0473,-10.3082,65.9478,3.6174,35.6174
1830,2.4908,8.0856,-10.6914,63.1652,1.113,33.4609
1835,2.2226,8.0089,-11.0746,60.4522,-1.7391,30.7478
1840,2.2609,7.5874,-11.3428,57.4609,-4.5217,27.8261
1845,2.2992,7.7407,-11.841,54.3304,-8.1391,24.0
1850,2.1076,7.5491,-11.9943,51.0609,-12.6609,19.8957
1855,1.9927,7.3958,-12.0326,48.1391,-17.8783,15.5826
1860,1.9543,7.3192,-11.9559,45.8435,-23.513,11.2696
1865,1.9543,6.9743,-11.9559,44.6609,-29.287,6.7478
1870,1.8394,6.5528,-11.841,44.3826,-34.7826,2.5043
1875,1.6478,6.3995,-11.6877,44.5217,-40.1391,-1.3913
1880,1.6478,6.0163,-11.4195,45.1478,-44.9391,-4.8696
1885,1.5711,5.7864,-11.1512,45.5652,-49.3217,-7.8609
1890,1.5328,5.4798,-10.9213,46.0522,-52.9391,-10.713
1895,1.8011,5.2116,-10.3848,46.2609,-55.513,-12.9391
1900,1.5328,4.9433,-9.9633,45.5652,-56.8348,-14.0522
1905,1.7244,4.905,-9.695,44.4522,-57.6696,-15.1652
1910,1.7244,4.7134,-9.2735,43.2,-57.7391,-16.1391
1915,1.6861,4.5601,-8.9286,41.8783,-57.2522,-16.9043
1920,1.9543,4.5218,-8.3155,40.6957,-56.487,-16.487
1925,2.2226,4.5218,-7.8557,39.4435,-54.5391,-16.3478
1930,2.3375,4.3302,-7.5108,38.5391,-51.7565,-16.4174
1935,2.4142,4.5218,-7.2425,37.7739,-49.0435,-16.7652
1940,2.6441,4.79,-6.936,36.7304,-46.8174,-17.6
1945,2.6441,5.1732,-6.7444,35.0609,-44.7304,-18.087
1950,2.6441,5.3265,-6.4761,32.9739,-42.3652,-18.1565
1955,2.9507,5.5181,-6.3612,30.9565,-39.3043,-17.0435
1960,2.8357,6.0929,-6.1696,28.8696,-35.7565,-16.6957
1965,3.1423,6.4378,-6.0163,26.5043,-32.0,-16.7652
1970,3.1423,6.6294,-5.6331,23.5826,-28.1739,-16.5565
1975,3.1806,6.936,-5.4798,20.313,-24.0696,-15.9304
1980,3.1423,7.0126,-5.4415,17.9478,-19.9652,-15.3043
1985,3.1423,6.7061,-5.2499,16.6261,-15.3739,-13.8435
1990,2.874,6.7061,-5.3648,15.7913,-10.8522,-13.3565
1995,2.7974,6.2079,-5.7097,14.1913,-7.7217,-14.1217
2000,2.6441,5.863,-5.9396,11.8261,-5.4957,-14.2609
2005,2.2992,5.6331,-6.4761,8.2783,-4.6609,-14.5391
2010,2.1843,5.0966,-6.9743,4.5217,-4.9391,-15.0261
2015,1.9927,4.5601,-7.1659,0.6957,-5.8435,-14.5391
2020,1.8394,4.3685,-7.7024,-2.9217,-8.1391,-14.6783
2025,1.8777,4.1003,-8.2389,-6.2609,-10.5043,-14.1913
2030,1.5328,3.7554,-8.6221,-8.9043,-12.313,-12.5913
2035,1.2263,3.3722,-8.737,-9.8783,-14.5391,-12.1043
2040,0.9963,2.989,-8.967,-9.7391,-16.9043,-12.5913
2045,0.8047,2.874,-9.5801,-8.0,-19.1304,-13.2174
2050,0.4982,2.7974,-9.695,-6.1913,-20.1739,-12.8696
2055,0.0,2.7591,-10.0016,-3.7565,-21.8435,-13.7043
2060,-0.2682,2.6824,-10.1549,-2.6435,-25.0435,-17.1826
2065,-0.4215,2.6824,-10.4998,-1.3913,-29.0783,-19.9652
2070,-0.5748,2.6441,-10.8446,-0.1391,-33.113,-20.9391
2075,-0.6131,2.6824,-10.9596,0.9739,-36.5217,-20.313
2080,-0.7664,2.4908,-10.768,1.3913,-40.2087,-21.287
2085,-0.843,2.6441,-11.0363,0.4174,-44.9391,-24.2783
2090,-0.7281,3.0273,-11.0363,-1.1826,-49.1826,-25.8087
2095,-0.7281,3.6787,-11.0363,-3.1304,-52.6609,-26.2957
2100,-0.7664,4.2152,-11.0746,-6.5391,-55.7217,-27.6174
2105,-0.6131,4.9433,-10.8446,-11.6174,-57.4609,-28.3826
2110,-0.4598,5.7097,-10.9213,-16.6261,-57.8087,-28.1739
2115,-0.3832,6.6677,-10.9979,-22.9565,-56.6957,-28.1043
2120,-0.1916,7.2042,-10.6914,-29.2174,-54.4,-27.8957
2125,0.0,7.7024,-10.4998,-34.6435,-51.2,-27.3391
2130,0.2682,7.894,-10.1549,-39.3739,-47.6522,-27.2696
2135,0.5365,8.0473,-9.925,-44.0348,-44.0348,-27.7565
2140,1.2646,8.1622,-9.925,-49.1826,-40.4174,-29.4261
2145,1.7627,7.5491,-9.5034,-54.6087,-36.3826,-32.0
2150,1.9927,6.936,-9.1586,-58.5043,-31.7913,-33.5304
2155,2.1459,6.1313,-8.8903,-60.8696,-27.687,-34.6435
2160,2.1459,5.3648,-8.5454,-62.2609,-24.6957,-36.1043
2165,2.1459,4.6368,-8.6987,-62.6783,-22.887,-37.8435
2170,1.7627,4.2536,-8.3921,-62.8174,-21.7043,-40.4174
2175,1.2263,3.832,-8.5071,-63.6522,-21.7739,-44.1043
2180,1.2646,3.0656,-8.3155,-64.5565,-21.7739,-48.487
2185,1.1496,2.7591,-8.0473,-63.5826,-20.1043,-51.8261
2190,0.958,2.5675,-7.9323,-61.4261,-17.3913,-55.3739
2195,0.8814,2.7591,-7.779,-58.2957,-14.5391,-58.7826
2200,0.843,2.9123,-8.1239,-55.3739,-12.0348,-62.8174
2205,0.4215,3.2189,-7.9706,-53.0087,-9.6696,-67.0609
2210,0.4215,3.4105,-8.0089,-51.4087,-7.6522,-71.3739
2215,0.1916,3.6404,-8.0089,-50.9913,-5.7043,-75.8957
2220,-0.0766,3.832,-7.9323,-51.4783,-4.0348,-80.2087
2225,-0.2299,3.7937,-7.8173,-51.9652,-2.4348,-84.6609
2230,-0.4598,3.832,-7.6641,-51.7565,-1.1826,-89.2522
2235,-0.6131,3.7554,-7.6641,-50.9217,-0.2783,-93.8435
2240,-0.6898,3.6021,-7.4341,-49.4609,0.9043,-98.2957
2245,-1.1879,3.5638,-7.3575,-47.0261,1.8783,-102.9565
2250,-1.2646,3.7171,-7.4341,-43.4783,2.713,-107.3391
2255,-2.1843,3.7171,-7.2809,-40.0696,4.6609,-111.6522
2260,-3.1806,3.2189,-6.7061,-35.9652,5.0087,-117.0783
2265,-3.1806,3.5255,-6.4761,-29.4261,0.487,-122.8522
2270,-3.5638,3.7554,-6.5145,-21.9826,-3.8957,-129.5304
2275,-4.3685,3.832,-6.2845,-14.0522,-7.2348,-136.1391
2280,-5.0583,4.2536,-6.7444,-4.5913,-12.8696,-142.6087
2285,-6.0163,3.9087,-6.7444,5.7739,-20.0348,-148.2435
2290,-5.4032,2.989,-6.7827,20.1739,-28.5217,-153.5304
2295,-6.4761,2.4525,-6.7444,41.0435,-34.087,-157.1478
2300,-7.0509,2.7207,-7.0893,62.0522,-39.5826,-164.0348
2305,-7.3958,2.5675,-7.5491,78.3304,-46.2609,-170.713
2310,-7.779,2.2609,-7.7024,91.9652,-54.1913,-173.7043
2315,-8.0089,2.4908,-7.9706,103.7913,-63.9304,-177.0435
2320,-8.2005,2.6824,-8.0089,113.3913,-73.0435,-181.2174
2325,-8.967,2.5675,-8.0473,118.6087,-79.6522,-183.8609
2330,-9.5034,2.7207,-8.0089,121.3913,-86.5391,-185.9478
2335,-9.925,2.7974,-8.0856,124.5217,-94.8174,-187.687
2340,-10.1932,3.0656,-7.9706,126.5391,-103.1652,-189.913
2345,-10.2698,3.2955,-8.2389,126.6087,-110.6087,-191.513
2350,-10.5381,2.5675,-7.9323,122.7826,-116.3826,-190.6783
2355,-11.6111,2.9123,-7.0893,118.1913,-123.5478,-192.2783
2360,-11.6877,3.8704,-7.1659,114.0174,-135.7217,-195.2
2365,-11.6877,4.5984,-8.0089,107.0609,-147.1304,-194.9913
2370,-12.3391,5.2116,-8.2005,101.8435,-154.0174,-191.0957
2375,-12.3008,6.2845,-9.4651,99.3391,-155.9652,-184.8348
2380,-14.1019,6.821,-9.0053,96.9043,-152.487,-176.5565
2385,-15.2132,7.2809,-9.5801,103.1652,-153.3913,-168.9739
2390,-14.8683,8.0856,-11.3045,116.2435,-157.6348,-160.3478
2395,-14.7916,8.0473,-12.5691,124.9391,-159.5826,-150.6783
2400,-14.4084,8.852,-12.9139,126.4,-159.6522,-139.6174
2405,-13.4504,8.3538,-13.1055,120.0,-162.2957,-127.513
2410,-12.3775,7.9706,-13.9486,105.4609,-166.6087,-117.4957
2415,-10.6147,7.7024,-14.7533,85.4957,-168.9739,-108.9391
2420,-9.4651,7.4341,-15.5964,61.5652,-169.2522,-101.7739
2425,-8.7754,7.5491,-15.4431,33.8087,-169.8087,-96.1391
2430,-8.6987,7.3958,-14.4851,6.1217,-174.0522,-91.4783
2435,-8.3921,7.1659,-14.1019,-17.9478,-182.5391,-88.6261
2440,-7.6257,6.5528,-14.83,-35.0609,-186.2261,-86.9565
2445,-7.0509,5.9013,-14.9066,-47.3043,-180.8696,-87.513
2450,-6.4761,5.02,-14.3701,-57.8783,-173.5652,-89.4609
2455,-6.1313,4.4068,-13.6037,-66.1565,-166.3304,-91.6174
2460,-5.5564,3.8704,-12.8756,-72.0,-158.4,-93.0783
2465,-5.5564,3.7554,-11.9943,-74.9913,-149.7043,-93.4957
2470,-5.4415,3.3722,-11.2279,-75.4087,-140.7304,-92.9391
2475,-5.7864,2.9123,-10.5381,-74.087,-132.1043,-91.4783
2480,-5.6331,2.4908,-9.81,-71.4435,-125.287,-88.9739
2485,-6.2079,1.9927,-9.3118,-67.5478,-119.8609,-85.9826
2490,-6.6294,1.8011,-8.967,-62.8174,-116.3826,-82.5739
2495,-7.1659,1.4562,-9.2352,-57.3217,-113.6696,-79.0261
2500,-7.5108,1.3029,-9.3118,-52.0348,-111.8609,-75.4783
2505,-7.894,1.2263,-9.1969,-47.2348,-110.887,-72.4174
2510,-8.2772,0.7281,-9.0819,-44.5217,-111.0261,-68.9391
2515,-8.737,0.4598,-9.1202,-39.2348,-107.9652,-63.4435
2520,-8.9286,0.115,-9.0436,-34.2261,-105.3217,-58.4348
2525,-8.967,0.0766,-8.4688,-29.7739,-101.8435,-53.2174
2530,-9.0436,0.4598,-8.0473,-26.2957,-97.3913,-47.513
2535,-9.3885,0.3449,-7.8557,-24.2087,-91.8261,-41.8783
2540,-9.3502,0.2682,-7.8173,-23.513,-85.4261,-36.6609
2545,-9.1969,0.3066,-7.4725,-22.7478,-78.4696,-30.3304
2550,-9.0053,0.0,-7.0509,-22.2609,-71.2348,-23.2348
2555,-8.8137,0.0,-6.7444,-21.913,-64.3478,-16.9739
2560,-8.6987,0.0,-6.2845,-21.0087,-58.2957,-10.9913
2565,-8.5454,0.0766,-5.7097,-19.4087,-52.7304,-5.2174
2570,-8.2389,0.0766,-5.0966,-17.3217,-48.1391,-0.1391
2575,-8.0089,0.3066,-4.5218,-13.9826,-43.7565,4.1739
2580,-7.779,0.0766,-4.1003,-9.1826,-39.6522,8.1391
2585,-7.7024,-0.115,-4.2152,-2.2261,-35.8261,11.7565
2590,-7.7024,-0.5748,-3.9087,6.7478,-32.1391,15.0957
2595,-7.8173,-0.9963,-3.9853,16.6261,-29.1478,17.9478
2600,-7.6641,-1.5711,-4.1003,26.9217,-25.8087,20.5217
2605,-7.6641,-1.9927,-4.1003,35.9652,-22.0522,21.287
2610,-7.6641,-2.2992,-4.2919,43.4783,-17.8087,21.6348
2615,-7.5491,-2.2992,-4.5218,49.5304,-14.1217,20.8696
2620,-7.6257,-2.2992,-4.4835,53.9826,-10.713,19.4783
2625,-7.5108,-2.3375,-4.5984,57.3217,-7.6522,17.3913
2630,-7.5491,-2.2992,-4.6751,59.6174,-5.5652,15.0261
2635,-7.6641,-1.9543,-4.6368,60.9391,-4.2435,12.313
2640,-7.3575,-1.6478,-4.7517,61.7043,-3.8957,9.8783
2645,-7.6641,-0.958,-4.6751,61.8435,-4.4522,6.887
2650,-7.8173,-0.4982,-4.8284,61.8435,-5.3565,3.8957
2655,-7.8557,0.0383,-4.9433,61.287,-6.4696,1.1826
2660,-7.9323,0.6898,-5.0583,59.9652,-7.7217,-1.3913
2665,-7.9706,1.1113,-5.2116,57.8087,-8.6957,-4.3826
2670,-7.9706,1.3795,-5.3265,54.2609,-9.3913,-6.1913
2675,-7.894,1.4179,-5.3265,50.1565,-9.6,-7.5826
2680,-7.8173,1.4945,-5.4415,45.1478,-9.6,-8.5565
2685,-8.0089,1.5328,-5.4798,40.2087,-9.3217,-8.9043
2690,-8.0473,0.958,-5.2882,35.4087,-8.8348,-8.9739
2695,-8.0089,1.1113,-5.4798,30.6783,-8.2783,-9.0435
2700,-8.2389,1.1879,-5.2499,26.3652,-8.0696,-9.113
2705,-8.2005,0.2682,-5.3648,23.0957,-7.8609,-8.4174
2710,-8.4688,0.0383,-5.5181,19.8261,-8.6261,-9.2522
2715,-8.6987,0.0383,-5.4798,17.0435,-9.113,-9.3913
2720,-8.7754,-0.2299,-5.7097,14.6087,-9.4609,-9.4609
2725,-8.8903,-0.4598,-5.7864,11.9652,-9.4609,-9.7391
2730,-9.2352,-0.4982,-5.8247,9.8087,-9.9478,-10.2957
2735,-9.2352,-0.7664,-5.748,7.7913,-10.9217,-11.4783
2740,-9.1969,-0.4215,-5.978,6.0522,-11.3391,-12.5913
2745,-9.6184,-0.3449,-6.3995,4.5217,-11.2696,-13.3565
2750,-9.5034,0.0383,-6.3229,2.9217,-10.9913,-13.8435
2755,-9.5801,0.115,-6.3995,0.6957,-10.2957,-14.2609
2760,-9.5801,0.3066,-6.2845,-2.3652,-9.3217,-14.4696
2765,-9.4651,0.2682,-6.4378,-5.5652,-8.4174,-14.6783
2770,-9.3885,0.5365,-6.4761,-8.7652,-7.6522,-14.9565
2775,-9.2352,0.4598,-6.4761,-11.9652,-7.0957,-15.1652
2780,-9.3118,0.5748,-6.3995,-14.9565,-6.4,-14.8174
2785,-8.967,0.5365,-6.5911,-17.8087,-5.7043,-14.7478
2790,-9.2352,0.6131,-6.5911,-20.7304,-5.4957,-14.6087
2795,-9.0819,0.4982,-6.4378,-23.4435,-5.6348,-14.6087
2800,-9.3502,0.2682,-6.2845,-26.0174,-5.8435,-14.1913
2805,-9.3118,0.6131,-6.5528,-27.687,-5.913,-12.5217
2810,-9.4651,0.8047,-6.5145,-29.1478,-6.1217,-10.4348
2815,-9.2352,0.6131,-6.7061,-30.887,-6.4,-8.3478
2820,-9.2352,0.3066,-6.6677,-32.2087,-6.8174,-6.9565
2825,-9.2352,0.0383,-6.6294,-33.6,-7.513,-6.1217
2830,-9.1969,-0.1533,-6.7061,-34.3652,-8.0,-5.4261
2835,-9.1969,-0.3449,-6.7061,-34.5043,-8.4174,-4.7304
2840,-9.1202,-0.5748,-6.6294,-34.2261,-9.0435,-3.8957
2845,-9.0819,-0.6131,-6.5528,-33.3217,-9.3913,-3.0609
2850,-8.7754,-0.8047,-6.6294,-32.2087,-9.8087,-2.3652
2855,-8.8903,-1.073,-6.4761,-30.6783,-9.9478,-2.0174
2860,-9.0819,-0.9963,-6.3612,-29.1478,-9.9478,-1.7391
2865,-9.1586,-0.7281,-6.0929,-27.0609,-10.2261,-1.3217
2870,-8.8137,-0.8047,-6.1313,-24.3478,-10.3652,-0.0696
2875,-9.0436,-0.5365,-5.863,-22.0522,-10.087,1.1826
2880,-8.8137,-0.3066,-5.7864,-20.4522,-9.5304,2.4348
2885,-8.6987,-0.3449,-5.7864,-19.4087,-8.5565,3.4783
2890,-9.0819,-0.0766,-5.4415,-18.4348,-7.6522,4.4522
2895,-8.5454,-0.1533,-6.5528,-17.9478,-6.8174,5.3565
2900,-8.8137,0.1916,-5.3265,-17.7391,-5.8435,6.0522
2905,-8.4305,-0.1533,-5.6714,-17.7391,-4.7304,6.6087
2910,-8.8137,0.0766,-5.2882,-17.5304,-3.687,7.1652
2915,-8.6221,0.2299,-5.4798,-17.4609,-2.5739,7.4435
2920,-8.4305,-0.115,-5.4415,-17.113,-1.3913,7.7217
2925,-8.3155,0.3449,-5.4798,-16.9043,-0.2087,7.9304
2930,-8.852,0.115,-5.5948,-16.7652,0.9043,8.0
2935,-8.4688,0.1533,-5.3265,-16.2783,2.0174,8.2783
2940,-8.2389,0.1916,-5.4415,-15.7217,3.1304,8.487
2945,-8.3538,0.2682,-5.3648,-15.3043,4.2435,8.6957
2950,-8.6604,0.3449,-5.3648,-14.6087,5.4957,8.9739
2955,-8.5838,0.4215,-5.3648,-13.7739,6.8174,9.0435
2960,-8.4688,0.4598,-5.4032,-13.2174,8.0,9.3217
2965,-8.2772,0.4598,-5.4798,-12.5913,9.1826,9.5304
2970,-8.5838,0.5748,-5.4415,-11.9652,10.2261,9.8783
2975,-8.852,0.958,-5.4798,-11.2696,11.4087,9.9478
2980,-8.4305,0.5748,-5.5948,-10.5043,12.4522,10.2957
2985,-8.3921,0.3832,-5.7097,-9.5304,13.7043,10.5739
2990,-8.7754,0.5365,-5.748,-8.3478,14.9565,10.9913
2995,-8.8137,0.3832,-6.0929,-7.0261,16.3478,11.4087
