timestamp,accX,accY,accZ,gyroX,gyroY,gyroZ
0,-0.7664,-9.2735,3.2189,23.7217,4.5913,-1.2522
5,-0.6898,-9.3885,3.1806,24.1391,4.4522,-1.1826
10,-0.7664,-9.3118,3.1806,24.6957,4.1043,-1.1826
15,-0.7664,-9.3885,3.1423,25.3913,3.8261,-1.2522
20,-0.6131,-9.3118,3.3339,26.2957,3.5478,-1.3217
25,-0.5365,-9.1202,3.6787,27.2696,3.3391,-1.3913
30,-0.6514,-9.2735,3.3722,28.1043,3.2,-1.4609
35,-0.6898,-9.0819,3.3339,28.8696,3.1304,-1.3913
40,-0.6514,-9.1202,3.4105,29.2174,2.9913,-1.3217
45,-0.8047,-9.0053,3.3722,29.7739,2.9217,-1.3913
50,-0.6514,-8.967,3.4105,29.9826,2.8522,-1.3217
55,-0.6131,-9.0053,3.4488,30.1913,2.8522,-1.5304
60,-0.7664,-8.8903,3.4105,30.1913,2.9913,-1.6
65,-0.7281,-8.8903,3.4488,30.1217,3.1304,-1.6
70,-0.6514,-8.8137,3.4488,29.913,3.3391,-1.8087
75,-0.6898,-8.852,3.5638,29.4957,3.4783,-1.8783
80,-0.6898,-8.9286,3.4871,29.0783,3.687,-1.9478
85,-0.5748,-9.0053,3.6021,28.8,3.8261,-2.0174
90,-0.6514,-9.0053,3.7171,28.3826,3.687,-2.087
95,-0.5748,-8.967,3.6404,28.0348,3.5478,-2.087
100,-0.6898,-8.967,3.5638,27.687,3.5478,-2.087
105,-0.7281,-8.9286,3.6404,27.4783,3.4087,-2.2957
110,-0.6514,-9.0053,3.6404,27.4087,3.3391,-2.3652
115,-0.7281,-9.0819,3.6404,27.2,3.2696,-2.5043
120,-0.6514,-9.0053,3.6787,27.2696,3.3391,-2.5739
125,-0.8047,-9.0053,3.7171,27.3391,3.2,-2.5739
130,-0.6898,-8.8903,3.832,27.2696,3.1304,-2.6435
135,-0.6898,-9.0436,3.5638,27.2,3.0609,-2.6435
140,-0.6898,-9.0053,3.6787,27.1304,2.7826,-2.5739
145,-0.7664,-9.0436,3.7937,26.9913,2.5043,-2.713
150,-0.7281,-9.0436,3.8704,26.8522,2.2261,-2.8522
155,-0.6898,-9.0436,4.0236,27.0609,1.7391,-2.9913
160,-0.8814,-8.9286,3.947,27.3391,1.3217,-3.1304
165,-0.8047,-8.9286,3.9087,27.687,0.9043,-3.2696
170,-0.7664,-8.852,3.947,28.0348,0.3478,-3.4087
175,-0.7664,-8.852,4.062,28.4522,0.0,-3.7565
180,-0.6514,-8.8137,4.0236,28.6609,-0.2087,-3.9652
185,-0.6131,-8.6221,4.0236,28.8696,-0.4174,-4.1739
190,-0.7664,-8.3921,4.1769,29.2174,-0.2783,-4.1739
195,-0.7281,-8.3921,4.1003,29.3565,-0.2783,-4.3826
200,-0.7664,-8.3155,4.1769,29.287,0.0,-4.3826
205,-0.7664,-8.2005,4.1386,28.9391,0.4174,-4.1043
210,-0.6514,-8.4305,4.1386,28.4522,0.9739,-3.8261
215,-0.7664,-8.4305,4.1769,27.5478,1.6,-3.6174
220,-0.6898,-8.3538,4.2152,26.3652,2.0174,-3.6174
225,-0.6514,-8.4305,4.2536,24.9739,1.9478,-3.8957
230,-0.6514,-8.4688,4.2152,23.7217,1.5304,-4.2435
235,-0.5748,-8.4688,4.1769,22.4696,0.8348,-4.8
240,-0.4215,-8.5454,4.1769,21.4957,0.3478,-5.2174
245,-0.4982,-8.4688,4.4452,20.1739,0.0,-5.4957
250,-0.3832,-8.9286,4.2536,18.7826,-0.1391,-5.5652
255,-0.3449,-8.967,4.2152,17.8087,-0.2087,-5.4261
260,-0.4982,-9.0436,4.2536,17.3913,0.1391,-5.1478
265,-0.4982,-9.1586,4.2536,18.0174,0.487,-5.0087
270,-0.5365,-9.1202,4.4068,19.4783,0.9739,-5.0087
275,-0.5748,-9.0819,4.4068,21.1478,1.4609,-4.9391
280,-0.5748,-9.0436,4.4452,23.1652,2.087,-4.8
285,-0.6514,-8.7754,4.4835,25.0435,2.6435,-4.8696
290,-0.6514,-8.737,4.4835,26.5043,2.7826,-5.0087
295,-0.6514,-8.6221,4.4068,27.3391,2.9913,-5.0783
300,-0.6898,-8.4688,4.3302,27.6174,3.0609,-5.0783
305,-0.6514,-8.3538,4.4835,27.2,3.0609,-5.2174
310,-0.5365,-8.2389,4.3302,26.2261,2.7826,-5.4957
315,-0.3832,-8.3538,4.4452,25.0435,2.713,-5.4261
320,-0.3832,-8.4305,4.4068,24.1391,2.4348,-5.3565
325,-0.2682,-8.4688,4.2919,23.7217,1.7391,-5.5652
330,-0.3832,-8.5838,4.2919,23.5826,1.1826,-5.8435
335,-0.3832,-8.8137,4.4452,23.9304,0.7652,-5.7739
340,-0.2299,-8.8137,4.5218,24.9739,0.8348,-5.5652
345,-0.2682,-8.8137,4.3685,26.713,1.0435,-5.4261
350,-0.4215,-9.1202,4.5218,29.0783,1.4609,-5.0783
355,-0.2682,-9.0436,4.4835,32.2783,2.087,-5.0087
360,-0.1533,-9.1202,4.3685,35.9652,2.5043,-5.3565
365,-0.115,-9.1202,4.4452,39.9304,2.7826,-5.5652
370,-0.0766,-8.9286,4.4068,43.687,2.7826,-5.8435
375,0.0,-8.7754,4.1386,46.7478,2.713,-5.9826
380,-0.2299,-8.6221,4.3685,48.5565,2.2957,-6.2609
385,-0.2299,-8.6604,4.3685,49.3217,2.0174,-6.4696
390,-0.3832,-8.3921,4.4452,48.5565,2.087,-6.4
395,-0.115,-8.3921,4.5218,46.5391,2.4348,-6.4696
400,-0.115,-8.4305,4.5601,44.1043,3.0609,-6.6087
405,-0.0383,-8.3538,4.7134,41.6696,3.4783,-6.6087
410,-0.0766,-8.4688,4.7517,39.8609,3.687,-6.4
415,-0.1533,-8.3921,4.9433,39.2348,3.8261,-6.2609
420,-0.0383,-8.4688,4.9816,39.7913,4.313,-5.8435
425,-0.115,-8.3155,4.9433,41.3913,4.9391,-5.3565
430,-0.2682,-8.2005,4.8284,43.7565,5.7043,-4.7304
435,-0.2682,-8.0089,4.79,46.4,6.2609,-4.4522
440,-0.115,-7.9323,4.8667,49.113,6.9565,-4.4522
445,-0.3449,-7.779,4.6751,51.4783,7.7913,-4.6609
450,-0.3066,-7.5491,4.7517,52.9391,8.6957,-4.9391
455,-0.0766,-7.3958,4.6368,53.5652,9.7391,-5.287
460,-0.0766,-7.3575,4.6751,52.7304,10.6435,-5.5652
465,-0.1916,-7.0126,4.9433,50.087,11.4087,-5.7739
470,-0.2682,-6.7827,4.9433,45.5652,11.9652,-5.7043
475,-0.2682,-6.6294,4.9816,39.3739,12.4522,-5.7043
480,-0.3066,-6.7061,5.02,32.6957,12.7304,-5.4957
485,-0.1916,-6.8977,5.0583,26.6435,13.2174,-5.0783
490,-0.2682,-7.2042,5.0966,22.5391,13.6348,-4.8696
495,-0.2299,-7.6641,5.0583,21.0087,13.913,-5.2174
500,-0.2299,-7.9706,5.0583,21.913,13.7043,-5.4957
505,-0.3449,-8.3155,5.0583,24.4174,12.9391,-6.1217
510,-0.3832,-8.3921,5.0583,27.8957,11.8261,-6.887
515,-0.4982,-8.4305,5.0583,31.7913,10.6435,-7.5826
520,-0.6898,-8.2772,5.0583,35.2,9.2522,-8.0696
525,-0.7281,-8.2005,5.1349,37.7739,7.9304,-8.2783
530,-0.8814,-8.0856,5.1732,39.1652,6.8174,-8.4174
535,-0.7281,-8.0473,5.2499,39.4435,5.9826,-8.3478
540,-0.8814,-7.779,5.2116,38.5391,5.2174,-7.9304
545,-0.8814,-7.7024,5.3648,36.8,4.5913,-7.5826
550,-0.958,-7.3575,5.2499,34.3652,3.7565,-7.2348
555,-1.0346,-7.2042,5.2882,31.513,2.9217,-6.4
560,-0.9963,-7.2042,5.3648,28.4522,2.087,-5.9826
565,-0.9197,-7.3575,5.4032,26.087,1.3913,-5.4261
570,-1.1113,-7.3958,5.2116,24.6261,0.5565,-5.0783
575,-0.8814,-7.4725,5.6714,24.487,-0.3478,-4.9391
580,-1.0346,-7.5491,5.6714,25.3913,-1.0435,-4.9391
585,-0.9963,-7.6641,5.7097,27.2,-1.7391,-5.0087
590,-0.9197,-7.7024,5.7864,29.2174,-2.4348,-5.0087
595,-0.843,-7.6257,5.7864,31.2348,-3.3391,-5.0783
600,-0.6898,-7.7024,5.8247,32.9739,-4.1043,-4.7304
605,-0.7664,-7.5491,5.7864,34.5043,-4.8696,-4.4522
610,-0.6898,-7.5491,5.9013,35.5478,-5.5652,-4.2435
615,-0.6514,-7.3575,5.978,35.9652,-6.0522,-3.8957
620,-0.5365,-7.2042,6.0163,35.5478,-6.4696,-3.7565
625,-0.3832,-7.1276,5.9396,34.5043,-6.6783,-3.6174
630,-0.4598,-7.0126,6.0546,32.9739,-6.7478,-3.4783
635,-0.2682,-6.936,6.3612,30.887,-6.6087,-3.3391
640,-0.2299,-6.8593,6.3229,28.7304,-6.4,-3.2696
645,-0.1533,-7.0126,6.3612,26.6435,-6.2609,-3.3391
650,-0.2682,-6.7827,6.4761,24.8348,-5.7043,-3.5478
655,-0.2299,-6.8593,6.6294,23.513,-4.8,-3.687
660,-0.1533,-7.0126,6.6294,22.5391,-3.8261,-3.9652
665,-0.115,-7.0893,6.6677,22.1217,-2.8522,-4.4522
670,0.0,-7.2809,6.7444,21.8435,-1.6,-4.8696
675,0.0,-7.2042,6.7827,21.9826,-0.6957,-5.2174
680,-0.0383,-7.3192,6.5911,22.6783,0.1391,-5.4957
685,-0.0766,-7.2425,6.6677,23.7217,0.4174,-5.4957
690,0.0,-7.2042,6.5145,25.1826,0.5565,-5.5652
695,0.0,-7.0509,6.3612,26.9913,0.7652,-5.6348
700,0.0,-6.9743,6.2462,28.8,1.113,-5.9826
705,0.0,-6.9743,6.1313,30.6783,1.3217,-6.1913
710,-0.1533,-6.821,6.0163,32.2783,1.5304,-6.5391
715,-0.1533,-6.7444,6.0546,33.6696,1.8087,-6.8174
720,0.0383,-6.6294,6.2079,35.0609,1.9478,-7.3043
725,-0.0383,-6.5528,6.4761,36.3826,1.8783,-7.8609
730,0.0383,-6.5911,6.5528,37.287,1.6696,-8.1391
735,-0.0383,-6.3229,6.5911,37.7739,1.4609,-8.5565
740,0.0,-6.1696,6.6294,37.7043,1.1826,-8.9739
745,0.0,-6.1696,6.6294,36.9391,1.3217,-9.3913
750,0.0383,-6.0929,6.7444,36.0348,1.6,-9.8087
755,-0.0383,-5.978,6.7444,34.9217,2.087,-10.2261
760,-0.115,-6.0163,6.5528,33.3913,2.6435,-10.5739
765,-0.115,-6.1313,6.3995,31.9304,3.4783,-10.9913
770,-0.0383,-6.2845,6.5145,30.8174,4.3826,-11.5478
775,-0.0383,-6.3995,6.3995,30.1217,4.8696,-12.1043
780,0.0,-6.4378,6.4378,30.0522,5.1478,-12.8
785,0.0383,-6.5528,6.4761,30.3304,5.0087,-13.287
790,0.0383,-6.5528,6.4378,30.887,4.5217,-13.5652
795,0.0383,-6.6294,6.3612,31.3739,3.8957,-13.6348
800,0.0,-6.6294,6.4378,31.7217,3.2,-13.7043
805,0.0766,-6.7444,6.5528,32.2087,2.3652,-13.913
810,0.0,-6.7061,6.6294,32.5565,1.7391,-14.1913
815,0.0766,-6.8593,6.7444,33.0435,0.9739,-14.3304
820,0.0383,-6.7827,6.6677,33.4609,0.2783,-14.5391
825,0.1533,-6.8593,6.821,34.0174,-0.3478,-14.5391
830,0.0,-6.7061,6.7827,34.9217,-0.5565,-14.5391
835,0.0383,-6.821,6.7444,36.0348,-0.6957,-14.6087
840,0.0383,-6.821,6.6677,37.4261,-0.5565,-14.5391
845,0.0,-6.7827,6.7061,38.887,-0.4174,-14.2609
850,0.115,-6.6677,6.6677,39.8609,-0.4174,-13.913
855,0.115,-6.5145,6.8593,40.6957,-0.4174,-13.4957
860,0.0766,-6.5145,6.8593,41.0435,-0.5565,-13.2174
865,0.0383,-6.4378,6.936,41.113,-0.7652,-13.0087
870,0.0,-6.4378,7.0509,41.113,-1.0435,-12.7304
875,0.115,-6.5528,7.0509,41.2522,-1.1826,-12.5913
880,0.0,-6.3229,7.1659,41.5304,-1.2522,-12.7304
885,0.0,-6.2845,7.1276,41.6,-1.1826,-12.6609
890,-0.115,-6.1696,7.2042,41.5304,-1.1826,-12.7304
895,0.0383,-5.978,7.6641,40.8348,-0.9043,-12.9391
900,0.0,-6.0929,7.1276,39.8609,-0.9043,-13.1478
905,0.115,-6.2079,7.0126,39.0957,-1.4609,-13.4261
910,0.3066,-6.3229,7.0509,38.887,-2.087,-13.5652
915,0.2682,-6.4378,6.9743,39.2348,-2.713,-13.913
920,0.3449,-6.6294,7.0126,40.0,-2.9217,-14.4
925,0.4598,-6.5528,7.1276,41.113,-2.9217,-15.0261
930,0.4215,-6.4378,7.2809,41.8783,-2.6435,-15.7913
935,0.4215,-6.1696,7.0893,42.087,-1.9478,-16.487
940,0.3449,-5.978,7.1659,41.6,-1.113,-17.113
945,0.4982,-6.0163,7.4341,40.6957,-0.1391,-17.8783
950,0.3832,-5.9396,7.4341,39.3739,1.1826,-18.3652
955,0.3066,-6.1696,7.4341,38.1913,2.5043,-19.0609
960,0.3832,-6.2079,7.2809,37.6348,3.2696,-19.687
965,0.2682,-6.2845,7.2809,38.3304,3.6174,-20.313
970,0.2299,-6.4761,7.2809,40.2087,3.687,-20.8696
975,0.3066,-6.5911,7.0126,43.2,3.687,-21.4957
980,0.2682,-6.6294,6.821,46.5391,3.6174,-22.1913
985,0.4598,-6.6677,6.8593,49.8783,3.3391,-22.8174
990,0.5365,-6.5911,6.821,52.9391,2.9217,-23.2348
995,0.6131,-6.2845,6.7061,55.1652,2.5739,-23.7217
1000,0.843,-6.2462,6.6677,56.9043,2.3652,-24.2783
1005,0.8047,-6.1696,6.821,57.8783,2.5739,-24.6261
1010,0.7281,-5.863,6.821,58.5739,2.8522,-25.0435
1015,0.7281,-5.8247,6.8593,59.2,3.3391,-25.3913
1020,0.6898,-5.7097,7.0126,60.1043,4.1043,-25.7391
1025,0.5748,-5.6714,7.0126,61.287,4.9391,-25.8783
1030,0.4982,-5.5564,6.821,62.7478,5.7043,-26.2261
1035,0.3066,-5.5181,6.821,64.6261,6.4,-26.713
1040,0.3449,-5.2499,6.7061,66.8522,6.8174,-27.2
1045,0.4598,-5.2882,6.7444,68.8696,7.513,-27.3391
1050,0.4598,-5.0966,6.5911,70.3304,8.0696,-27.4087
1055,0.4982,-5.02,6.8593,70.8174,8.6957,-27.4783
1060,0.4982,-5.0583,6.7827,70.8174,9.1826,-27.3391
1065,0.6131,-5.02,6.936,70.6783,9.4609,-26.9913
1070,0.4982,-4.905,6.7827,70.4696,9.3217,-26.4348
1075,0.5748,-5.0583,6.7061,70.6087,8.9043,-25.8783
1080,0.4982,-5.1349,6.7444,71.513,8.1391,-25.1826
1085,0.5365,-5.2499,6.7444,73.3913,7.0957,-24.6261
1090,0.5365,-5.4032,6.6677,76.1043,5.7739,-24.2087
1095,0.3449,-5.4798,6.8593,79.1652,4.0348,-23.9304
1100,0.4598,-5.5181,6.7827,82.3652,2.1565,-23.7217
1105,0.2299,-5.3648,6.8593,85.2174,0.4174,-23.7217
1110,0.1533,-5.2882,6.7827,87.5826,-0.9739,-23.7913
1115,0.1533,-5.2499,6.4761,89.6696,-1.9478,-23.7913
1120,0.115,-5.2882,6.6294,91.4783,-2.4348,-23.6522
1125,0.0766,-5.2882,6.5145,93.5652,-2.3652,-23.513
1130,0.0383,-5.2882,6.5911,95.7217,-2.1565,-23.0957
1135,0.0766,-5.02,6.6677,98.0174,-1.8087,-22.7478
1140,0.1533,-4.8284,6.5911,100.313,-1.3913,-22.3304
1145,0.2682,-4.7517,6.821,102.4,-0.8348,-21.913
1150,0.3832,-4.4452,7.0893,104.2783,0.0,-21.913
1155,0.5748,-4.2919,7.3575,105.8783,1.1826,-21.7043
1160,0.8047,-3.8704,7.4341,106.9217,2.713,-21.287
1165,1.1113,-3.3722,7.5491,106.9913,4.7304,-21.0087
1170,1.6095,-3.1039,7.5491,105.5304,7.5826,-20.8696
1175,1.8011,-2.6824,7.5108,102.887,11.1304,-20.5217
1180,2.2226,-2.6824,7.6257,99.687,15.513,-20.0348
1185,2.2609,-2.9123,7.4725,97.113,20.0348,-19.7565
1190,1.9927,-2.9123,7.5874,95.6522,24.9043,-19.6174
1195,1.9927,-3.2189,7.6641,95.4435,28.9391,-19.4087
1200,1.7244,-3.2955,7.6257,96.2783,32.3478,-18.7826
1205,1.6478,-3.3722,7.4341,97.5304,34.713,-18.0174
1210,1.3412,-3.3339,7.5874,98.6435,36.313,-17.3913
1215,1.1113,-3.3339,7.5108,99.4087,37.0783,-16.7652
1220,0.8047,-3.2572,7.5108,99.4783,37.4261,-16.4174
1225,0.1916,-2.7207,7.4341,98.5043,37.9826,-16.1391
1230,0.0766,-2.7207,7.4341,96.5565,39.3043,-16.0696
1235,0.0,-2.4525,7.2042,93.9826,41.7391,-15.5826
1240,-0.115,-2.2609,7.2042,91.2,45.0087,-14.4
1245,-0.0766,-2.0693,7.0509,88.4174,48.6261,-12.313
1250,0.0,-1.9927,7.0509,86.1913,52.0348,-9.9478
1255,0.2299,-1.9927,6.8977,84.8,54.4696,-7.3739
1260,0.3832,-1.9927,6.821,84.5913,55.6522,-4.4522
1265,0.4982,-1.6861,6.5145,84.9391,55.5826,-1.6
1270,0.7281,-1.7244,6.5528,85.7043,54.7478,0.9739
1275,0.6898,-1.6861,6.2845,85.9826,53.3565,2.9913
1280,0.8047,-1.6095,5.9013,85.7043,51.8957,4.8
1285,0.6898,-1.3795,5.6331,84.5217,51.0609,6.0522
1290,0.5365,-1.3029,5.3648,82.5043,51.2,6.4
1295,0.3449,-1.0346,4.9433,80.0,51.8261,5.7739
1300,0.2299,-0.7664,4.4452,76.5913,53.0783,5.1478
1305,0.0766,-0.4598,4.3302,72.2783,54.9565,4.313
1310,0.0383,-0.4215,3.947,67.6174,57.3913,3.9652
1315,-0.115,-0.1533,3.4488,63.2348,59.6174,4.2435
1320,-0.3449,-0.115,3.1806,59.687,61.913,5.287
1325,-0.6898,0.0383,2.6824,56.8348,64.0696,6.887
1330,-0.6514,0.0383,2.2226,55.1652,64.9739,8.1391
1335,-1.0346,0.115,1.8011,54.5391,65.113,9.3913
1340,-0.9963,0.0,1.8777,54.4,64.1391,10.2957
1345,-1.2646,0.0383,1.6861,54.6087,62.1217,10.713
1350,-1.4945,0.0766,2.031,54.887,59.4087,10.6435
1355,-1.4562,-0.0383,2.3375,55.5826,55.7217,10.5739
1360,-1.3029,-0.4215,2.5291,56.7652,51.2696,10.4348
1365,-1.2646,-0.8814,3.2189,59.1304,47.5826,9.8783
1370,-1.1496,-1.3412,3.947,63.4435,44.0348,9.5304
1375,-1.1496,-2.031,4.4835,69.0783,41.113,9.3913
1380,-0.8047,-2.6058,4.9816,75.6174,37.5652,9.4609
1385,-0.6514,-3.0273,5.6331,83.4087,33.1826,9.6696
1390,-0.5748,-3.4105,6.3229,91.687,27.8957,9.5304
1395,-0.5748,-3.2189,6.5528,99.687,22.0522,9.2522
1400,-0.7664,-2.6824,6.7061,106.7826,15.4435,9.6
1405,-0.8047,-2.1459,6.7444,112.487,8.6261,10.9913
1410,-0.8814,-1.2263,6.7061,115.4087,1.3913,13.4261
1415,-1.1113,-0.0383,6.6294,114.5043,-5.9826,16.4174
1420,-1.2646,0.3832,6.5911,109.9826,-13.287,19.4783
1425,-1.5328,1.1113,6.5911,101.3565,-19.8261,22.5391
1430,-1.8394,1.8011,7.1659,92.9391,-26.7826,25.6
1435,-1.9927,2.4525,7.7024,85.4261,-34.7826,28.1739
1440,-2.3375,2.9123,8.8903,78.887,-42.3652,29.7739
1445,-2.6058,3.0656,9.3502,71.3043,-49.4609,29.7043
1450,-2.4908,3.1039,10.4614,61.4957,-55.8609,27.6174
1455,-2.3759,2.874,11.5344,50.4348,-60.0348,24.1391
1460,-2.4142,2.9123,12.9139,40.5565,-62.7478,22.1913
1465,-1.7244,2.6824,13.5271,28.6609,-66.9217,23.513
1470,-0.1916,1.916,15.4048,13.7043,-67.4783,25.6
1475,1.6095,0.6514,17.1675,2.087,-60.1043,26.0174
1480,3.6021,-0.3449,19.3134,-5.5652,-45.913,25.0435
1485,5.1349,-1.073,21.6127,-9.2522,-26.5739,22.2609
1490,5.7864,-1.4945,23.6053,-8.9739,-6.1913,19.687
1495,6.6677,-1.6861,24.9465,-4.7304,13.0087,18.5043
1500,7.779,-1.916,25.7129,1.8087,29.9826,15.3739
1505,7.894,-1.7244,25.6746,10.713,43.7565,7.5826
1510,6.8593,-0.8047,24.7932,21.913,53.2174,-1.9478
1515,4.2152,0.3832,22.9922,31.8609,55.6522,-8.5565
1520,2.2992,0.7664,21.4211,35.9652,52.2435,-10.5043
1525,0.4982,0.8814,20.3864,32.9739,48.0696,-8.6957
1530,-1.0346,0.8047,19.8882,26.713,47.7217,-6.5391
1535,-2.4142,0.5748,19.1218,22.5391,49.5304,-3.687
1540,-3.0656,0.1533,18.5087,23.0957,50.1565,3.1304
1545,-3.5638,-0.4215,16.9759,29.7043,48.487,12.313
1550,-4.6751,-0.2682,15.4431,39.8609,45.0087,21.6348
1555,-4.9433,0.3066,13.9869,51.8957,39.2348,31.2348
1560,-4.5218,1.1113,12.3775,63.0261,33.113,39.5826
1565,-3.7171,2.5675,11.4961,69.0087,28.1739,43.7565
1570,-3.0656,4.1003,10.9596,69.0087,24.5565,42.7826
1575,-2.3759,5.6331,11.6877,66.3652,20.9391,40.6261
1580,-1.6861,7.0126,12.3391,64.6957,16.5565,39.1652
1585,-0.5748,8.0856,12.799,63.8609,11.5478,36.7304
1590,0.1533,8.852,12.8756,63.4435,5.3565,32.2087
1595,0.6514,9.1202,12.1859,63.2348,-1.113,26.9217
1600,0.4982,8.7754,11.2662,63.6522,-6.4696,22.4696
1605,0.6514,8.1239,10.0016,66.7826,-11.7565,20.6609
1610,0.958,7.5491,8.8137,72.1391,-15.2348,21.5652
1615,1.1113,6.9743,7.4725,78.6783,-16.2087,23.7217
1620,1.4562,6.5911,6.5911,84.3826,-15.0261,25.7391
1625,1.3029,6.5911,5.7097,88.0696,-13.0783,27.687
1630,1.7627,6.821,5.2116,89.2522,-11.5478,29.7739
1635,2.3375,7.1276,4.9433,88.0696,-9.113,31.7217
1640,2.7207,7.779,5.02,84.0348,-5.0783,32.8348
1645,3.1423,8.967,5.6714,77.4957,0.0,32.1391
1650,3.2189,10.0399,6.2845,67.7565,5.6348,30.1913
1655,3.1039,10.4614,6.6294,54.4696,11.687,27.3391
1660,2.7974,10.5381,6.821,39.7217,17.2522,23.6522
1665,2.1076,10.3848,7.1276,26.5043,21.1478,18.9217
1670,1.3795,10.0399,7.0126,17.1826,23.5826,13.3565
1675,0.5748,9.695,7.3575,9.2522,26.2261,7.7217
1680,-0.3449,9.3502,7.5491,1.1826,29.3565,2.6435
1685,-1.1879,8.967,8.1239,-8.0,33.3217,-1.0435
1690,-2.031,8.4688,8.2772,-18.5043,37.0087,-1.9478
1695,-2.4142,7.6641,8.6221,-29.1478,38.6783,-0.2087
1700,-2.9123,6.9743,8.852,-36.1739,36.3826,2.5043
1705,-2.9123,6.0163,9.2735,-39.2348,29.5652,5.3565
1710,-2.874,5.2499,9.2352,-38.0522,20.4522,8.6261
1715,-2.7591,5.0583,9.1586,-33.3217,10.1565,11.6174
1720,-2.2992,4.5218,8.967,-28.1043,0.487,13.6348
1725,-1.8011,4.1769,8.8137,-22.3304,-7.513,14.1217
1730,-1.5328,4.2919,8.8137,-17.8783,-12.9391,12.8
1735,-1.1496,4.4452,8.5838,-16.487,-16.0,10.4348
1740,-0.8814,4.4835,8.6604,-18.087,-17.0435,7.0957
1745,-0.8814,4.7134,8.7754,-21.6348,-16.4174,2.8522
1750,-0.5365,4.8667,8.737,-25.8087,-14.5391,-1.8087
1755,-0.3066,4.9816,8.5454,-29.9826,-11.3391,-6.6087
1760,-0.2682,5.0966,8.5838,-33.8783,-7.1652,-10.8522
1765,-0.115,5.2499,8.4688,-37.7043,-2.5043,-13.7043
1770,0.2682,5.4798,8.0856,-41.4609,1.9478,-14.7478
1775,0.2299,5.2116,8.5071,-44.9391,5.8435,-14.4
1780,0.3066,5.2499,8.5454,-48.6261,8.6261,-12.6609
1785,0.4598,5.2116,8.4688,-51.6174,10.087,-9.6696
1790,0.4598,4.79,8.4688,-52.6609,9.6,-6.2609
1795,0.3832,4.5218,8.2772,-51.0609,7.5826,-2.9217
1800,0.1916,3.9853,8.2389,-46.9565,4.313,-0.2783
1805,0.115,3.6404,8.1622,-40.8348,-0.1391,1.5304
1810,-0.115,3.2955,8.5454,-33.5304,-5.4957,2.1565
1815,-0.3066,3.1806,8.6604,-26.5043,-10.9913,2.087
1820,-0.5365,3.2189,8.6604,-21.3565,-16.0,1.5304
1825,-0.6898,3.4105,8.852,-18.2957,-20.1739,0.5565
1830,-0.6131,3.4105,9.0436,-16.2087,-22.9565,-0.2783
1835,-0.8814,3.4105,8.8903,-13.5652,-24.0696,-1.2522
1840,-0.6898,3.1806,8.6604,-9.8783,-23.6522,-2.5043
1845,-0.5748,3.1039,8.5454,-5.913,-21.5652,-3.8957
1850,-0.3449,2.9507,8.5454,-2.5739,-18.087,-5.0783
1855,-0.1533,2.9123,8.7754,-0.6261,-14.1217,-5.9826
1860,0.0,2.8357,8.8903,-0.9043,-9.8783,-6.6087
1865,0.0766,2.8357,9.0053,-2.4348,-6.0522,-6.7478
1870,0.4598,2.7591,9.4268,-4.9391,-2.2261,-6.6087
1875,0.6514,2.6824,9.7717,-7.4435,1.113,-6.3304
1880,0.7281,2.4908,10.1166,-9.5304,4.1739,-6.2609
1885,0.843,2.1843,9.8483,-10.713,6.6087,-6.1913
1890,0.958,1.9543,10.0782,-10.713,8.5565,-6.1217
1895,1.073,1.6478,10.0782,-9.6696,10.0174,-5.7739
1900,1.0346,1.2646,10.0016,-7.3739,10.7826,-5.287
1905,0.8047,1.2646,9.8866,-4.313,10.7826,-4.5913
1910,0.7281,1.2263,9.7334,-0.9739,10.0174,-4.1739
1915,0.6131,1.1879,9.7334,2.2261,8.3478,-3.8957
1920,0.4215,1.2263,9.4651,4.9391,6.2609,-3.9652
1925,0.2299,1.2646,9.5034,6.8174,3.7565,-4.1043
1930,0.115,1.2646,9.2352,7.6522,1.2522,-4.3826
1935,0.0,1.2646,9.0819,7.3043,-0.487,-4.8696
1940,-0.0383,1.3412,9.1202,6.3304,-1.6,-5.3565
1945,-0.1533,1.2646,9.0053,4.7304,-2.087,-5.7739
1950,-0.1916,1.3412,9.0053,2.9913,-1.9478,-5.7739
1955,-0.1533,1.4179,9.0436,1.3913,-1.1826,-5.6348
1960,-0.1533,1.3029,8.967,-0.1391,-0.2783,-5.2174
1965,0.0,1.1496,9.0436,-1.3913,0.9739,-4.7304
1970,0.0383,1.0346,9.1202,-2.2261,2.2957,-3.8957
1975,0.115,1.0346,9.0819,-2.6435,3.6174,-3.0609
1980,0.2682,0.7664,9.1586,-2.5739,5.0087,-2.2957
1985,0.3066,0.9197,9.3885,-2.0174,6.3304,-1.3913
1990,0.3449,0.7664,9.0819,-1.5304,7.513,-0.6261
1995,0.3066,0.5365,9.3502,-0.6957,8.4174,0.0696
2000,0.3449,0.5365,9.2735,0.9043,8.8348,0.487
2005,0.2299,0.5365,9.4651,2.2261,9.0435,0.9739
2010,0.1533,0.6514,9.3502,3.2696,9.1826,1.4609
2015,0.0766,0.7281,9.3885,3.9652,9.2522,1.8087
2020,0.0383,0.7664,9.5034,4.1043,9.6,2.2957
2025,-0.115,0.843,9.695,4.4522,9.4609,2.713
2030,-0.0766,0.843,9.7334,5.1478,8.9739,3.4087
2035,-0.2682,1.1113,9.6184,5.7043,8.487,3.9652
2040,-0.4215,1.1113,9.81,5.5652,8.1391,4.3826
2045,-0.4982,1.1113,9.7717,5.2174,7.7217,4.9391
2050,-0.6131,1.2646,9.81,4.5913,7.513,5.4261
2055,-0.6898,1.2263,9.3885,4.0348,7.2348,5.913
2060,-0.6514,1.2646,9.6567,2.3652,7.6522,6.1217
2065,-0.6514,1.2646,9.6184,0.6957,8.2783,6.3304
2070,-0.6898,1.2646,9.6184,-0.1391,8.2783,6.6783
2075,-0.4215,1.1496,9.4651,-0.6261,8.487,6.6783
2080,-0.4598,1.1113,9.4268,-1.2522,8.8348,6.4
2085,-0.2682,1.1113,9.4268,-1.3217,9.2522,5.913
2090,-0.115,1.073,9.3118,-1.3913,9.3217,5.5652
2095,-0.3832,1.2263,9.0819,-1.5304,8.9043,5.3565
2100,-0.0383,1.1879,9.1202,-2.5043,8.6261,5.287
2105,-0.1533,1.2263,9.4268,-3.1304,7.8609,4.8696
2110,-0.115,1.2646,9.3502,-2.713,6.6087,4.3826
2115,-0.0766,1.3795,9.2735,-1.8087,5.4261,3.8957
2120,-0.3066,1.4562,9.2352,-0.9739,4.6609,3.8261
2125,-0.3449,1.5711,9.1202,-0.2087,4.5217,3.9652
2130,-0.3832,1.6861,9.0819,0.3478,4.6609,4.1739
2135,-0.4598,1.8011,9.0053,0.6957,5.3565,4.1739
2140,-0.3449,1.916,9.0053,0.1391,6.6087,4.2435
2145,-0.4982,2.0693,9.1202,-0.1391,7.7913,3.9652
2150,-0.3832,2.031,9.1202,0.487,8.487,3.8261
2155,-0.2682,2.0693,9.0053,1.1826,8.9043,3.8261
2160,-0.1533,2.0693,9.2735,1.3913,9.2522,3.687
2165,-0.1916,2.1459,9.1202,1.7391,9.113,3.6174
2170,-0.0766,2.2992,9.1969,1.3913,8.9739,3.2
2175,0.0,2.2226,9.3118,1.113,8.5565,2.713
2180,0.0383,2.3375,9.3118,1.0435,7.6522,2.0174
2185,0.0383,2.4142,9.3118,0.9043,6.887,1.1826
2190,0.0,2.6058,9.1202,0.487,6.1913,0.487
2195,0.0,2.6824,9.3885,-0.0696,5.7043,-0.1391
2200,-0.1916,2.7207,9.4268,-0.9739,5.3565,-0.6261
2205,-0.1916,2.7591,9.4268,-1.3913,4.9391,-0.7652
2210,-0.3832,2.7591,9.3118,-1.9478,4.5217,-0.6261
2215,-0.4215,2.7207,9.3118,-2.8522,4.2435,-0.3478
2220,-0.3066,2.6824,9.3885,-3.4087,3.8957,0.1391
2225,-0.3449,2.6441,9.1586,-3.9652,3.7565,0.6261
2230,-0.2682,2.5675,9.3118,-4.7304,4.0348,1.1826
2235,-0.2682,2.4142,9.3118,-4.8696,4.1739,1.6696
2240,-0.2299,2.3759,9.1586,-4.8,4.5217,2.0174
2245,-0.0766,2.2992,9.1586,-4.7304,5.0783,2.3652
2250,0.0383,2.1843,9.1586,-4.6609,5.7739,2.3652
2255,0.0383,2.1843,9.2352,-4.0348,6.4696,2.2261
2260,0.0766,2.031,9.2735,-2.8522,6.6783,1.8783
2265,0.1533,2.1076,9.0819,-1.2522,6.887,1.4609
2270,0.0766,2.2992,9.2352,0.0696,7.0261,1.2522
2275,0.0766,2.2226,9.2735,0.9739,7.3043,0.9739
2280,0.1533,2.3375,9.1586,1.6696,7.4435,0.6261
2285,0.0,2.4525,9.0819,2.1565,7.3739,0.4174
2290,0.0,2.4525,9.0436,2.1565,7.0957,0.0696
2295,-0.0766,2.4525,9.2352,1.8087,6.6783,-0.0696
2300,-0.1533,2.5675,9.1202,1.3217,5.9826,0.0
2305,-0.115,2.6058,9.3885,0.8348,5.2174,0.0
2310,-0.1916,2.5675,9.3118,0.3478,4.5913,-0.0696
2315,-0.115,2.6058,9.2352,-0.0696,3.8957,0.0696
2320,-0.2682,2.4908,9.3885,-0.4174,3.2696,0.1391
2325,-0.2682,2.4142,9.1586,-1.6,3.2,0.0696
2330,-0.1916,2.4525,9.4268,-3.7565,3.7565,0.1391
2335,-0.1916,2.2992,9.6184,-5.6348,3.8261,0.2783
2340,-0.0766,2.2992,9.4651,-6.0522,3.3391,0.0696
2345,-0.0766,2.1459,9.6184,-6.4,2.9913,0.0696
2350,-0.0383,2.1459,9.5034,-6.4,2.6435,-0.1391
2355,-0.0383,2.1076,9.4651,-6.887,2.5043,-0.0696
2360,-0.0383,2.1076,9.5418,-6.6087,2.1565,-0.2087
2365,-0.115,1.9927,9.3885,-6.1217,1.8783,-0.4174
2370,-0.2299,1.916,9.3885,-5.8435,2.0174,-0.6957
2375,-0.2299,2.1843,9.3502,-5.8435,2.2957,-0.6261
2380,-0.2682,1.916,9.3502,-6.0522,2.713,-0.487
2385,-0.2682,1.8394,9.3502,-6.3304,3.1304,-0.4174
2390,-0.2299,1.7627,9.3885,-6.4696,3.7565,-0.3478
2395,-0.3066,1.8777,9.2735,-6.4,4.2435,-0.2087
2400,-0.2299,1.7244,9.3118,-6.3304,4.8696,-0.2783
2405,-0.3066,1.8777,9.3118,-6.0522,5.4957,-0.2783
2410,-0.115,1.8011,9.5034,-5.7739,5.6348,-0.2783
2415,-0.1916,1.8777,9.1969,-5.5652,5.913,-0.4174
2420,-0.1533,1.916,8.967,-5.7739,6.1913,-0.1391
2425,-0.2299,1.7244,9.3502,-6.1217,6.3304,-0.0696
2430,-0.0766,1.7627,9.3502,-6.1217,6.3304,0.0
2435,-0.115,1.7244,9.1586,-6.1913,6.1913,0.2087
2440,-0.115,1.8394,9.3885,-6.5391,6.3304,0.5565
2445,-0.0766,1.7627,9.2735,-6.9565,6.3304,0.7652
2450,-0.0383,1.7627,9.4268,-7.3739,6.2609,0.8348
2455,0.0,1.6478,9.2735,-7.513,6.1913,0.9043
2460,-0.0383,1.6095,9.3502,-7.3739,6.0522,0.9739
2465,0.0,1.7244,9.3885,-7.3043,5.913,1.113
2470,-0.115,1.6478,9.3118,-7.0261,5.7739,1.3217
2475,0.0,1.6478,9.3502,-6.7478,5.7739,1.3913
2480,-0.115,1.5328,9.4651,-6.5391,5.8435,1.2522
2485,-0.1533,1.6478,9.3502,-6.0522,5.7739,1.1826
2490,-0.115,1.6478,9.4268,-5.913,5.7739,1.1826
2495,-0.115,1.7244,9.3885,-5.8435,5.7043,1.1826
2500,-0.2299,1.7627,9.2352,-5.8435,5.5652,1.2522
2505,-0.1916,1.7627,9.3502,-5.8435,5.4261,1.4609
2510,-0.3832,1.8011,9.3502,-5.913,5.3565,1.6696
2515,-0.1533,1.8011,9.3885,-5.913,5.0783,1.8087
2520,-0.1533,1.7627,9.1969,-6.1217,5.0087,2.0174
2525,-0.2299,1.6861,9.3118,-6.2609,4.8,2.0174
2530,-0.2682,1.8394,9.4268,-6.2609,4.7304,2.0174
2535,-0.2299,1.7244,9.2352,-6.1217,4.5913,2.087
2540,-0.1533,1.7627,9.1969,-5.913,4.5217,2.2261
2545,-0.115,1.8394,9.1586,-5.7739,4.5217,2.2957
2550,-0.1916,1.7627,9.2735,-5.4261,4.4522,2.2957
2555,-0.115,1.8777,9.2735,-5.3565,4.5217,2.3652
2560,-0.0383,1.8011,9.3118,-5.3565,4.8,2.4348
2565,0.0,1.8011,9.1586,-5.3565,4.9391,2.2957
2570,-0.115,1.9543,9.0819,-5.3565,4.8696,2.3652
2575,-0.0383,1.8394,9.2352,-5.4261,4.9391,2.5739
2580,0.0,1.7244,9.2352,-5.4261,4.8696,2.4348
2585,-0.0383,1.916,9.2352,-5.2174,4.8,2.2261
2590,-0.0383,1.8011,9.1969,-5.0783,4.8,2.2957
2595,-0.0383,1.8394,9.2352,-5.0087,4.5913,2.5043
2600,-0.0766,1.8777,9.3885,-4.8,4.3826,2.4348
2605,-0.2299,1.916,9.3502,-4.5217,4.1043,2.2957
2610,-0.0383,1.8777,9.2352,-4.5217,3.9652,2.3652
2615,0.0,1.8394,9.3118,-4.6609,3.9652,2.4348
2620,-0.0383,1.7627,9.3118,-4.5913,3.8957,2.2957
2625,-0.1916,1.8777,9.3885,-4.5913,3.9652,2.3652
2630,-0.1533,1.8011,9.3118,-4.5217,3.9652,2.3652
2635,-0.115,1.9543,9.3885,-4.5217,3.9652,2.5043
2640,-0.2682,1.9543,9.1586,-4.5913,4.0348,2.3652
2645,0.0,1.8777,9.1969,-4.7304,3.8957,2.4348
2650,-0.0766,1.7244,9.3118,-4.8696,3.8957,2.3652
2655,-0.0383,1.916,9.1969,-4.8696,3.687,2.2957
2660,-0.0383,1.916,9.2735,-4.8,3.687,2.2261
2665,0.0,1.8394,9.2735,-4.5913,3.7565,2.2261
2670,-0.1533,1.8394,9.3118,-4.313,3.687,2.2957
2675,-0.1916,1.8011,9.2735,-3.687,3.687,2.1565
2680,-0.1916,1.8011,9.1586,-2.9913,3.7565,2.087
2685,-0.115,1.6861,9.1586,-2.3652,3.687,2.087
2690,-0.1916,1.7244,9.1202,-1.6696,3.7565,2.1565
2695,-0.1916,1.5711,9.1969,-0.9739,3.8957,2.1565
2700,-0.0766,1.6095,9.4268,-0.487,4.1043,2.1565
2705,-0.0383,1.8394,9.0819,-0.1391,4.3826,2.3652
2710,-0.0766,1.7627,9.2352,0.2783,4.2435,2.4348
2715,-0.0766,1.7627,9.1586,0.6957,3.8261,2.6435
2720,-0.3066,1.7627,9.1202,0.9739,3.5478,2.6435
2725,-0.1533,1.7244,9.0436,1.113,3.2,2.713
2730,-0.2299,1.7627,9.0436,0.9043,3.1304,2.9217
2735,-0.115,1.7627,9.1586,0.4174,3.1304,3.0609
2740,-0.0766,1.5711,9.2735,-0.0696,3.0609,2.8522
2745,-0.115,1.6478,9.1969,-0.487,2.8522,2.6435
2750,-0.1533,1.4562,9.2735,-0.9739,2.6435,2.5043
2755,-0.0383,1.5328,9.1969,-1.3217,2.2261,2.2957
2760,-0.0766,1.6095,9.3502,-1.5304,1.6,1.8783
2765,-0.2299,1.7244,9.3118,-1.6,1.113,1.6696
2770,-0.1916,1.6861,9.5034,-1.3913,0.6957,1.6696
2775,-0.115,1.6095,9.3502,-1.2522,0.487,1.6
2780,-0.115,1.6478,9.2735,-1.1826,0.4174,1.8087
2785,-0.1916,1.6861,9.4268,-1.2522,0.6261,2.087
2790,-0.2299,1.7627,9.4651,-1.1826,0.9043,2.2957
2795,-0.1916,1.8011,9.3118,-1.113,1.5304,2.3652
2800,-0.1916,1.8011,9.3885,-1.2522,2.5043,2.5739
2805,-0.0766,1.7244,9.3502,-1.1826,3.4783,2.8522
2810,-0.115,1.7244,9.3118,-0.9739,4.3826,3.0609
2815,-0.0766,1.6478,9.4651,-1.0435,5.0087,3.1304
2820,-0.0383,1.6861,9.3502,-0.6261,5.3565,3.1304
2825,0.0383,1.4945,9.1202,-0.487,5.7043,3.0609
2830,0.0,1.6478,9.1202,-0.6261,6.1217,2.8522
2835,0.0383,1.6095,9.1969,-1.0435,6.6783,2.5739
2840,0.0383,1.6095,9.5801,-1.3217,7.0261,2.1565
2845,0.0,1.6478,9.3502,-1.3217,7.1652,1.7391
2850,0.0,1.7627,9.3502,-1.2522,7.2348,1.3913
2855,0.0,1.5711,9.4651,-1.4609,7.4435,0.9739
2860,0.0,1.6478,9.1969,-1.5304,7.6522,0.7652
2865,0.0383,1.5711,9.1586,-1.1826,7.6522,0.487
2870,-0.0383,1.5711,9.1586,-0.6957,7.5826,0.4174
2875,0.0,1.5711,9.2352,-0.0696,7.2348,0.3478
2880,-0.1533,1.6095,9.1969,0.487,6.8174,0.2783
2885,0.0,1.6095,9.1969,0.7652,6.3304,0.2783
2890,-0.0383,1.6095,9.1586,0.3478,6.2609,0.1391
2895,-0.1916,1.7244,9.2735,-0.487,6.4,-0.0696
2900,0.0,1.6095,9.3118,-1.113,6.3304,-0.4174
2905,0.0383,1.4562,9.2352,-1.2522,6.0522,-0.6957
2910,-0.115,1.6861,9.2352,-1.6,5.8435,-0.8348
2915,-0.1916,1.6861,9.3118,-2.3652,5.7739,-0.7652
2920,-0.0766,1.6861,9.4651,-2.8522,5.4957,-0.7652
2925,-0.1916,1.7627,9.3118,-2.9913,4.8696,-0.5565
2930,-0.2299,1.6861,9.4651,-3.0609,4.3826,-0.3478
2935,-0.1916,1.7627,9.3502,-2.9913,3.6174,-0.0696
2940,-0.0383,1.7627,9.3502,-3.0609,3.2,0.1391
2945,-0.0383,1.7627,9.3502,-3.4783,3.1304,0.1391
2950,-0.0383,1.7244,9.4268,-3.7565,3.0609,0.2783
2955,-0.0766,1.7244,9.4268,-4.313,3.4087,0.2087
2960,-0.115,1.6861,9.3502,-4.8,3.687,0.1391
2965,0.0766,1.4945,9.3118,-5.287,3.8261,0.0
2970,0.0766,1.6861,9.3885,-5.7043,3.9652,0.0696
2975,0.0766,1.6478,9.3885,-5.8435,3.9652,0.0696
2980,0.0,1.6478,9.4651,-5.7043,4.0348,-0.2087
2985,0.0383,1.6478,9.3118,-5.5652,4.1739,-0.4174
2990,0.0383,1.6861,9.3885,-5.1478,4.1043,-0.8348
2995,0.0,1.6478,9.3885,-4.4522,4.1043,-0.9043
