timestamp,accX,accY,accZ,gyroX,gyroY,gyroZ
0,0.3832,-8.2389,3.7937,0.6261,-8.9043,-8.5565
5,0.3449,-8.2005,3.7937,0.9043,-9.1826,-8.4174
10,0.4215,-8.2005,3.832,1.1826,-9.3913,-8.5565
15,0.3832,-8.2772,3.6404,1.1826,-9.6,-8.4174
20,0.5365,-8.4305,3.7937,1.3217,-9.6,-8.4174
25,0.3832,-8.2772,3.7937,1.5304,-9.5304,-8.487
30,0.4215,-8.2772,3.6787,1.7391,-9.3913,-8.6957
35,0.6514,-8.3155,3.7554,1.8087,-9.3217,-8.7652
40,0.5365,-8.2389,3.7937,1.9478,-9.3913,-8.8348
45,0.4215,-8.1622,3.7554,2.087,-9.3913,-9.113
50,0.4598,-8.2005,3.6787,2.3652,-9.6,-9.3217
55,0.4982,-8.1622,3.6787,2.6435,-9.8783,-9.4609
60,0.5748,-8.1622,3.832,2.713,-10.2957,-9.5304
65,0.4982,-8.3155,3.832,2.9913,-10.713,-9.7391
70,0.4982,-8.2772,3.7171,2.9913,-11.0609,-9.9478
75,0.4982,-8.2389,3.6404,3.3391,-11.4087,-10.087
80,0.6131,-8.3921,3.7171,3.6174,-11.687,-10.4348
85,0.5365,-8.3155,3.7554,3.8261,-11.9652,-10.5739
90,0.5365,-8.2772,3.6404,4.2435,-12.1739,-10.5739
95,0.5748,-8.3538,3.6787,4.6609,-12.313,-10.5043
100,0.5365,-8.4305,3.6787,4.8,-12.4522,-10.5043
105,0.5365,-8.2389,3.6787,5.3565,-12.313,-10.2957
110,0.4982,-8.2389,3.7937,5.7739,-12.2435,-10.3652
115,0.6131,-8.3921,3.8704,6.1217,-12.2435,-10.2957
120,0.6131,-8.3538,3.7937,6.4696,-12.1739,-10.2261
125,0.5748,-8.3155,3.832,6.887,-12.1739,-10.087
130,0.6514,-8.2389,3.7554,6.9565,-12.1043,-10.0174
135,0.6131,-8.2772,3.7171,7.2348,-12.0348,-9.8783
140,0.6514,-8.2389,3.832,7.2348,-11.8957,-9.8087
145,0.6898,-8.2389,3.7937,7.3043,-11.8261,-9.7391
150,0.6898,-8.2005,3.832,7.3043,-11.6174,-9.8087
155,0.6514,-8.2389,3.7171,7.2348,-11.4783,-9.8087
160,0.8047,-8.2389,3.7937,7.3043,-11.4783,-9.8783
165,0.8814,-8.3155,3.6404,7.513,-11.3391,-9.8783
170,0.8047,-8.2389,3.8704,7.513,-11.3391,-10.0174
175,0.958,-8.2005,3.7937,7.7217,-11.4087,-10.087
180,0.9197,-8.0856,3.9087,7.7913,-11.5478,-10.0174
185,0.843,-8.0856,3.7937,7.8609,-11.5478,-9.8783
190,0.9963,-8.0473,3.7554,7.9304,-11.4783,-9.8087
195,0.9963,-7.9706,3.832,7.8609,-11.3391,-9.7391
200,1.0346,-8.0473,3.832,7.8609,-11.1304,-9.6
205,1.1113,-7.9706,3.7554,7.7217,-10.9217,-9.5304
210,1.1496,-7.8557,3.947,7.5826,-10.6435,-9.6
215,1.1113,-8.0089,3.8704,7.0957,-10.2261,-9.6
220,1.1496,-7.894,3.8704,6.8174,-9.8783,-9.5304
225,1.1879,-7.9706,3.8704,6.5391,-9.6,-9.7391
230,1.2263,-7.9706,3.832,6.2609,-9.4609,-9.7391
235,1.2646,-7.9323,3.7937,5.9826,-9.3217,-9.7391
240,1.3029,-7.894,3.8704,5.7043,-9.3217,-9.7391
245,1.3795,-8.0089,3.8704,5.5652,-9.3913,-9.8087
250,1.2646,-7.9706,4.1769,5.4261,-9.6696,-9.8087
255,1.073,-7.9706,3.9853,5.4261,-9.8783,-9.7391
260,1.1879,-7.9323,3.947,5.287,-10.087,-9.3217
265,1.2646,-7.9706,3.832,5.287,-10.087,-9.113
270,1.1113,-7.894,3.7937,5.3565,-10.2261,-8.7652
275,1.1879,-7.9323,3.8704,5.1478,-10.1565,-8.487
280,1.1496,-7.894,3.9853,5.1478,-10.0174,-8.3478
285,1.1113,-7.8557,3.8704,4.9391,-9.9478,-8.2087
290,1.2263,-7.8557,4.0236,4.7304,-9.8087,-8.2087
295,1.3029,-7.9706,3.9853,4.4522,-9.6696,-8.2087
300,1.1496,-7.9706,3.9853,4.1043,-9.6,-8.487
305,1.5328,-7.9323,4.1003,3.687,-9.6696,-8.7652
310,1.4562,-7.9706,4.1003,3.2696,-9.9478,-8.9043
315,1.3412,-7.9706,4.0236,2.9913,-10.087,-8.9739
320,1.4562,-8.0089,3.9853,2.9217,-10.4348,-9.0435
325,1.3029,-8.0473,4.062,2.9217,-10.6435,-9.1826
330,1.3795,-8.0856,4.0236,3.2696,-10.8522,-9.2522
335,1.3029,-7.9706,4.1003,3.687,-10.9913,-9.3217
340,1.3795,-7.8557,4.0236,4.1043,-11.2696,-9.3913
345,1.4945,-7.9323,4.0236,4.2435,-11.5478,-9.3217
350,1.5328,-7.8173,3.9853,4.313,-11.8261,-9.3217
355,1.4562,-7.779,3.9853,4.313,-12.0348,-9.3217
360,1.4945,-7.7407,4.1003,4.1043,-12.3826,-9.1826
365,1.5328,-7.6641,4.062,3.9652,-12.6609,-9.0435
370,1.5711,-7.7407,4.062,3.8261,-13.0087,-8.7652
375,1.6095,-7.7407,4.1386,3.4783,-13.5652,-8.6957
380,1.6095,-7.7024,4.2919,3.2,-13.913,-8.487
385,1.4945,-7.6641,3.9853,2.9217,-14.3304,-8.2783
390,1.5328,-7.7407,4.1386,2.5739,-14.6087,-8.2783
395,1.4945,-7.779,4.1003,2.713,-14.8174,-7.9304
400,1.5711,-7.779,4.2152,2.8522,-15.0957,-7.7913
405,1.5328,-7.8557,4.1769,3.1304,-15.1652,-7.5826
410,1.5328,-7.779,4.1003,3.2696,-15.3043,-7.4435
415,1.5711,-7.6257,4.062,3.2696,-15.513,-7.3739
420,1.4562,-7.779,4.2152,3.4087,-15.6522,-7.3739
425,1.4945,-7.7407,4.2152,3.6174,-15.7913,-7.3739
430,1.6861,-7.7407,4.1386,3.7565,-15.9304,-7.1652
435,1.5711,-7.9323,4.0236,3.8957,-16.0,-7.0957
440,1.6861,-7.8557,4.1386,4.1043,-16.2783,-7.0957
445,1.5711,-7.894,4.1386,4.313,-16.5565,-7.0261
450,1.6095,-7.8173,4.1769,4.7304,-17.0435,-6.6783
455,1.6478,-7.8557,4.2919,5.0783,-17.4609,-6.1913
460,1.4945,-7.7024,4.2152,5.3565,-18.0174,-5.913
465,1.6478,-7.7407,4.2152,5.5652,-18.713,-5.4261
470,1.6478,-7.8173,4.1386,5.4957,-19.2696,-5.0087
475,1.6478,-7.7407,4.1769,5.287,-19.7565,-4.5217
480,1.6478,-7.7024,4.2152,5.1478,-20.1739,-4.0348
485,1.7244,-7.7407,4.3685,4.8,-20.5913,-3.5478
490,1.6861,-7.779,4.3302,4.5217,-21.0087,-3.1304
495,1.6861,-7.779,4.2919,4.2435,-21.4957,-2.7826
500,1.7627,-7.7407,4.3302,4.2435,-21.9826,-2.5043
505,1.7627,-7.8173,4.1769,4.3826,-22.4,-2.3652
510,1.7244,-7.8173,4.1769,4.6609,-22.7478,-2.2957
515,1.7244,-7.8557,4.2536,5.0087,-23.1652,-2.087
520,1.8011,-7.894,4.3302,5.7043,-23.4435,-2.2261
525,1.6095,-7.8557,4.4835,6.5391,-23.8609,-2.3652
530,1.916,-7.779,4.2919,7.4435,-24.3478,-2.6435
535,1.8394,-7.6641,4.2536,8.0696,-25.0435,-2.9217
540,1.8394,-7.4725,4.1003,8.5565,-25.8087,-2.9913
545,1.8394,-7.4341,4.1003,8.1391,-26.5739,-3.2696
550,1.7627,-7.3958,4.1003,7.3739,-27.2696,-3.4087
555,1.8777,-7.4725,4.1386,6.5391,-27.9652,-3.687
560,1.8394,-7.4725,4.062,5.2174,-28.313,-3.8957
565,1.8777,-7.3575,3.947,3.8261,-28.5913,-4.0348
570,1.8777,-7.3192,4.1003,2.4348,-28.8696,-4.1739
575,1.9543,-7.4341,3.9853,0.8348,-29.0783,-4.2435
580,1.8777,-7.3575,4.062,-0.5565,-29.1478,-4.313
585,1.8394,-7.4725,4.2152,-1.8783,-29.1478,-4.4522
590,1.9543,-7.6257,4.2152,-2.9217,-29.287,-4.5217
595,1.9543,-7.5108,4.1769,-3.6174,-29.2174,-4.6609
600,1.9543,-7.5491,4.2152,-4.2435,-29.3565,-4.8696
605,2.031,-7.6257,4.2919,-4.6609,-29.4261,-5.3565
610,2.0693,-7.6257,4.4068,-4.8696,-29.2174,-5.5652
615,2.1459,-7.9323,4.2919,-4.5217,-29.0783,-5.6348
620,2.1459,-7.779,4.5601,-4.1043,-29.0783,-5.7739
625,2.2609,-7.7407,4.6751,-3.4783,-29.0783,-5.7739
630,2.1843,-7.8173,4.6751,-2.5739,-28.8696,-5.6348
635,2.2226,-7.4725,4.7134,-1.4609,-29.0783,-5.3565
640,2.1459,-7.5874,4.4452,-0.7652,-29.7739,-5.3565
645,2.1459,-7.5491,4.2919,-0.8348,-30.9565,-5.0783
650,2.031,-7.3958,4.0236,-1.7391,-32.2783,-4.2435
655,2.2226,-7.3958,3.7554,-2.6435,-33.5304,-2.6435
660,2.3759,-7.2425,3.7554,-4.313,-34.1565,-1.6696
665,2.2609,-7.2425,3.8704,-6.5391,-33.1826,-1.113
670,1.9927,-7.2042,4.1769,-7.9304,-30.2609,-0.9043
675,2.1076,-7.5108,4.2152,-8.0696,-26.6435,-0.7652
680,2.031,-7.4341,4.1386,-8.5565,-25.3217,-0.6957
685,2.1076,-7.4341,3.7171,-10.2957,-26.6435,-0.1391
690,2.2992,-7.2425,3.5638,-13.3565,-30.0522,0.2783
695,2.3375,-7.2042,3.6787,-16.0696,-33.5304,-0.0696
700,2.1076,-7.2809,3.832,-18.1565,-35.2696,-0.7652
705,1.9927,-7.2809,4.1769,-19.5478,-35.3391,-1.6696
710,1.8777,-7.3192,4.1003,-20.2435,-34.6435,-2.713
715,1.9543,-7.4725,4.4452,-20.0348,-33.6696,-3.8957
720,2.2226,-7.5491,4.5601,-19.3391,-32.6957,-5.1478
725,2.3375,-7.5491,4.7134,-18.5739,-32.2087,-6.6087
730,1.9543,-7.3958,4.6368,-17.7391,-32.5565,-7.7913
735,2.7207,-7.5491,4.4835,-16.9043,-33.6,-8.7652
740,2.4525,-7.3575,4.1769,-16.4174,-34.8522,-10.5043
745,2.2609,-7.7407,3.947,-16.2783,-35.9652,-11.687
750,2.3759,-7.4341,4.0236,-15.7913,-36.8,-12.3826
755,2.4142,-7.4725,4.0236,-15.8609,-37.7043,-13.1478
760,2.3759,-7.4341,3.8704,-16.2087,-38.4,-13.6348
765,2.4142,-7.5491,3.947,-16.8348,-39.2348,-14.1913
770,2.4908,-7.6257,3.7937,-17.6696,-39.7217,-14.5391
775,2.2609,-7.6641,3.7937,-18.713,-40.0696,-14.7478
780,2.1843,-7.7024,3.7554,-19.6174,-40.3478,-14.9565
785,2.1843,-7.5108,3.832,-20.4522,-40.9043,-14.6783
790,2.2226,-7.5491,3.6404,-21.1478,-41.4609,-14.1913
795,2.1459,-7.4341,3.6787,-22.0522,-41.9478,-13.5652
800,2.2226,-7.3192,3.3339,-22.7478,-42.5043,-12.9391
805,2.0693,-7.3192,3.2955,-23.4435,-43.0609,-12.3826
810,1.9927,-7.2809,3.3339,-23.9304,-43.8261,-11.8957
815,1.9927,-7.2809,3.1039,-23.9304,-44.6609,-11.5478
820,2.1459,-7.3575,3.1039,-24.0696,-45.7043,-11.6174
825,2.031,-7.2425,3.1039,-23.7217,-46.9565,-11.9652
830,2.0693,-7.2425,3.1039,-23.3043,-48.3478,-12.6609
835,2.1459,-7.3192,3.0273,-22.9565,-49.3217,-13.4957
840,2.2226,-7.3192,2.9123,-22.887,-50.2261,-14.1913
845,2.2226,-7.3192,3.0656,-23.0261,-50.8522,-14.6783
850,2.3375,-7.5108,3.0273,-23.3043,-51.4087,-15.0261
855,2.1076,-7.3958,3.1039,-23.4435,-51.7565,-15.513
860,2.2609,-7.5108,3.2572,-23.8609,-51.8957,-16.0696
865,2.3759,-7.5491,3.2572,-23.9304,-51.6174,-16.487
870,2.2992,-7.5491,3.4871,-23.7217,-51.8261,-16.6957
875,2.4525,-7.5491,3.1806,-24.0,-52.5217,-16.7652
880,2.3375,-7.4341,3.2955,-25.0435,-52.4522,-16.7652
885,2.4525,-7.4725,3.1806,-26.4348,-52.6609,-16.7652
890,2.4142,-7.3575,3.2189,-28.1043,-52.8696,-16.6957
895,2.2609,-7.2425,3.0273,-29.3565,-53.7043,-16.6261
900,2.5675,-7.3575,3.1039,-31.2348,-54.887,-17.0435
905,2.4908,-7.3958,2.9507,-32.9043,-55.3043,-17.3217
910,2.6441,-7.4341,2.989,-34.8522,-55.513,-17.7391
915,2.1843,-7.2809,2.7207,-36.7304,-56.2783,-18.1565
920,2.1843,-7.2809,2.6441,-39.0957,-57.2522,-18.5739
925,2.0693,-7.3192,2.7207,-41.8087,-58.6435,-19.4783
930,1.8394,-7.3575,2.7591,-44.5217,-60.1043,-20.1043
935,1.7244,-7.4725,2.7974,-47.513,-61.1478,-20.1043
940,1.5711,-7.5491,2.4908,-49.4609,-62.0522,-20.1739
945,1.3412,-7.5491,2.6441,-51.3391,-62.7478,-20.1739
950,1.4562,-7.5491,2.7207,-52.7304,-62.7478,-20.0348
955,1.4562,-7.6257,2.7207,-53.5652,-61.3565,-19.7565
960,1.1879,-7.5108,2.6824,-53.3565,-59.4087,-19.5478
965,1.3412,-7.5491,2.2609,-52.6609,-58.087,-19.3391
970,1.6478,-7.5108,2.2226,-52.3826,-56.5565,-19.6174
975,1.7244,-7.3575,2.3375,-51.2,-54.6087,-20.1739
980,1.8777,-7.1276,1.9927,-49.3913,-53.0087,-20.9391
985,2.1843,-7.0893,1.7244,-47.2348,-51.3391,-22.1217
990,2.5291,-6.821,1.3795,-44.9391,-49.5304,-24.3478
995,2.7974,-6.6294,1.3795,-42.7826,-46.8174,-27.4783
1000,2.989,-6.3995,1.0346,-41.2522,-43.9652,-31.0261
1005,3.0656,-6.3229,0.7664,-40.9043,-42.0174,-35.4087
1010,3.5638,-6.2079,0.4598,-41.8783,-40.9739,-40.1391
1015,3.947,-6.0929,0.3832,-43.8261,-40.2783,-45.4261
1020,4.0236,-6.0929,0.1533,-46.1913,-39.9304,-51.0609
1025,3.9853,-6.2462,-0.2299,-48.8348,-40.8348,-56.6261
1030,3.947,-6.3995,-0.115,-52.4522,-43.2696,-61.7043
1035,3.7554,-6.5528,-0.3449,-56.5565,-46.6087,-66.5739
1040,3.5638,-6.6294,-0.0766,-60.7304,-49.9478,-71.2348
1045,3.5638,-6.8593,0.0766,-65.5304,-52.9391,-75.6174
1050,3.4488,-7.1276,0.4598,-69.7739,-55.4435,-80.0
1055,3.0656,-7.2425,0.5365,-72.8348,-57.8783,-83.3391
1060,3.1039,-7.5491,0.843,-74.8522,-60.2435,-85.4957
1065,3.1039,-7.7407,1.2263,-75.4783,-62.1913,-86.8174
1070,3.1423,-7.894,1.073,-74.9913,-63.3739,-87.5826
1075,3.0656,-7.9323,1.3412,-73.4609,-63.4435,-87.7913
1080,2.7591,-8.0089,1.3029,-70.8174,-62.9565,-86.9565
1085,2.8357,-8.2772,1.073,-67.1304,-63.3739,-84.9391
1090,2.989,-8.4305,0.8814,-63.5826,-64.9043,-81.8783
1095,2.8357,-8.4305,0.8047,-60.1739,-66.9217,-79.513
1100,2.6441,-8.2389,0.5365,-55.6522,-68.1043,-77.4261
1105,2.4908,-8.0856,0.1916,-51.5478,-68.8696,-74.713
1110,2.4908,-8.0856,0.1916,-49.0435,-69.4957,-71.513
1115,2.6824,-8.1622,0.2299,-47.6522,-69.0783,-68.2435
1120,2.7591,-7.8557,0.3449,-46.6087,-68.1043,-65.3217
1125,2.6441,-7.779,0.4215,-45.6348,-66.7826,-62.8174
1130,2.6824,-7.7407,0.3832,-44.313,-65.5304,-60.5217
1135,2.6441,-7.6257,0.6898,-42.1565,-64.5565,-58.6435
1140,2.4142,-7.5491,0.5365,-40.1391,-64.2783,-56.6957
1145,2.4525,-7.4341,0.6514,-37.8435,-64.5565,-54.1913
1150,2.2226,-7.1276,0.4982,-35.3391,-65.113,-51.3391
1155,2.1076,-6.9743,0.5365,-32.487,-65.6696,-48.0
1160,2.031,-6.8593,0.3066,-29.7043,-66.2261,-44.4522
1165,2.1843,-6.7444,0.4215,-26.8522,-66.0174,-40.5565
1170,2.1459,-6.5911,0.4215,-23.7913,-65.2522,-36.7304
1175,2.2609,-6.4761,0.4982,-20.5913,-64.2087,-33.113
1180,2.2992,-6.4761,0.3449,-17.6696,-62.9565,-29.8435
1185,2.5675,-6.3612,0.4598,-14.9565,-61.7043,-26.9217
1190,2.7591,-6.5145,0.4215,-12.5913,-60.313,-24.2783
1195,2.6824,-6.4761,0.4598,-10.4348,-58.2261,-22.3304
1200,2.7207,-6.4761,0.3832,-8.0696,-55.9304,-20.3826
1205,2.7207,-6.3229,0.4598,-5.913,-53.1478,-18.713
1210,2.874,-6.3229,0.3832,-4.1739,-49.9478,-16.9739
1215,2.5675,-6.0546,0.3066,-2.9217,-46.1217,-14.887
1220,2.3759,-5.7097,0.0383,-2.2957,-41.3913,-12.5217
1225,2.4525,-5.7097,-0.1533,-2.5739,-36.9391,-9.3217
1230,2.1459,-5.2116,0.2682,-3.7565,-33.9478,-6.6783
1235,1.9927,-4.9433,0.4215,-5.2174,-32.487,-3.6174
1240,2.1076,-4.7517,0.0,-6.9565,-29.9826,-0.4174
1245,2.0693,-4.3685,0.0766,-9.0435,-26.1565,1.8783
1250,2.4142,-4.4452,0.0766,-11.1304,-20.8696,3.0609
1255,2.3375,-4.1386,0.115,-12.5217,-15.513,3.2
1260,2.7974,-3.9853,0.1533,-14.3304,-10.9913,3.2
1265,2.7974,-3.8704,-0.0766,-15.3739,-4.8696,3.4783
1270,2.7591,-3.832,0.115,-15.9304,1.8783,4.5217
1275,2.9123,-3.8704,0.0,-16.1391,8.1391,5.7043
1280,2.7974,-3.947,-0.1533,-15.3739,13.4261,7.0261
1285,2.7207,-3.947,-0.2299,-13.8435,17.0435,8.6261
1290,2.7974,-3.9853,-0.5365,-11.4087,20.0348,10.5739
1295,2.7591,-4.1769,-0.8814,-8.2087,23.7217,12.1739
1300,2.7974,-4.2152,-1.1113,-4.8696,27.7565,13.4957
1305,2.6058,-4.2536,-1.4562,-1.3217,31.2348,14.5391
1310,2.4908,-4.2536,-1.6478,1.6696,34.0174,14.6783
1315,2.4908,-4.0236,-2.0693,4.1739,36.4522,13.9826
1320,2.4142,-3.8704,-2.3375,5.9826,38.4,12.1739
1325,2.4525,-3.6021,-2.3759,6.4,39.3739,9.6
1330,2.1076,-3.3722,-2.5675,5.6348,40.0,5.1478
1335,2.3375,-3.2189,-2.3759,3.8957,40.7652,0.0
1340,2.1843,-3.4105,-2.6058,1.3217,41.9478,-6.0522
1345,2.5291,-2.8357,-2.7207,-1.8783,44.3826,-13.3565
1350,2.6441,-2.9507,-2.7207,-4.6609,48.6261,-20.9391
1355,2.8357,-3.1039,-2.6441,-5.4957,54.1217,-27.8261
1360,3.1423,-3.3722,-2.7974,-4.1043,59.6174,-33.7391
1365,3.6404,-3.6404,-2.9123,-0.2783,64.3478,-39.7913
1370,4.1386,-4.2152,-3.1039,5.0783,68.8696,-46.2609
1375,4.5601,-4.6368,-3.4105,10.9913,74.2957,-53.9826
1380,4.9816,-5.3648,-3.3722,16.1391,80.487,-62.4696
1385,4.8667,-6.1313,-3.0273,19.6174,86.4696,-72.2087
1390,4.5984,-6.4761,-2.031,21.4957,90.713,-82.1565
1395,4.4068,-6.821,-0.5748,22.9565,91.8261,-92.0348
1400,4.5218,-7.1276,0.8814,26.6435,89.7391,-101.0087
1405,5.0583,-7.2042,2.1459,33.8087,85.4261,-109.1478
1410,5.7864,-7.1659,3.4488,44.2435,81.3217,-116.6609
1415,6.7061,-7.2425,4.4452,57.8087,80.1391,-124.8696
1420,8.0089,-7.0893,5.3648,72.9739,83.1304,-133.5652
1425,8.6987,-7.3192,5.5564,90.1565,88.9043,-143.1652
1430,9.7717,-7.2042,5.5948,107.3391,97.0435,-151.3739
1435,10.8063,-7.1276,5.2882,122.2261,104.9043,-158.7478
1440,11.3811,-7.0509,4.8284,133.5652,110.9565,-166.4
1445,11.9176,-7.0509,4.1003,141.6348,115.2696,-174.2609
1450,13.0672,-7.5108,2.6441,146.9217,117.4261,-183.3043
1455,14.1785,-8.4305,1.916,150.1913,116.5913,-193.4609
1460,15.558,-9.3885,0.6514,152.4174,112.9739,-205.287
1465,17.8189,-10.8063,-0.7281,153.7391,108.1043,-218.2261
1470,20.578,-12.9906,-1.1879,154.713,104.4174,-229.287
1475,23.452,-14.9066,-1.7627,157.4957,100.9391,-241.5304
1480,29.315,-17.704,-1.2263,159.0957,92.2435,-254.4
1485,35.0631,-20.0415,-1.5328,156.1739,72.2087,-273.113
1490,41.3093,-20.2714,-1.2263,140.9391,38.4696,-297.113
1495,45.6012,-20.4247,0.3449,112.0696,-4.313,-323.4087
1500,48.3602,-17.9722,1.8777,79.4435,-50.4348,-338.4348
1505,47.9387,-13.2205,3.6787,47.3739,-99.8957,-335.0957
1510,43.9917,-8.2772,6.0546,17.8783,-155.687,-320.5565
1515,36.5193,-4.062,7.8557,-7.3739,-211.5478,-306.3652
1520,29.2384,-1.9543,8.3921,-27.687,-248.0696,-285.0087
1525,22.494,-1.5711,8.5071,-44.9391,-263.3739,-260.5913
1530,15.8646,-2.0693,8.0856,-59.2,-266.5739,-237.913
1535,9.8483,-2.989,7.5108,-72.9043,-264.0,-220.313
1540,4.8667,-3.6787,6.9743,-89.7391,-256.9043,-209.8783
1545,1.6478,-5.0583,7.5874,-109.8435,-249.3217,-205.4261
1550,0.6514,-7.0126,7.9323,-127.513,-243.5478,-204.4522
1555,1.7627,-9.5034,7.6257,-138.9913,-234.9913,-206.9565
1560,3.7937,-12.1475,7.2809,-141.1478,-218.0174,-212.3826
1565,6.2462,-14.83,6.936,-128.4174,-189.287,-219.3391
1570,7.0126,-16.1329,6.2845,-96.487,-150.1217,-228.5217
1575,6.8977,-16.0179,5.5181,-48.6261,-107.687,-234.4348
1580,7.3192,-14.715,4.3302,6.0522,-70.1913,-234.6435
1585,6.5145,-11.841,2.989,58.0174,-39.9304,-231.5826
1590,6.7061,-9.4268,2.031,102.6783,-17.9478,-222.7478
1595,6.7444,-7.3192,0.8814,137.2522,-5.6348,-213.0783
1600,6.1313,-4.2919,0.0,158.3304,-3.4087,-204.1739
1605,5.1349,-1.7244,-0.958,165.8435,-9.3913,-197.5652
1610,4.2152,0.3066,-2.031,160.2087,-18.087,-193.113
1615,3.832,1.9543,-2.3375,145.8087,-24.9739,-191.3739
1620,3.7171,3.4871,-2.1076,128.9043,-32.1391,-195.9652
1625,3.4105,5.1732,-2.2226,112.9739,-41.9478,-203.8957
1630,5.0966,6.821,-2.6441,98.9913,-53.8435,-207.7217
1635,7.1659,8.2005,-3.1423,87.513,-60.1739,-208.6957
1640,9.1969,9.6184,-3.6787,78.2609,-61.1478,-210.5043
1645,10.4231,10.5764,-4.6751,72.8348,-58.8522,-216.7652
1650,10.6147,11.3045,-7.0893,68.6609,-57.0435,-230.2609
1655,10.2698,11.4578,-7.5108,58.087,-55.1652,-246.2609
1660,9.695,11.6111,-7.779,45.9826,-50.713,-261.9826
1665,9.1586,11.2279,-7.3575,34.4348,-47.7913,-272.8348
1670,9.3118,10.3848,-6.7827,21.6348,-50.8522,-282.3652
1675,8.6987,10.1932,-6.0163,9.8087,-53.4957,-290.2957
1680,8.1239,9.925,-4.9433,-2.5043,-53.4957,-292.1739
1685,8.4688,9.7334,-3.832,-14.9565,-50.9217,-286.0522
1690,9.3885,9.3502,-2.6441,-25.8087,-42.5043,-274.1565
1695,10.8446,9.6567,-0.9197,-32.2783,-28.313,-257.8087
1700,11.9559,9.6184,1.3795,-27.2,-10.6435,-235.2
1705,14.2935,10.768,1.4562,-9.4609,7.9304,-205.4261
1710,17.4741,10.6914,1.2646,15.3043,27.4783,-170.7826
1715,19.1218,10.9979,0.958,45.913,50.2957,-136.2783
1720,19.8116,10.4231,0.6514,80.7652,72.9739,-100.4522
1725,17.3974,10.3848,-0.5365,116.2435,89.5304,-64.7652
1730,15.2132,10.883,-2.7207,144.0696,94.1913,-26.713
1735,14.6,11.9943,-5.748,155.5478,89.2522,8.9739
1740,14.0636,12.3008,-7.3192,149.913,86.6783,36.1739
1745,12.4541,12.8756,-9.0053,129.1826,87.5826,53.287
1750,11.1129,12.8373,-9.2352,92.8,90.5043,60.5913
1755,8.852,12.4158,-8.3155,46.1913,93.2174,57.8087
1760,6.7444,11.1895,-6.7061,-4.5913,92.313,47.1652
1765,4.905,9.3502,-5.2882,-51.4087,88.0,31.7217
1770,3.2189,7.8173,-3.9087,-89.2522,85.287,14.1217
1775,2.2609,6.4761,-2.874,-116.4522,83.6174,-2.8522
1780,1.5711,5.2499,-2.1459,-132.7304,83.2,-17.9478
1785,1.2263,4.1003,-1.073,-137.6,83.687,-30.3304
1790,0.6898,3.6787,0.2682,-131.2696,82.2957,-39.513
1795,0.3832,3.3339,1.2646,-113.6,77.4261,-46.1217
1800,0.2299,3.5638,1.5328,-87.8609,69.8435,-50.2261
1805,0.2682,3.947,1.8394,-58.7826,60.9391,-51.687
1810,0.2682,4.7517,1.6861,-29.9826,52.1043,-51.8957
1815,0.7664,5.4798,1.6478,-3.687,43.5478,-51.4783
1820,1.0346,6.6294,1.3029,19.8261,36.9391,-50.9217
1825,2.0693,7.3575,1.1113,40.6261,32.6957,-49.5304
1830,2.4142,8.3538,0.5365,57.3217,30.4,-49.6
1835,3.5638,8.852,0.2682,69.9826,29.4261,-48.6261
1840,4.3302,9.2735,-0.2682,77.287,29.6348,-48.9739
1845,4.5218,9.4268,-0.7664,81.0435,31.4435,-50.0174
1850,5.9396,9.0819,-0.9963,83.4087,33.2522,-51.2
1855,6.4761,9.1202,-0.843,86.4,36.5913,-57.0435
1860,6.3612,8.9286,-1.3029,89.3217,40.487,-64.7652
1865,6.7827,8.6221,-0.843,88.7652,42.3652,-69.913
1870,6.821,8.6221,-0.7281,85.3565,42.087,-74.1565
1875,6.6294,7.894,-0.9963,79.9304,41.113,-76.3826
1880,6.3612,7.894,-0.5365,73.0435,38.4,-77.3565
1885,6.4378,7.5108,-0.9197,66.4348,35.1304,-75.4783
1890,6.8593,7.3958,-0.9963,58.2957,32.7652,-74.087
1895,6.3995,7.5491,-0.7664,49.3913,32.487,-73.8087
1900,6.5145,7.3575,-0.7281,41.0435,34.2957,-73.3217
1905,7.2425,7.5108,-0.1916,32.9739,37.4261,-73.9478
1910,6.821,7.5108,-0.115,27.8261,43.0609,-75.8261
1915,6.5145,7.5491,0.0383,23.0957,47.2348,-76.8696
1920,6.3229,7.894,0.0766,18.087,50.4348,-75.7565
1925,6.8977,7.4341,0.4598,12.313,52.5913,-72.2087
1930,6.5145,7.8557,0.6131,6.8174,55.4435,-73.3217
1935,7.5108,7.8173,1.0346,2.0174,57.113,-73.3217
1940,7.779,7.2809,0.4215,-0.8348,59.2696,-72.0
1945,6.8977,7.894,0.6898,-2.6435,61.2174,-72.9043
1950,6.9743,7.4341,0.1533,-4.313,61.4261,-69.5652
1955,9.0053,6.5528,0.4982,-6.9565,60.8,-65.4609
1960,7.5874,7.4341,0.2682,-7.5826,59.9652,-63.1652
1965,9.6184,6.6294,0.2682,-8.1391,59.4783,-58.5043
1970,8.5454,7.0509,0.0,-8.4174,58.3652,-56.0696
1975,9.1202,7.0509,0.0383,-10.9913,54.3304,-50.9217
1980,7.0893,7.5491,-0.3449,-12.6609,49.6,-45.7043
1985,7.4725,7.779,-0.0383,-16.3478,44.0348,-37.287
1990,8.1622,7.894,0.0,-19.6174,39.0261,-29.8435
1995,7.2425,8.0089,-0.1533,-20.4522,36.2435,-21.8435
2000,7.9323,7.4725,0.3066,-20.4522,35.2696,-15.4435
2005,6.5528,7.7407,-0.3066,-16.4174,37.4261,-12.8
2010,6.9743,7.3192,0.1533,-12.3826,39.8609,-11.8957
2015,6.9743,6.8593,0.0383,-6.6087,42.3652,-11.5478
2020,7.3192,6.2079,0.2299,-0.1391,43.5478,-13.6348
2025,7.779,5.4798,0.9197,4.1739,42.9217,-17.0435
2030,7.5491,5.2116,1.1879,6.7478,40.1391,-21.6348
2035,7.9323,4.6751,1.6478,7.0957,37.4261,-24.3478
2040,8.6221,5.2882,1.4562,6.0522,36.4522,-24.6957
2045,8.7754,5.863,1.4179,2.5739,34.9913,-21.8435
2050,8.5454,6.821,1.5328,-1.5304,33.113,-17.1826
2055,8.6604,6.936,1.5711,-5.8435,30.4,-12.4522
2060,8.6221,7.2042,1.4179,-8.2087,27.2696,-6.8174
2065,8.5838,7.4341,0.9197,-9.5304,24.4174,-1.6696
2070,8.5071,7.5874,0.9197,-11.2,22.3304,1.6696
2075,8.3155,7.7024,0.6131,-11.687,20.313,7.513
2080,8.2389,7.7407,0.3449,-12.0348,18.0174,11.6174
2085,8.2389,7.5108,0.1916,-13.6348,15.5826,15.1652
2090,8.0089,7.9323,-0.0766,-16.2783,12.9391,16.8348
2095,7.894,7.5491,0.0766,-19.6174,10.5043,18.2261
2100,7.7407,7.4725,0.3066,-23.7913,7.8609,19.2696
2105,7.4341,7.3575,0.3449,-27.8957,5.2174,19.687
2110,7.3575,7.3958,0.4982,-31.513,2.9217,19.687
2115,6.6677,7.779,0.6898,-33.8087,0.4174,18.9913
2120,7.0126,7.6257,1.3412,-35.4783,-2.0174,19.4087
2125,6.8593,7.7407,1.5328,-35.5478,-5.4261,21.2174
2130,6.7444,7.8173,1.6861,-35.687,-8.9739,23.9304
2135,6.6677,7.9323,1.8394,-36.313,-12.3826,27.2
2140,6.7444,7.7407,2.0693,-38.4,-14.9565,31.3739
2145,6.7061,7.7024,2.1843,-40.487,-16.6261,36.1739
2150,6.7444,7.6257,2.1459,-42.8522,-17.5304,40.9739
2155,6.821,7.6257,1.9543,-46.0522,-18.1565,45.8435
2160,6.6294,7.4341,2.1843,-49.3217,-18.5043,50.2957
2165,6.6677,7.3192,2.3759,-51.7565,-18.6435,54.4696
2170,6.3612,7.2425,2.1843,-52.3826,-18.4348,58.5043
2175,6.9743,7.1659,2.2226,-53.287,-18.7826,62.9565
2180,6.7444,6.9743,2.4908,-53.4261,-19.1304,66.5043
2185,6.821,6.4378,2.5291,-51.4783,-19.2696,69.5652
2190,6.936,6.3229,2.7591,-47.513,-20.1043,72.5565
2195,7.0509,6.1313,2.989,-42.0174,-21.1478,74.7826
2200,6.6294,6.0546,2.7207,-34.5043,-22.0522,76.9391
2205,6.936,5.9396,3.3339,-27.2,-23.9304,79.1652
2210,7.1659,5.8247,3.3339,-18.8522,-25.9478,81.9478
2215,6.7061,5.748,3.2955,-10.9913,-28.3826,84.2435
2220,6.6294,5.4415,3.4105,-4.0348,-31.1652,86.8174
2225,6.9743,5.1732,3.6021,3.1304,-33.0435,88.8348
2230,7.0126,5.0966,3.6787,10.9217,-33.6,89.7391
2235,6.5145,5.2116,3.3339,19.9652,-32.8348,90.4348
2240,6.821,5.1349,3.0656,26.4348,-32.487,92.5217
2245,7.5491,4.6368,3.4105,30.3304,-32.3478,93.913
2250,6.2462,5.6331,3.0656,33.3217,-31.5826,93.9826
2255,7.1276,5.02,2.6824,34.087,-32.0696,96.5565
2260,7.6257,4.6751,2.3375,32.9043,-32.487,97.8087
2265,7.2425,5.1732,2.2992,32.6957,-32.4174,97.6696
2270,7.5874,4.9433,2.1076,32.2783,-33.113,99.1304
2275,7.5874,5.2882,1.6861,31.7217,-33.4609,99.687
2280,8.8137,4.8667,1.916,31.6522,-32.9739,100.0348
2285,7.7024,5.02,1.4179,31.513,-33.2522,97.8783
2290,8.1622,5.0966,1.073,31.6522,-33.4609,97.113
2295,7.5491,4.6368,0.5365,31.1652,-33.6,97.2522
2300,8.1239,4.905,0.843,29.0783,-35.0609,96.4174
2305,8.2772,4.1386,0.8047,28.1043,-36.8,97.113
2310,7.7407,4.2536,0.4982,28.5217,-38.887,95.3043
2315,7.5491,4.2152,0.0,28.5217,-42.0174,93.6348
2320,7.7024,3.947,-0.1916,27.0609,-44.9391,91.6174
2325,7.894,3.6787,-0.4598,25.0435,-47.2348,90.2261
2330,7.8557,3.5638,-0.2299,22.3304,-48.6261,88.2087
2335,8.6221,3.1039,-0.7664,20.0348,-50.4348,85.9826
2340,8.9286,2.6824,-0.6898,16.2087,-50.9217,84.2435
2345,9.0436,2.6441,-0.8047,12.6609,-50.8522,81.9478
2350,9.1969,2.7591,-0.9963,10.3652,-50.1565,79.3739
2355,9.3502,2.4525,-1.1113,9.3913,-46.1913,78.5391
2360,9.1586,2.7974,-0.958,9.5304,-42.5043,76.0348
2365,9.4651,2.5291,-1.073,9.3217,-39.513,76.7304
2370,10.4231,2.5291,-0.7664,8.8348,-36.3826,76.3826
2375,10.6914,2.4908,-0.3449,8.487,-34.4348,71.1652
2380,10.1549,2.5675,-0.6131,8.1391,-33.1826,65.3217
2385,10.6914,2.6441,-0.115,8.2783,-32.4174,59.4783
2390,10.3082,2.7974,-0.3449,8.8348,-32.2783,54.1217
2395,10.3848,2.874,-0.4598,7.7217,-32.0696,50.2957
2400,9.8866,3.0273,-0.4982,6.7478,-32.2783,47.6522
2405,10.653,2.9507,-0.8814,6.1913,-32.2087,46.8174
2410,10.3082,3.1806,-1.3795,4.5913,-32.4174,44.8696
2415,10.4998,3.7554,-1.6861,1.5304,-32.9043,42.9913
2420,10.768,3.832,-2.0693,-1.2522,-33.6696,40.5565
2425,10.9596,4.1386,-2.1459,-5.0783,-34.6435,39.1652
2430,11.6111,4.1003,-2.0693,-8.487,-35.8957,37.7739
2435,12.0709,3.9853,-1.8777,-10.087,-37.287,35.4087
2440,12.1475,3.7171,-1.4945,-7.9304,-37.913,31.2348
2445,12.1475,3.3339,-1.1879,-2.7826,-37.7739,27.8261
2450,12.0326,2.9507,-1.2646,3.3391,-36.7304,25.1826
2455,11.9943,2.6058,-1.1879,8.9739,-35.6174,23.9304
2460,11.9943,2.1459,-1.1496,13.7043,-34.5739,23.0957
2465,11.8027,1.8011,-0.9963,17.6696,-33.7391,22.0522
2470,11.7643,1.5328,-0.9963,21.0783,-33.113,21.0087
2475,11.4195,1.2263,-1.073,24.4174,-32.1391,20.1739
2480,11.1129,1.1113,-0.9197,26.9217,-30.7478,19.2696
2485,10.9979,1.0346,-0.958,28.8696,-29.3565,18.1565
2490,10.8446,0.9197,-1.0346,30.8174,-27.6174,16.6957
2495,10.6914,1.3412,-1.2263,32.6957,-25.8087,15.1652
2500,10.3848,1.2263,-1.1113,33.8783,-23.6522,13.9826
2505,10.3082,1.3412,-1.073,35.1304,-21.2174,12.6609
2510,10.1166,1.4945,-1.1496,36.313,-18.4348,10.7826
2515,10.0399,1.6861,-1.073,36.7304,-15.8609,9.3913
2520,9.7717,2.1076,-1.3029,36.3826,-13.9826,8.5565
2525,9.8483,2.0693,-1.2263,34.1565,-12.6609,7.3043
2530,10.0782,2.4908,-1.1879,31.0261,-10.9913,5.6348
2535,9.8483,2.6441,-1.3412,28.1043,-9.4609,3.8261
2540,10.1549,2.7591,-1.2263,24.6261,-8.2783,2.2957
2545,9.7717,2.874,-1.3795,19.8957,-7.3043,0.9043
2550,10.1549,2.989,-1.3795,15.7217,-6.6087,0.2783
2555,10.2698,3.0273,-1.5328,12.1739,-5.6348,-0.1391
2560,10.2315,2.9507,-1.3412,9.2522,-4.5217,-0.2783
2565,10.1932,2.9123,-1.5328,6.887,-3.7565,-0.4174
2570,10.1549,2.8357,-1.5711,4.8696,-2.7826,-0.2783
2575,10.1166,3.0656,-1.6478,2.8522,-2.5739,-0.0696
2580,10.1549,2.989,-1.8011,0.487,-2.9913,0.0696
2585,10.1932,2.8357,-1.6478,-1.8783,-3.4087,0.2783
2590,10.1166,2.9123,-1.5328,-3.6174,-3.4087,0.4174
2595,10.1166,2.7974,-1.5711,-4.8696,-3.2,0.8348
2600,10.1932,2.8357,-1.3795,-5.9826,-2.713,0.9739
2605,10.0782,2.8357,-1.4945,-7.3043,-2.2261,0.9739
2610,10.1549,2.7207,-1.4562,-8.6957,-1.9478,0.9043
2615,10.1549,2.6441,-1.3029,-9.9478,-1.4609,0.5565
2620,10.2315,2.6824,-1.3412,-11.0609,-0.7652,0.1391
2625,10.0399,2.7207,-1.3412,-11.8261,-0.0696,-0.487
2630,10.0016,2.7207,-1.3412,-12.6609,0.9043,-1.0435
2635,10.0782,2.4908,-1.3412,-13.4957,1.8783,-1.6
2640,9.925,2.7591,-1.3412,-14.2609,2.9913,-2.2261
2645,10.1932,2.7207,-1.2646,-15.2348,4.1043,-2.713
2650,9.925,2.7591,-1.1496,-15.6522,5.2174,-3.5478
2655,10.0399,2.7591,-1.3795,-16.0,6.2609,-4.1043
2660,9.925,2.7974,-1.1879,-15.7217,7.3739,-5.0087
2665,9.8866,2.8357,-1.1113,-15.1652,8.6261,-5.287
2670,9.925,2.8357,-1.1879,-14.1217,9.6696,-5.287
2675,9.925,2.874,-1.2263,-13.2174,10.3652,-5.0783
2680,10.0016,2.989,-0.9197,-12.1043,10.8522,-5.5652
2685,9.8866,3.0273,-1.073,-10.8522,11.2,-6.1217
2690,10.1166,3.1423,-1.0346,-9.7391,11.1304,-5.913
2695,10.2698,3.2189,-0.9197,-8.8348,10.9217,-5.6348
2700,10.3082,3.1806,-1.1113,-7.4435,10.7826,-5.7043
2705,10.4231,3.3339,-0.7664,-5.7739,10.8522,-6.0522
2710,10.3465,3.2572,-0.9963,-3.9652,11.0609,-6.3304
2715,10.1932,3.4871,-1.0346,-2.3652,10.7826,-6.2609
2720,10.3465,3.4871,-0.9197,-1.2522,10.4348,-5.8435
2725,10.3082,3.4871,-0.958,-0.487,9.8087,-5.7739
2730,10.2698,3.3722,-0.958,0.487,9.1826,-5.9826
2735,10.3848,3.2955,-0.9963,1.1826,8.7652,-6.1217
2740,10.2698,3.1806,-0.9963,1.8783,8.487,-6.4
2745,9.9633,2.989,-1.1113,2.4348,8.2783,-6.4
2750,10.1932,3.1423,-0.9197,2.713,8.0,-6.4
2755,10.1932,3.0656,-0.958,2.8522,8.0696,-6.4
2760,9.9633,3.1423,-0.9963,2.8522,8.1391,-6.4
2765,10.0016,3.2189,-1.1879,2.5739,8.1391,-6.4696
2770,9.8866,3.1039,-0.9963,2.087,8.2783,-6.6087
2775,9.81,3.0656,-1.0346,1.5304,8.6957,-6.6087
2780,9.8483,3.2189,-1.073,0.6957,8.9043,-6.7478
2785,9.8866,3.1806,-1.0346,-0.1391,9.113,-6.9565
2790,9.6567,3.1806,-0.8814,-0.9739,9.6,-7.0261
2795,9.6567,3.1423,-1.0346,-1.5304,10.2957,-7.1652
2800,9.6184,3.2189,-0.843,-2.2261,10.9217,-7.4435
2805,9.4651,3.1806,-0.958,-3.2,11.4783,-7.513
2810,9.3118,3.2955,-1.0346,-4.1739,11.7565,-7.6522
2815,9.4651,3.1039,-0.9197,-5.2174,12.1739,-8.0
2820,9.4651,3.1806,-0.9197,-6.0522,12.8696,-8.2087
2825,9.3885,3.1039,-0.9963,-6.6087,13.7739,-8.487
2830,9.3885,3.1039,-0.958,-7.0957,14.8174,-8.6957
2835,9.3885,3.1039,-0.8814,-7.3043,15.8609,-8.9043
2840,9.3118,3.0273,-0.8047,-7.3739,16.9043,-9.3217
2845,9.3885,3.0273,-0.8047,-7.3043,17.4609,-9.6
2850,9.1969,3.0273,-0.7281,-6.9565,17.8087,-9.7391
2855,9.3502,3.0273,-0.8047,-6.2609,18.2957,-9.9478
2860,9.5418,3.1039,-0.7281,-5.2174,18.9913,-10.087
2865,9.7717,2.9123,-0.3832,-3.2696,19.8957,-10.5043
2870,9.2352,3.0273,-0.4215,-0.5565,21.0087,-11.1304
2875,9.3502,3.2572,-0.4982,1.5304,21.4957,-10.5043
2880,9.3502,3.2572,-0.2682,2.713,20.5913,-9.6696
2885,9.5034,3.4488,-0.4215,2.4348,18.4348,-9.113
2890,9.3118,3.4871,-0.3449,1.3217,16.0,-8.7652
2895,9.5801,3.5255,-0.1533,0.1391,14.1217,-8.2087
2900,9.8866,3.4871,-0.2299,-0.0696,13.4261,-7.5826
2905,9.81,3.4105,-0.1916,0.0696,13.4261,-6.9565
2910,9.81,3.5255,-0.0383,0.487,13.4261,-6.0522
2915,9.81,3.4105,-0.115,0.6261,13.0087,-5.287
2920,9.7717,3.4871,0.0383,0.487,12.2435,-4.8696
2925,9.6567,3.6021,-0.2299,0.0,10.7826,-4.0348
2930,9.81,3.4488,-0.1916,-0.9043,8.9043,-3.2696
2935,9.7334,3.4871,-0.0766,-1.8783,6.4696,-2.9217
2940,9.6184,3.4871,-0.2299,-2.5739,4.5913,-2.713
2945,9.7717,3.4871,-0.115,-3.2696,3.0609,-2.5043
2950,9.7717,3.4488,-0.115,-3.5478,2.087,-2.5043
2955,9.6184,3.3722,-0.3066,-3.2696,1.4609,-2.6435
2960,9.5034,3.4105,-0.3449,-2.7826,1.0435,-1.9478
2965,9.5034,3.4871,-0.1533,-2.2957,0.6957,-1.113
2970,9.5418,3.4488,-0.3066,-1.6,0.5565,-0.7652
2975,9.5801,3.4105,-0.2299,-1.0435,0.4174,-0.4174
2980,9.4651,3.4488,-0.3066,-0.6261,0.3478,-0.1391
2985,9.5418,3.2955,-0.2682,-0.2087,0.2087,0.0696
2990,9.5418,3.3722,-0.115,0.2087,-0.0696,0.1391
2995,9.5801,3.3339,-0.2682,0.4174,-0.3478,0.2783
