timestamp,accX,accY,accZ,gyroX,gyroY,gyroZ
0,-0.3832,-9.5418,-2.5291,-20.6609,18.8522,-6.8174
5,-0.3066,-9.7717,-2.5675,-20.4522,18.087,-6.4
10,-0.4215,-9.5034,-2.6824,-20.1739,17.6,-6.1913
15,-0.4215,-9.5034,-2.6058,-19.9652,17.113,-5.5652
20,-0.4598,-9.4651,-2.4142,-19.3391,16.487,-5.3565
25,-0.4215,-9.3502,-2.6441,-18.6435,16.0,-4.6609
30,-0.4598,-9.2735,-2.6441,-17.9478,15.7913,-4.313
35,-0.4598,-9.1969,-2.6058,-17.4609,15.513,-3.687
40,-0.4982,-9.0436,-2.7207,-16.9739,15.4435,-3.4783
45,-0.5365,-8.9286,-2.4525,-16.7652,15.6522,-2.9913
50,-0.4598,-9.0053,-2.4908,-17.113,15.8609,-2.8522
55,-0.4598,-8.967,-2.4525,-17.3217,16.1391,-2.4348
60,-0.4598,-9.0053,-2.5675,-17.8087,16.487,-2.3652
65,-0.4598,-8.9286,-2.5291,-18.5739,16.9739,-2.0174
70,-0.4215,-8.967,-2.4525,-19.4087,17.3217,-2.087
75,-0.4215,-8.8903,-2.6058,-20.1043,17.8783,-1.9478
80,-0.4215,-8.9286,-2.3375,-21.0087,18.1565,-2.087
85,-0.4215,-8.8903,-2.5675,-21.9826,18.2957,-2.0174
90,-0.3832,-9.0819,-2.4142,-22.6783,18.3652,-2.3652
95,-0.4215,-9.1202,-2.4908,-23.0261,18.087,-2.3652
100,-0.3832,-9.1586,-2.5675,-23.4435,17.7391,-2.713
105,-0.4982,-9.1586,-2.6058,-24.0696,17.4609,-2.713
110,-0.4598,-9.1202,-2.8357,-25.3217,16.9043,-2.8522
115,-0.4598,-9.0819,-3.1423,-26.7826,16.5565,-2.713
120,-0.4598,-9.0819,-3.1423,-28.1739,16.0696,-2.7826
125,-0.3832,-9.1202,-3.2572,-29.3565,15.513,-2.4348
130,-0.3449,-9.1969,-3.1423,-29.913,15.0957,-2.3652
135,-0.4215,-9.0819,-3.2189,-29.6348,14.4,-2.087
140,-0.4598,-9.1586,-3.3339,-28.5217,13.6348,-2.087
145,-0.4598,-9.1202,-3.1423,-26.9217,12.6609,-1.9478
150,-0.4598,-9.0053,-3.1806,-25.2522,11.7565,-2.087
155,-0.4598,-9.1202,-3.2955,-24.0,11.1304,-2.3652
160,-0.4598,-9.1969,-3.1806,-23.2348,10.8522,-2.713
165,-0.4598,-9.0436,-3.1423,-22.8174,10.6435,-2.7826
170,-0.4598,-9.0436,-3.1423,-23.2348,10.3652,-3.2
175,-0.3832,-9.1202,-3.2189,-23.7913,10.1565,-3.4087
180,-0.4598,-9.1586,-3.3722,-24.0696,9.9478,-3.8261
185,-0.5365,-9.1586,-3.2572,-24.0696,9.6696,-3.8957
190,-0.4598,-9.2352,-3.2572,-23.513,9.3217,-4.1043
195,-0.3832,-9.0819,-3.2572,-22.8174,8.7652,-4.0348
200,-0.4215,-9.1969,-3.0656,-21.6348,8.2087,-4.1043
205,-0.4598,-9.0819,-3.1423,-20.6609,7.5826,-3.9652
210,-0.4598,-9.0436,-3.1039,-19.4783,7.0957,-3.9652
215,-0.3449,-9.1969,-3.0656,-17.7391,6.887,-3.7565
220,-0.4598,-9.1202,-3.0656,-16.487,6.4696,-3.7565
225,-0.3832,-9.0053,-3.2189,-15.9304,5.913,-3.7565
230,-0.4598,-8.967,-3.2189,-16.2087,5.0087,-3.7565
235,-0.4215,-9.1202,-3.1039,-16.0,4.4522,-3.4783
240,-0.3832,-9.0053,-3.2189,-16.0,3.8957,-3.2696
245,-0.4215,-9.1586,-3.1039,-15.9304,3.4783,-2.7826
250,-0.3066,-9.0819,-3.2572,-16.0,3.0609,-2.4348
255,-0.1916,-9.0053,-3.4105,-16.487,2.5739,-2.1565
260,-0.2299,-9.0053,-3.3722,-17.5304,1.8783,-1.7391
265,-0.1916,-8.967,-3.4105,-18.713,1.5304,-1.3217
270,-0.1916,-9.0436,-3.4105,-19.687,1.4609,-1.0435
275,-0.0766,-9.1202,-3.2572,-20.1739,1.3217,-0.5565
280,-0.0383,-9.1202,-3.4105,-20.3826,1.4609,-0.2087
285,0.0766,-9.1969,-3.4488,-20.0348,1.8087,0.2783
290,0.0766,-9.2352,-3.4871,-19.4783,2.2261,0.5565
295,0.0766,-9.3885,-3.6021,-18.7826,2.7826,0.9043
300,0.1916,-9.3885,-3.6787,-18.087,3.3391,1.2522
305,0.115,-9.3885,-3.5638,-17.7391,3.687,1.4609
310,0.1916,-9.5418,-3.6404,-17.6696,4.0348,1.8783
315,0.1916,-9.5801,-3.4871,-17.3913,4.4522,2.087
320,0.1916,-9.6567,-3.7171,-17.0435,4.8696,2.5043
325,0.1533,-9.6567,-3.8704,-16.487,5.0087,2.7826
330,0.0383,-9.7717,-3.8704,-15.9304,4.9391,2.9913
335,0.1533,-9.695,-3.7937,-15.1652,4.8,3.4087
340,-0.0766,-9.695,-3.947,-14.2609,4.4522,3.7565
345,0.0,-9.6567,-3.832,-13.0783,4.0348,4.313
350,-0.0766,-9.7334,-3.947,-11.4087,3.5478,4.8
355,-0.115,-9.695,-3.947,-9.6696,3.0609,5.0783
360,-0.115,-9.7717,-3.9853,-7.6522,2.5739,5.4261
365,-0.1916,-9.8483,-3.947,-5.8435,2.3652,5.7043
370,-0.1533,-9.7334,-3.9087,-4.0348,2.2261,6.1217
375,-0.115,-9.7717,-3.9853,-2.7826,2.2957,6.1217
380,-0.1916,-9.7334,-3.9853,-2.0174,2.5043,6.1913
385,-0.1533,-9.7334,-3.7937,-1.4609,2.9913,6.1913
390,-0.2682,-9.5418,-3.7937,-0.8348,3.7565,6.1217
395,-0.1533,-9.5034,-3.6404,-0.1391,4.3826,5.913
400,-0.0383,-9.4651,-3.6404,0.7652,5.0087,5.8435
405,-0.115,-9.4268,-3.6787,1.1826,5.4957,5.3565
410,-0.2299,-9.4268,-3.6787,1.3913,5.9826,5.3565
415,-0.3449,-9.4268,-3.832,1.4609,5.913,5.0783
420,-0.3449,-9.5034,-3.6404,0.6957,5.6348,5.0783
425,-0.3449,-9.5418,-3.7171,-0.5565,5.287,5.1478
430,-0.2682,-9.4651,-3.7937,-1.9478,5.0783,5.2174
435,-0.2299,-9.7334,-3.6787,-3.5478,4.9391,5.287
440,-0.1916,-9.7334,-3.832,-5.0087,5.0783,5.5652
445,-0.115,-9.8483,-3.9087,-5.913,5.1478,5.4957
450,-0.0383,-9.9633,-4.1769,-6.6087,5.287,5.6348
455,-0.0383,-9.81,-4.1003,-6.8174,5.287,5.6348
460,0.0766,-9.8866,-4.2152,-6.5391,5.4957,5.7739
465,-0.115,-9.7334,-4.2152,-5.913,5.4957,5.7043
470,0.0,-9.6567,-4.1386,-5.1478,5.4261,5.7739
475,0.0766,-9.695,-4.2152,-4.2435,5.287,5.6348
480,0.0383,-9.6567,-4.2152,-3.2696,5.1478,5.7043
485,0.0,-9.6567,-4.2152,-2.6435,5.287,5.5652
490,-0.0383,-9.6184,-4.1769,-1.9478,5.4261,5.5652
495,0.0,-9.6567,-4.2152,-1.6696,5.5652,5.287
500,0.0,-9.6567,-4.1769,-1.6696,5.4957,5.0783
505,-0.115,-9.7334,-4.2152,-1.9478,5.4261,4.8696
510,-0.0383,-9.7717,-4.2152,-2.3652,5.4261,5.287
515,0.0383,-9.7717,-4.2152,-2.8522,5.5652,5.1478
520,0.0383,-9.81,-4.1003,-3.2,5.7739,5.4261
525,0.0,-9.7717,-4.2919,-3.2696,6.1217,5.4957
530,-0.0766,-9.8483,-4.4068,-3.0609,6.4696,5.913
535,0.115,-9.81,-4.2919,-2.713,6.6087,5.9826
540,0.0,-9.8866,-4.4068,-2.2957,6.7478,6.1913
545,-0.0766,-10.0016,-4.4068,-2.0174,6.887,6.1913
550,0.0,-9.8483,-4.3685,-1.5304,6.8174,6.5391
555,-0.0383,-9.7717,-4.3302,-1.2522,6.7478,6.5391
560,-0.115,-9.7334,-4.4068,-0.8348,6.6783,6.7478
565,-0.115,-9.925,-4.1769,-0.2087,6.6087,6.6783
570,-0.0766,-9.81,-4.2536,0.487,6.4696,7.0261
575,-0.1916,-9.6184,-4.2919,0.9739,6.4696,7.3739
580,-0.4215,-9.5418,-4.2919,0.9739,6.0522,8.0
585,-0.1916,-9.5418,-4.1386,0.4174,5.1478,8.3478
590,-0.1533,-9.5801,-4.1003,-0.5565,4.1043,8.8348
595,-0.2299,-9.5418,-3.9853,-1.113,3.2,9.1826
600,-0.3066,-9.5418,-3.9853,-1.6,2.4348,9.7391
605,-0.1916,-9.5418,-4.2536,-2.5739,1.8783,9.9478
610,-0.2682,-9.4268,-4.062,-4.1739,1.6,10.2957
615,-0.115,-9.4268,-4.1769,-6.2609,1.3913,10.2957
620,-0.1533,-9.4268,-3.947,-7.7217,1.4609,10.5043
625,-0.1533,-9.4268,-4.0236,-9.5304,1.1826,10.2957
630,-0.115,-9.2735,-4.1386,-10.5043,0.9739,10.713
635,-0.1533,-9.3885,-4.0236,-10.9913,0.487,10.6435
640,-0.1533,-9.4268,-3.947,-11.0609,0.0696,10.713
645,-0.1533,-9.4651,-4.1003,-10.9913,0.0696,10.3652
650,-0.3066,-9.5034,-4.062,-11.1304,0.1391,10.2261
655,-0.3449,-9.4268,-4.1386,-11.6174,0.3478,9.8087
660,-0.3066,-9.3885,-4.062,-12.5217,0.5565,9.6
665,-0.3066,-9.4268,-4.1003,-14.2609,0.9739,9.3913
670,-0.2299,-9.3502,-4.0236,-15.7217,1.3913,9.6
675,-0.2682,-9.3118,-3.8704,-17.113,1.6696,9.7391
680,-0.2299,-9.0436,-3.947,-18.5739,1.8783,10.4348
685,-0.2299,-9.0819,-3.9087,-20.2435,1.6,10.713
690,-0.1533,-9.0053,-4.062,-21.4261,1.3217,11.3391
695,-0.115,-8.967,-4.0236,-22.0522,0.8348,11.7565
700,-0.0766,-8.8903,-4.1769,-22.4696,0.1391,12.313
705,0.115,-8.852,-4.2919,-22.9565,-0.2783,12.8
710,-0.0383,-8.8137,-4.4452,-22.6087,-0.6261,13.5652
715,-0.0383,-9.0053,-4.4835,-21.3565,-0.6957,13.5652
720,-0.0766,-9.0436,-4.4452,-19.5478,-0.6261,14.0522
725,-0.115,-8.967,-4.4835,-17.6696,-0.487,14.1913
730,-0.1533,-8.967,-4.3685,-15.5826,-0.3478,14.8174
735,-0.1533,-9.0053,-4.4068,-13.7043,-0.487,15.3043
740,-0.1916,-9.1202,-4.4068,-12.5913,-0.487,16.2087
745,-0.1916,-8.967,-4.4068,-11.687,-0.5565,16.6261
750,-0.1533,-9.1202,-4.2536,-10.713,-0.7652,17.2522
755,-0.1533,-8.8903,-4.3685,-9.5304,-0.7652,17.6
760,-0.2299,-8.852,-4.4068,-7.9304,-0.8348,18.2261
765,-0.115,-8.7754,-4.3302,-7.2348,-0.8348,18.5043
770,-0.1916,-8.6221,-4.4068,-6.6783,-0.9043,19.2
775,-0.1916,-8.5071,-4.2536,-6.5391,-0.9043,19.687
780,-0.0766,-8.5454,-4.4068,-6.4696,-1.113,20.5913
785,-0.115,-8.3921,-4.2152,-6.2609,-1.1826,21.0087
790,0.0,-8.5454,-4.2536,-5.8435,-1.0435,22.1217
795,-0.0383,-8.4688,-4.1769,-5.2174,-1.3217,22.887
800,0.0,-8.6221,-4.2536,-4.6609,-1.8783,23.7913
805,-0.115,-8.5071,-4.1386,-3.9652,-2.5043,24.2087
810,-0.1533,-8.5838,-4.1003,-2.713,-2.713,24.9043
815,-0.0766,-8.5838,-4.1769,-1.6696,-2.9913,24.9739
820,-0.2299,-8.6221,-4.0236,-0.9739,-3.4783,25.4609
825,-0.2299,-8.5071,-3.947,-1.0435,-3.8261,25.8087
830,-0.1916,-8.3921,-3.947,-1.0435,-4.1739,26.3652
835,-0.1916,-8.5071,-3.947,-0.9043,-4.7304,26.2957
840,-0.1916,-8.4305,-4.1769,-0.8348,-5.0783,26.713
845,-0.1533,-8.3921,-4.1386,-0.8348,-5.4261,27.0609
850,-0.0766,-8.4305,-3.9853,-1.113,-5.7043,27.7565
855,-0.1533,-8.5071,-4.1003,-1.6696,-5.913,28.1043
860,-0.3066,-8.4688,-4.1003,-1.6,-6.3304,28.5913
865,-0.0766,-8.6221,-4.2536,-1.6696,-6.7478,28.9391
870,-0.1533,-8.5071,-4.062,-2.2261,-7.0261,29.5652
875,-0.0383,-8.5838,-3.9853,-2.713,-7.2348,29.6348
880,0.0383,-8.5838,-4.062,-2.713,-7.0957,30.1913
885,0.0,-8.8137,-4.1386,-2.4348,-6.887,30.4
890,0.0383,-8.6987,-4.2152,-2.0174,-6.2609,30.6783
895,0.0766,-8.8137,-4.0236,-1.8087,-5.913,30.887
900,0.0,-8.8137,-4.3302,-1.3913,-5.7739,31.0957
905,-0.0383,-8.6221,-4.1386,-0.6261,-5.5652,31.1652
910,-0.0766,-8.7754,-4.1769,-0.3478,-5.8435,31.8609
915,-0.1916,-8.737,-4.2152,0.7652,-6.2609,31.7913
920,-0.2682,-8.7754,-4.1769,2.2261,-6.9565,32.0696
925,-0.2682,-8.7754,-4.3685,3.0609,-7.5826,32.0696
930,-0.3449,-8.852,-4.0236,3.8957,-8.3478,32.2087
935,-0.3449,-8.7754,-4.3685,5.0087,-9.113,32.2783
940,-0.3066,-8.8903,-4.2152,6.1913,-9.8087,32.3478
945,-0.2299,-9.0053,-4.1769,7.2348,-10.4348,32.2087
950,-0.0383,-8.852,-4.2536,8.2783,-11.2696,32.3478
955,-0.0383,-8.6604,-4.1386,8.9043,-11.687,32.3478
960,-0.1533,-8.6221,-4.1386,9.113,-11.8261,32.2783
965,-0.0383,-8.5838,-4.1003,9.2522,-11.7565,31.8609
970,-0.115,-8.4688,-3.9853,9.0435,-11.5478,31.6522
975,-0.0766,-8.3921,-3.9087,8.9043,-11.4087,31.3739
980,-0.2299,-8.3155,-4.0236,9.0435,-11.4783,31.1652
985,-0.2682,-8.3155,-3.9087,8.9739,-11.687,30.887
990,-0.3066,-8.3155,-3.7937,8.9739,-11.687,30.8174
995,-0.2682,-8.2772,-3.832,8.7652,-11.8957,30.8174
1000,-0.1916,-8.3921,-3.832,7.9304,-11.9652,31.1652
1005,-0.1533,-8.3538,-3.832,6.9565,-12.1739,31.3739
1010,-0.1916,-8.4688,-3.7171,6.1217,-12.5913,31.9304
1015,-0.2299,-8.5071,-3.832,6.0522,-13.4261,31.7913
1020,-0.2682,-8.5071,-3.7554,6.1217,-14.4,31.7217
1025,-0.2682,-8.4688,-3.832,5.8435,-15.5826,31.4435
1030,-0.2682,-8.5454,-3.7937,5.8435,-16.7652,30.7478
1035,-0.3066,-8.5454,-3.9087,6.4696,-17.9478,30.1217
1040,-0.3066,-8.3538,-3.7554,6.6783,-18.713,29.1478
1045,-0.2682,-8.4305,-3.7171,7.4435,-18.9913,27.9652
1050,-0.2682,-8.2772,-3.9853,8.3478,-18.713,26.7826
1055,-0.3832,-8.2772,-3.7937,8.4174,-18.5739,25.7391
1060,-0.3449,-8.1239,-3.6787,7.7217,-18.3652,24.4174
1065,-0.3066,-8.2389,-3.3722,7.7217,-18.0174,22.6087
1070,-0.4215,-8.3538,-3.4871,8.487,-17.0435,21.3565
1075,-0.4598,-8.2005,-3.1423,8.7652,-16.0,20.313
1080,-0.5365,-8.3538,-3.0656,8.5565,-15.3043,19.8957
1085,-0.4215,-8.3155,-3.0656,8.3478,-14.7478,19.6174
1090,-0.4982,-8.1622,-3.1039,8.1391,-14.8174,19.8261
1095,-0.4215,-8.2005,-3.0273,7.7913,-15.1652,20.4522
1100,-0.4982,-8.0856,-2.989,7.0261,-15.8609,21.287
1105,-0.3832,-8.1622,-3.1423,6.4,-17.2522,22.0522
1110,-0.3832,-7.9323,-3.5255,7.9304,-19.8957,22.4
1115,-0.2299,-7.6641,-3.4871,9.2522,-21.913,22.3304
1120,-0.0383,-7.5108,-3.6021,9.7391,-23.7217,21.9826
1125,0.0383,-7.5491,-3.5638,9.9478,-25.6,21.9826
1130,0.1916,-7.4341,-3.7937,10.5739,-27.8957,22.4696
1135,0.1916,-7.3192,-3.5638,11.8261,-30.1913,23.0957
1140,0.1916,-7.4341,-3.4105,13.7043,-32.8348,23.8609
1145,0.3449,-7.4341,-3.4871,15.7217,-34.5043,24.2087
1150,0.6131,-7.3575,-3.2189,17.7391,-35.687,24.487
1155,0.6131,-7.4341,-3.1039,19.687,-36.5217,24.2087
1160,0.5365,-7.3192,-3.1039,21.913,-37.0783,23.9304
1165,0.4598,-7.2809,-3.0656,24.1391,-37.7043,24.0696
1170,0.4598,-7.1276,-3.2955,26.4348,-38.6783,24.0696
1175,0.5365,-7.0126,-3.0273,27.9652,-39.0261,23.8609
1180,0.4215,-6.6677,-3.0656,28.6609,-39.0261,23.2348
1185,0.4598,-6.4378,-2.8357,28.8696,-38.4,22.1217
1190,0.5365,-6.1696,-2.4908,28.6609,-37.5652,21.2174
1195,0.6514,-5.9396,-2.4142,28.5913,-36.8,20.313
1200,0.6898,-5.7097,-2.3759,28.9391,-36.1043,19.6174
1205,0.6514,-5.4032,-2.1076,29.0783,-35.6174,19.2
1210,0.843,-5.2882,-2.1076,29.4261,-34.8522,18.9217
1215,0.7664,-5.1349,-1.9927,29.4261,-32.9739,19.8261
1220,0.5365,-4.9816,-1.6861,28.7304,-31.0957,20.313
1225,0.3832,-4.8284,-1.4562,28.1043,-30.4,20.2435
1230,0.3832,-4.7517,-1.1496,27.8957,-30.2609,21.1478
1235,0.3832,-4.7517,-0.958,26.8522,-30.6783,22.4696
1240,0.1533,-4.6751,-0.9197,24.9739,-31.5826,23.3043
1245,-0.115,-4.7517,-0.6131,22.1913,-33.7391,24.487
1250,-0.3449,-4.8284,-0.6898,19.0609,-37.6348,25.4609
1255,-0.3832,-4.9433,-0.958,16.2087,-42.9217,26.5043
1260,-0.3066,-4.9433,-1.3795,13.7739,-48.3478,27.2696
1265,-0.4215,-4.79,-1.9927,11.8957,-53.4957,27.687
1270,-0.3449,-4.5218,-2.2992,10.3652,-57.7391,27.4087
1275,-0.3832,-4.2919,-2.5675,9.8087,-60.1043,26.6435
1280,-0.5365,-3.9087,-2.9123,9.8087,-59.8261,25.3217
1285,-0.7664,-3.5638,-2.874,10.1565,-57.6,25.0435
1290,-1.073,-3.0656,-2.9507,10.087,-54.0522,25.0435
1295,-1.1113,-2.874,-2.8357,9.0435,-50.3652,25.8783
1300,-1.1879,-2.6058,-2.7974,6.1217,-45.8435,26.2957
1305,-1.5711,-2.4142,-2.5675,1.3913,-41.5304,27.5478
1310,-1.916,-2.3759,-2.0693,-3.7565,-40.1391,29.913
1315,-1.8011,-2.3375,-1.7627,-8.9043,-40.8348,33.4609
1320,-1.8011,-2.4525,-1.3412,-14.3304,-41.3217,36.5913
1325,-2.1843,-2.6441,-0.5748,-19.5478,-41.8783,40.1391
1330,-2.2609,-2.7591,-0.6898,-23.7217,-44.3826,43.5478
1335,-2.2609,-2.9507,-0.843,-27.4783,-45.4957,48.4174
1340,-2.1459,-3.0273,-0.9963,-30.7478,-46.3304,53.8435
1345,-2.3375,-3.1806,-1.1496,-33.113,-47.6522,59.8261
1350,-2.2609,-3.2955,-1.4562,-33.9478,-49.7391,65.3217
1355,-2.031,-3.4871,-1.6095,-32.6261,-51.9652,71.0261
1360,-1.8777,-3.3722,-2.1076,-31.0261,-53.8435,75.6174
1365,-2.0693,-3.2189,-2.3375,-30.6087,-54.5391,79.7217
1370,-2.1459,-3.1039,-2.2226,-32.0,-53.7739,83.8261
1375,-2.5291,-2.6824,-2.4525,-36.7304,-50.9217,86.5391
1380,-3.0273,-2.6058,-2.2992,-44.1043,-48.487,88.7652
1385,-3.0656,-2.5291,-1.9543,-51.9652,-49.1826,90.9217
1390,-3.6787,-2.874,-1.6861,-58.3652,-51.7565,93.7043
1395,-4.2152,-3.2572,-0.8814,-60.3826,-58.0174,98.3652
1400,-4.2152,-3.5255,-0.6898,-55.8609,-68.9391,102.6087
1405,-4.5984,-3.6021,-0.4598,-47.5826,-81.8087,107.5478
1410,-4.905,-3.9087,-0.1916,-38.8174,-95.513,111.9304
1415,-5.4798,-4.3685,0.3066,-30.9565,-108.5913,116.3826
1420,-6.0163,-4.8284,0.3832,-24.2783,-122.9913,121.6
1425,-6.6294,-5.7097,0.4982,-17.0435,-134.4,126.887
1430,-7.1276,-6.8593,0.5748,-8.9739,-145.2522,132.2435
1435,-7.779,-7.5108,0.1533,0.5565,-155.5478,138.5043
1440,-8.5454,-8.6221,-0.0383,8.2783,-166.8174,144.5565
1445,-9.3118,-10.3465,-0.4215,16.0,-178.7826,151.513
1450,-10.4998,-11.1895,-1.2646,28.1739,-189.4957,158.9565
1455,-11.3428,-11.841,-1.6861,42.7826,-199.1652,167.9304
1460,-12.9523,-12.1475,-2.874,57.7391,-207.2348,176.2783
1465,-15.3664,-12.1092,-4.3685,71.7217,-212.0348,188.8
1470,-18.8153,-12.8756,-5.1732,83.4087,-216.9739,202.1565
1475,-24.2568,-14.1402,-6.936,85.5652,-224.8348,217.8783
1480,-32.0358,-16.7077,-9.5034,78.4,-240.8348,238.0522
1485,-41.2327,-21.8426,-12.7223,59.6174,-271.3043,264.5565
1490,-50.8127,-25.5213,-12.0709,42.9913,-304.2087,296.6957
1495,-57.3272,-34.0284,-8.2005,39.1652,-328.487,345.0435
1500,-56.5991,-40.3513,-2.2609,71.7913,-312.0696,402.087
1505,-42.6505,-42.3056,0.1533,143.513,-249.4609,454.2609
1510,-21.7659,-39.1634,-2.9507,230.4696,-163.2696,467.4087
1515,-3.4105,-30.7712,-4.4452,282.3652,-75.5478,405.8435
1520,8.5071,-18.6237,-0.2682,251.0609,-23.7217,322.5043
1525,14.7916,-9.5034,4.1769,159.7217,-9.8087,251.5478
1530,14.3318,-5.3648,4.2919,73.8087,-24.2783,206.1913
1535,9.5801,-3.6787,2.6441,33.8783,-56.6261,184.487
1540,3.5255,-2.6824,-2.2992,50.9217,-95.0957,182.3304
1545,-3.2572,-0.7664,-6.5145,102.887,-119.7913,194.087
1550,-9.3885,1.9927,-7.5108,157.1478,-118.4696,205.0783
1555,-14.3318,4.3302,-5.6714,188.1739,-91.4087,206.0522
1560,-17.0525,4.8284,-2.4908,193.1826,-60.5217,191.513
1565,-18.0489,4.3685,-0.843,176.3478,-40.6957,169.9478
1570,-19.6966,1.6095,1.3795,159.3739,-31.2348,151.8609
1575,-19.6966,-1.5711,1.5711,145.6696,-27.6174,141.287
1580,-20.9612,-2.5291,1.0346,132.5913,-22.6087,135.0261
1585,-19.505,-2.0693,0.0766,119.5826,-23.0261,135.2348
1590,-17.4741,-0.3832,0.3066,109.6348,-30.8174,133.3565
1595,-14.83,1.1879,-2.2226,107.8261,-49.2522,130.087
1600,-13.757,2.1459,-3.832,121.7391,-57.2522,132.0348
1605,-13.1055,4.2152,-4.79,134.887,-52.2435,138.5739
1610,-12.2625,5.0583,-3.4488,137.4609,-47.513,147.9652
1615,-12.6457,3.6021,-0.5365,137.3217,-62.0522,149.8435
1620,-8.6221,5.7097,-3.8704,137.2522,-84.9391,146.087
1625,-5.2499,4.5601,-1.9927,118.3304,-82.2957,146.9217
1630,-5.2116,4.062,1.2263,106.2261,-78.5391,139.8261
1635,-5.3265,4.1769,2.2609,101.2174,-82.713,134.4
1640,-4.7517,3.2189,2.4142,99.1304,-90.3652,136.2783
1645,-4.2919,2.1843,1.6478,100.7304,-97.8783,140.313
1650,-4.79,1.9927,2.031,100.5217,-102.7478,142.6087
1655,-4.3685,2.0693,3.1423,96.1391,-108.1739,144.6261
1660,-5.02,2.2226,4.4835,88.9043,-115.8261,143.3043
1665,-5.6714,2.6441,5.8247,85.4261,-124.313,142.2609
1670,-6.5145,2.3759,7.4725,86.887,-134.7478,142.2609
1675,-8.5071,2.6824,9.0819,93.1478,-148.7304,141.0783
1680,-8.4688,1.6861,9.1202,100.8696,-162.0174,141.287
1685,-8.852,2.4908,9.3885,109.6348,-174.1913,137.8783
1690,-10.4231,4.062,7.8557,115.6174,-182.6783,137.113
1695,-10.4614,4.6751,7.9706,119.3043,-189.4261,136.0696
1700,-11.1129,5.3265,8.4688,116.9391,-195.0609,131.3391
1705,-12.6457,5.978,9.3502,112.4174,-201.8783,121.3217
1710,-12.5307,7.9706,9.6184,99.9652,-209.8087,111.6522
1715,-14.0636,8.2389,8.852,84.4522,-210.5739,101.1478
1720,-17.2058,8.1239,8.8903,68.8,-202.1565,85.4957
1725,-16.746,9.7717,8.2389,60.9391,-186.2261,69.1478
1730,-18.2788,9.4268,8.3538,50.2957,-156.0348,48.1391
1735,-18.8153,8.7754,8.1239,44.8696,-118.887,23.0957
1740,-19.0835,8.4688,7.894,40.9739,-77.4261,-4.1043
1745,-17.3974,8.2005,7.779,39.2348,-39.3739,-27.9652
1750,-15.0216,7.3192,7.4725,39.7913,-8.0696,-48.487
1755,-11.5344,6.5528,6.9743,38.6783,16.1391,-60.6609
1760,-8.1239,6.1696,6.821,33.6,29.1478,-65.0435
1765,-4.9816,5.4032,7.3575,25.113,33.8783,-62.3304
1770,-1.9543,4.7517,7.5491,15.1652,30.6783,-54.6087
1775,0.0,3.6787,7.6257,6.5391,22.2609,-43.7565
1780,0.4598,2.7591,7.9323,2.713,9.6,-33.5304
1785,0.5365,2.1076,7.6641,2.9913,-5.1478,-22.1913
1790,1.5328,1.4945,6.8593,6.4,-22.3304,-11.7565
1795,3.1039,0.6898,5.5564,12.313,-37.1478,-4.1043
1800,2.9123,0.3066,4.1386,22.6087,-41.5304,-1.9478
1805,1.6861,0.8047,3.1039,32.1391,-36.7304,-2.4348
1810,2.1076,0.6514,2.1076,37.4957,-29.287,-4.8
1815,0.1533,2.031,2.1843,41.2522,-15.9304,-10.9217
1820,-1.8011,3.6404,2.0693,40.9043,-4.9391,-16.7652
1825,-2.3375,4.7134,3.0656,38.4696,5.5652,-21.4957
1830,-3.4488,5.9013,3.0656,34.3652,10.6435,-25.113
1835,-4.6751,6.821,4.3302,30.0522,12.0348,-26.5043
1840,-4.7517,7.5108,4.4068,28.5217,11.3391,-26.6435
1845,-4.8667,7.4341,4.9433,27.9652,10.5739,-25.5304
1850,-4.5218,7.2425,5.02,25.4609,8.5565,-26.2261
1855,-4.6751,6.7444,5.0966,20.3826,6.3304,-27.2696
1860,-4.7517,5.9396,5.3648,14.0522,4.8,-27.4783
1865,-4.9816,5.5948,5.2499,9.1826,2.713,-27.0609
1870,-4.9433,4.9433,4.8667,5.8435,1.3913,-27.3391
1875,-5.3648,4.6368,5.1732,1.1826,3.3391,-28.313
1880,-6.7827,4.2919,5.4415,-3.8957,6.1913,-29.5652
1885,-7.2042,3.9853,6.1313,-7.3739,6.0522,-30.5391
1890,-7.3958,3.832,5.5564,-6.1217,4.3826,-30.0522
1895,-8.3155,3.832,5.9013,-5.0783,5.7739,-30.6783
1900,-8.6604,3.6021,5.8247,-2.9217,6.7478,-30.3304
1905,-8.3155,3.5638,5.6331,-1.2522,8.1391,-28.7304
1910,-8.2772,3.7171,5.4032,-0.6261,10.1565,-28.4522
1915,-9.3885,3.6787,5.4032,-1.113,13.0087,-30.7478
1920,-9.8483,4.062,5.5181,-2.4348,15.8609,-32.0
1925,-10.0782,4.2152,5.2499,-4.2435,19.2,-32.0
1930,-10.4614,3.9853,5.2116,-4.8,22.6087,-31.5826
1935,-10.5764,3.7937,4.9433,-3.4087,25.6696,-30.887
1940,-10.4998,3.4871,4.9816,-1.5304,28.7304,-30.0522
1945,-10.3848,2.874,4.8284,0.9739,30.1913,-29.7739
1950,-10.3848,2.3759,4.8667,2.8522,30.7478,-29.3565
1955,-10.1932,2.2992,4.9816,4.5217,30.1913,-28.2435
1960,-9.7717,2.1459,5.2116,5.5652,29.0087,-26.2261
1965,-9.4268,2.1076,5.2116,5.8435,27.7565,-24.4174
1970,-9.1969,2.2226,5.2882,5.6348,26.8522,-23.0261
1975,-8.7754,2.2609,5.2116,5.4261,26.1565,-22.3304
1980,-8.5071,2.2226,5.1732,5.3565,25.2522,-21.913
1985,-8.2005,2.031,4.9433,5.4957,24.2087,-22.1217
1990,-8.2005,1.916,4.79,6.2609,22.3304,-22.6087
1995,-8.1239,1.8777,4.5218,6.6087,20.7304,-23.7913
2000,-8.1622,1.6095,4.2152,6.887,19.6174,-25.6696
2005,-8.2005,1.5711,4.1769,6.3304,20.0348,-27.9652
2010,-8.3921,1.4562,4.2919,5.6348,21.2174,-30.3304
2015,-8.4305,1.3029,4.2536,4.6609,22.887,-32.487
2020,-8.6221,1.1496,4.5218,3.4087,24.7652,-34.0174
2025,-8.8903,1.073,4.6368,1.6696,26.1565,-35.4087
2030,-8.967,0.9197,4.7134,-0.2783,27.2,-35.687
2035,-8.6221,0.7281,5.02,-1.6696,28.8696,-35.6174
2040,-8.3538,0.4982,5.1349,-2.4348,30.6783,-34.4348
2045,-8.1239,0.3832,5.0966,-3.2,32.9043,-33.7391
2050,-7.8173,0.1533,5.02,-3.7565,34.9217,-33.5304
2055,-7.7407,-0.0766,4.9816,-5.6348,37.913,-34.3652
2060,-7.894,-0.3449,5.1349,-7.1652,40.0696,-35.9652
2065,-7.7407,-0.4982,5.1349,-7.7217,41.7391,-38.1913
2070,-7.5874,-0.4598,5.1349,-6.887,42.2261,-38.8174
2075,-7.6257,-0.3449,4.9433,-4.9391,42.2261,-37.6348
2080,-8.0089,-0.6131,4.8284,-1.7391,42.713,-34.6435
2085,-8.2389,-0.7281,4.9816,4.5217,41.9478,-31.7217
2090,-8.1239,-0.6898,4.8667,8.6261,41.6,-28.6609
2095,-7.9323,-0.843,4.6751,10.6435,42.713,-26.5739
2100,-8.2389,-0.9963,4.5218,11.8261,45.6348,-25.5304
2105,-8.1622,-1.2263,4.3685,15.5826,50.5739,-24.7652
2110,-8.2005,-1.3412,4.1003,18.4348,54.4696,-23.7913
2115,-8.6604,-1.2646,4.2919,18.713,57.2522,-24.2087
2120,-8.4305,-1.1113,3.947,18.1565,56.8348,-24.3478
2125,-8.3921,-1.073,3.7171,17.7391,57.6696,-24.5565
2130,-8.2772,-1.3029,3.4871,18.2261,60.0348,-23.7913
2135,-8.967,-1.3029,3.6787,19.687,61.913,-23.513
2140,-9.0436,-1.1879,3.6404,22.4,61.9826,-22.1217
2145,-9.0436,-1.1113,3.1806,25.8783,61.9826,-21.3565
2150,-9.0436,-0.8814,2.7974,28.1739,62.4,-20.313
2155,-8.8137,-0.5365,2.6824,29.7043,62.4,-18.9913
2160,-8.4305,-0.1533,2.2992,28.7304,61.5652,-17.6
2165,-8.4688,-0.0766,2.4525,25.3217,59.8957,-17.113
2170,-8.1622,0.1916,2.4142,22.2609,57.3913,-16.0
2175,-8.2005,0.2299,2.4525,18.9217,55.8609,-13.913
2180,-8.2005,0.0383,2.4142,13.4957,56.1391,-11.1304
2185,-8.4688,-0.115,2.5675,9.113,56.7652,-9.9478
2190,-8.8903,-0.2682,2.5291,5.8435,57.3217,-8.9739
2195,-9.9633,-0.5748,3.1039,4.3826,57.113,-7.6522
2200,-10.1932,-1.2263,3.0273,3.6174,56.487,-5.0087
2205,-10.883,-1.7244,3.2572,5.4957,54.9565,-3.1304
2210,-10.8063,-1.9927,2.989,9.7391,51.8261,-0.9739
2215,-11.0746,-1.8394,2.7974,14.0522,49.3217,0.9043
2220,-11.1512,-1.5328,2.4142,18.5739,46.6783,3.4783
2225,-11.2662,-1.2263,2.1459,22.2609,43.0609,6.2609
2230,-11.1512,-0.7664,1.6861,24.5565,40.0,7.8609
2235,-10.9213,-0.1916,1.2646,24.4174,38.7478,8.9739
2240,-11.1895,0.3449,1.2646,22.887,37.7043,9.8783
2245,-11.1895,0.8814,1.1879,20.3826,35.8261,10.4348
2250,-11.2279,1.073,1.073,17.2522,34.087,10.8522
2255,-11.4578,1.2646,1.073,13.7043,32.7652,10.6435
2260,-11.3045,1.1879,1.3795,10.087,31.513,10.1565
2265,-10.653,0.7664,1.1879,6.887,30.2609,9.0435
2270,-10.6914,0.6131,1.2646,4.313,30.1913,7.8609
2275,-10.5764,0.4982,1.4179,1.2522,28.313,6.8174
2280,-10.3465,0.4598,1.2263,-1.7391,26.087,6.7478
2285,-10.0399,0.3449,1.3412,-4.8696,24.0696,6.887
2290,-9.925,0.2682,1.5328,-7.0957,22.5391,7.513
2295,-9.7717,0.1533,1.4945,-8.6261,20.8,7.8609
2300,-9.5801,-0.0766,1.6478,-9.7391,18.2261,8.7652
2305,-9.5801,-0.1533,1.7244,-10.5043,15.0957,9.1826
2310,-9.5034,-0.115,1.4179,-11.5478,11.4087,9.8783
2315,-9.4268,-0.1533,1.6478,-12.313,7.7217,10.1565
2320,-9.5418,-0.115,1.7244,-12.313,3.6174,11.1304
2325,-9.6184,0.0383,1.8011,-11.5478,0.5565,11.4087
2330,-9.695,0.0766,1.9543,-10.9913,-1.7391,11.8957
2335,-9.7717,0.2299,1.916,-10.7826,-3.5478,11.7565
2340,-9.8483,0.2682,1.9927,-10.713,-4.8696,11.7565
2345,-10.0782,0.3832,2.1459,-10.4348,-6.4696,11.6174
2350,-10.1549,0.5748,1.8777,-10.4348,-7.7913,12.1739
2355,-10.2315,0.6131,2.031,-10.7826,-8.9739,12.2435
2360,-10.2315,0.6131,2.1076,-11.1304,-9.8783,12.7304
2365,-10.3082,0.6898,2.1843,-11.3391,-10.5043,13.287
2370,-10.3465,0.5365,2.2992,-11.5478,-10.5739,13.8435
2375,-10.3465,0.4982,2.2992,-11.8261,-10.1565,13.8435
2380,-10.3082,0.4982,2.6058,-11.8957,-9.113,14.6087
2385,-10.3082,0.4982,2.5675,-11.8261,-8.0696,14.9565
2390,-10.1932,0.4598,2.6824,-11.9652,-7.4435,15.0957
2395,-10.1932,0.6131,2.5675,-11.9652,-7.0261,14.8174
2400,-9.8483,0.5748,2.5291,-12.2435,-6.8174,14.7478
2405,-9.5801,0.6898,2.5291,-12.1739,-6.6783,14.5391
2410,-9.5034,0.6898,2.6058,-11.8957,-6.4696,14.6783
2415,-9.7334,0.6514,3.7554,-8.9043,-8.9043,15.6522
2420,-9.1969,0.6514,3.1039,-2.4348,-10.4348,17.2522
2425,-8.6221,0.843,2.8357,-0.5565,-10.5739,17.113
2430,-8.3921,1.073,2.6441,-2.4348,-9.6,15.513
2435,-8.6604,1.2646,2.6824,-6.5391,-8.487,12.7304
2440,-8.7754,1.1113,2.8357,-10.0174,-8.2087,10.713
2445,-9.1969,1.3029,3.1806,-11.2,-8.4174,9.6
2450,-9.0819,1.3029,3.3722,-10.713,-8.9739,9.5304
2455,-9.1202,1.1496,3.4105,-9.6696,-9.1826,9.6
2460,-9.0053,1.1879,3.1423,-8.7652,-8.8348,9.9478
2465,-9.0053,1.2263,3.4105,-9.113,-7.7217,9.2522
2470,-8.9286,1.1879,3.2572,-10.1565,-6.6783,8.6957
2475,-8.9286,1.1496,3.5638,-11.0609,-5.6348,7.8609
2480,-8.8903,1.2263,3.6021,-11.6174,-4.6609,7.5826
2485,-8.852,1.1113,3.6787,-11.4087,-3.8261,7.3043
2490,-8.6987,1.0346,3.6404,-10.9217,-3.1304,7.3043
2495,-8.6604,0.9963,3.5638,-10.1565,-2.7826,6.7478
2500,-8.737,0.9963,3.6787,-9.3217,-2.5043,6.3304
2505,-8.6604,0.9197,3.6021,-8.6261,-2.3652,5.7739
2510,-8.6987,0.958,3.5638,-7.9304,-2.3652,5.5652
2515,-8.6987,1.0346,3.6021,-7.0957,-2.5043,5.0087
2520,-8.5454,0.8814,3.4871,-6.5391,-2.2261,4.7304
2525,-8.4688,0.8047,3.6021,-5.9826,-1.8783,4.1043
2530,-8.4688,0.9197,3.6404,-5.4957,-1.113,3.687
2535,-8.3538,0.843,3.7171,-4.7304,0.0696,2.9217
2540,-8.2772,0.843,3.7937,-3.9652,1.6696,2.2261
2545,-8.3538,0.843,3.7937,-2.9913,3.4087,1.3913
2550,-8.5454,0.8814,3.6787,-1.9478,5.3565,0.7652
2555,-8.6221,1.0346,3.9087,-0.8348,7.3739,-0.2087
2560,-8.6221,0.8814,3.9087,0.4174,9.8783,-0.6957
2565,-8.7754,0.7664,3.7171,1.4609,11.8261,-1.3913
2570,-8.967,0.9197,3.6021,2.3652,13.1478,-1.7391
2575,-8.852,0.7281,3.4105,3.2696,13.9826,-2.5043
2580,-8.967,0.7664,3.4105,3.9652,14.5391,-3.1304
2585,-8.9286,0.7664,3.2572,4.5913,15.0261,-3.8957
2590,-8.9286,0.8047,3.0273,5.0087,15.4435,-4.5913
2595,-8.8903,0.7664,3.0273,5.4261,15.9304,-5.1478
2600,-8.8137,0.7664,3.0656,6.0522,16.6261,-5.5652
2605,-8.9286,0.6898,3.1423,7.0957,17.1826,-6.0522
2610,-8.967,0.6898,3.1806,8.0696,17.3913,-6.3304
2615,-9.0436,0.6131,3.2572,8.9043,17.5304,-6.7478
2620,-9.0819,0.6514,2.989,9.6696,17.6,-6.9565
2625,-9.2352,0.8047,3.1423,10.2957,17.9478,-7.2348
2630,-9.3118,0.8047,2.8357,10.9217,18.4348,-7.3739
2635,-9.3118,0.8814,2.7974,11.3391,18.6435,-7.513
2640,-9.3502,0.843,2.8357,11.5478,18.3652,-7.4435
2645,-9.4268,0.958,2.8357,11.5478,17.7391,-7.2348
2650,-9.3502,0.8814,2.7591,11.2,16.8348,-7.1652
2655,-9.4651,0.9963,2.6058,10.4348,15.7913,-7.3043
2660,-9.4268,0.9963,2.4908,9.6696,15.3043,-7.3739
2665,-9.6567,0.8814,2.6441,8.7652,14.6087,-7.3739
2670,-9.6567,0.958,2.3759,8.0696,13.7739,-7.2348
2675,-9.6567,0.8047,2.3759,7.4435,13.0087,-7.0261
2680,-9.5801,0.7281,2.2992,6.887,12.3826,-6.8174
2685,-9.695,0.5748,2.3375,6.5391,11.687,-6.6087
2690,-9.7717,0.4982,2.2992,6.4,11.1304,-6.3304
2695,-9.8866,0.4598,2.2992,6.3304,10.5739,-6.0522
2700,-9.9633,0.5365,2.2609,6.6087,9.8087,-5.5652
2705,-10.0016,0.6131,2.2992,6.7478,9.1826,-4.8696
2710,-9.8866,0.6131,2.0693,6.8174,8.8348,-4.6609
2715,-9.925,0.6898,1.8777,6.5391,8.6261,-4.5217
2720,-10.1166,0.6898,1.916,5.7739,8.4174,-4.3826
2725,-9.8483,0.7281,1.916,5.0087,7.7217,-4.1043
2730,-9.3885,0.8047,1.6861,4.1043,7.0957,-4.2435
2735,-9.8483,0.8814,1.8777,1.7391,7.1652,-5.287
2740,-9.9633,0.843,1.916,-0.4174,6.3304,-5.8435
2745,-10.0399,0.843,1.9927,-2.713,4.8696,-5.5652
2750,-10.1932,0.7281,2.1076,-4.1043,2.6435,-4.8696
2755,-9.8866,0.6131,2.1843,-4.3826,1.1826,-3.9652
2760,-9.7717,0.3449,2.2226,-4.9391,0.6261,-3.4087
2765,-9.695,0.4598,2.1843,-5.8435,0.8348,-3.2
2770,-9.6567,0.4215,2.2609,-7.4435,1.3913,-2.8522
2775,-9.7334,0.3066,2.4142,-8.487,1.7391,-2.4348
2780,-9.695,0.3066,2.4525,-8.3478,1.9478,-1.5304
2785,-9.695,0.3832,2.6441,-7.5826,1.9478,-0.487
2790,-9.6184,0.2299,2.4525,-6.6783,1.6,0.2087
2795,-9.4268,0.1533,2.5291,-6.1913,1.6,0.9043
2800,-9.4651,0.3066,2.6058,-6.1913,2.0174,1.2522
2805,-9.4651,0.3449,2.7207,-6.3304,2.8522,1.8087
2810,-9.4268,0.1916,2.7591,-6.3304,3.0609,2.2261
2815,-9.3118,0.3449,2.7207,-5.913,2.7826,2.6435
2820,-9.3502,0.3066,2.7207,-5.5652,2.713,2.8522
2825,-9.2735,0.3832,2.8357,-5.5652,2.8522,3.4087
2830,-9.1969,0.3066,2.989,-5.4957,2.6435,3.687
2835,-9.0436,0.3449,2.8357,-5.3565,2.9217,4.1043
2840,-9.1586,0.4982,2.7974,-4.9391,4.1043,4.5217
2845,-9.0819,0.4982,2.989,-4.6609,5.1478,4.8696
2850,-9.0053,0.3832,3.1423,-4.3826,5.913,5.0783
2855,-9.0436,0.3449,3.1039,-3.8957,6.6087,5.287
2860,-9.0436,0.4215,2.8357,-3.5478,7.4435,5.1478
2865,-9.2352,0.4215,2.9123,-3.1304,8.2087,4.9391
2870,-9.2735,0.5365,2.9507,-2.8522,8.3478,4.6609
2875,-9.2735,0.6131,3.0656,-2.3652,8.0696,4.6609
2880,-9.2352,0.6131,2.989,-1.8783,7.3739,4.3826
2885,-9.3118,0.7281,3.1039,-1.3217,7.0261,4.2435
2890,-9.0819,0.5365,3.0656,-0.9043,6.887,3.8261
2895,-9.1202,0.6514,3.1423,-0.6957,7.1652,3.6174
2900,-9.2352,0.6514,3.2189,-0.6261,7.7913,3.2696
2905,-9.2352,0.6898,3.1423,-0.2783,8.3478,3.2696
2910,-9.3118,0.7664,2.989,-0.1391,9.113,2.9913
2915,-9.3118,0.8814,3.0656,-0.1391,9.8783,3.0609
2920,-9.3885,1.0346,3.0656,-0.0696,10.5043,2.7826
2925,-9.3118,0.9197,2.9507,0.0,10.7826,2.9217
2930,-9.2735,0.843,2.874,0.1391,10.8522,2.7826
2935,-9.2352,0.843,2.7974,0.3478,10.713,2.7826
2940,-9.2352,0.8814,2.7591,0.487,10.5043,2.4348
2945,-9.2735,0.8814,2.6824,0.4174,10.2957,2.3652
2950,-9.1586,0.843,2.6058,0.487,10.4348,1.9478
2955,-9.4651,0.843,2.7207,0.5565,10.5043,1.5304
2960,-9.3885,0.7664,2.7207,0.7652,10.5739,1.2522
2965,-9.5418,0.9963,2.6441,0.6957,10.7826,1.3217
2970,-9.5034,0.9963,2.6441,0.2783,11.0609,0.9043
2975,-9.3885,0.958,2.7591,-0.4174,11.1304,0.7652
2980,-9.3502,0.958,2.6058,-0.9043,10.9913,0.3478
2985,-9.3885,0.958,2.7207,-1.3217,10.2261,0.487
2990,-9.3502,0.958,2.6824,-1.5304,9.6,0.3478
2995,-9.3502,0.9197,2.7207,-1.8783,8.8348,0.487
