timestamp,accX,accY,accZ,gyroX,gyroY,gyroZ
0,-1.7244,-8.1239,-1.7244,-9.2522,-12.3826,12.5217
5,-2.031,-8.0856,-1.7244,-9.8087,-13.5652,13.2174
10,-1.7244,-8.2005,-1.8777,-10.3652,-13.9826,13.9826
15,-1.9927,-8.3538,-1.9543,-10.9217,-14.6087,14.1913
20,-1.8011,-8.3921,-2.1459,-10.7826,-14.6783,14.3304
25,-1.7627,-8.6221,-2.031,-10.2957,-14.4,13.6348
30,-1.5711,-8.7754,-2.2609,-9.6,-14.2609,12.8696
35,-1.5711,-8.8137,-2.0693,-8.9739,-13.913,11.7565
40,-1.5328,-8.8137,-2.2992,-8.2783,-13.4261,10.5043
45,-1.1879,-8.852,-2.2992,-8.0696,-12.3826,9.113
50,-1.2646,-8.6604,-2.031,-8.2087,-11.1304,7.4435
55,-1.073,-8.4305,-2.0693,-8.2783,-10.5043,6.2609
60,-0.9963,-8.3538,-2.0693,-8.4174,-9.8087,4.9391
65,-0.8814,-8.3538,-1.9927,-8.5565,-9.0435,3.6174
70,-0.8814,-8.0856,-2.031,-8.6261,-8.2087,2.5739
75,-0.7664,-8.0856,-1.9927,-8.9739,-7.3739,1.4609
80,-0.9963,-8.0089,-1.8394,-9.0435,-6.4696,0.1391
85,-0.8047,-7.894,-1.8777,-8.8348,-6.0522,-0.6261
90,-0.9963,-8.0473,-1.8394,-8.487,-5.7043,-1.5304
95,-1.1879,-8.0856,-1.6478,-8.0696,-5.6348,-2.3652
100,-1.3795,-8.2389,-1.6095,-7.7217,-5.3565,-3.2
105,-1.4562,-8.1622,-1.5328,-7.6522,-5.0783,-4.0348
110,-1.6861,-8.5071,-1.5328,-8.1391,-5.0783,-4.9391
115,-1.8394,-8.4688,-1.4562,-8.9739,-5.287,-5.4957
120,-1.9543,-8.7754,-1.1879,-10.087,-5.7739,-6.1217
125,-2.1459,-9.0053,-1.3029,-11.1304,-6.1217,-6.7478
130,-2.1076,-9.0053,-1.2646,-11.4087,-6.2609,-7.3739
135,-2.031,-9.3502,-1.3029,-10.713,-6.4,-7.9304
140,-1.8777,-9.4651,-1.1496,-9.3913,-6.5391,-8.6261
145,-1.8777,-9.4268,-1.1496,-7.6522,-6.2609,-9.3217
150,-1.7244,-9.3118,-1.1879,-5.7043,-5.3565,-10.2261
155,-1.4562,-9.5034,-1.1113,-3.6174,-3.6174,-10.9913
160,-1.2646,-9.3885,-0.8814,-1.5304,-1.8087,-11.9652
165,-0.958,-9.2735,-0.843,-0.487,-0.2783,-12.7304
170,-0.8047,-9.1586,-0.843,0.2087,1.0435,-13.287
175,-0.6514,-9.2352,-0.843,0.5565,2.3652,-13.7739
180,-0.5365,-9.0436,-0.6898,0.5565,3.6174,-14.2609
185,-0.2299,-8.6987,-0.8047,0.3478,4.3826,-14.8174
190,-0.115,-8.737,-0.843,-0.487,4.8,-15.2348
195,-0.0766,-8.5838,-0.6131,-1.4609,5.4261,-15.513
200,-0.3832,-8.5071,-0.7281,-2.2261,6.6087,-15.8609
205,-0.3449,-8.3921,-0.7281,-3.1304,7.6522,-16.2087
210,-0.3449,-8.4305,-0.8814,-4.2435,8.2783,-16.3478
215,-0.6514,-8.3921,-0.843,-5.913,8.4174,-15.9304
220,-0.843,-8.3921,-1.1879,-7.8609,8.4174,-15.0261
225,-1.0346,-8.6221,-1.2263,-10.0174,8.3478,-14.1217
230,-0.9963,-8.737,-1.4179,-12.6609,8.4174,-13.0783
235,-1.3795,-8.967,-1.6478,-15.3043,8.7652,-12.0348
240,-1.3795,-9.1586,-1.8011,-17.7391,9.4609,-10.9913
245,-1.4945,-9.3885,-1.916,-19.9652,10.3652,-9.8783
250,-1.5711,-9.5801,-1.9927,-21.9826,11.687,-8.9043
255,-1.3412,-9.925,-2.2609,-23.9304,13.8435,-8.2783
260,-1.3412,-10.1549,-2.3375,-25.3217,16.9739,-7.8609
265,-1.1496,-10.4614,-2.4908,-26.4348,20.4522,-7.6522
270,-1.1496,-10.653,-2.5675,-26.9217,23.7913,-7.3739
275,-0.9963,-10.6914,-2.6058,-27.0609,26.5043,-7.3739
280,-0.9963,-10.8446,-2.5291,-26.4348,28.313,-7.4435
285,-0.958,-10.768,-2.7974,-25.5304,29.7043,-7.3043
290,-0.9963,-10.9596,-2.7207,-24.4174,30.5391,-7.0957
295,-0.958,-10.8446,-2.7974,-23.3043,30.7478,-7.0261
300,-1.0346,-10.8446,-2.874,-22.2609,30.2609,-6.887
305,-1.1113,-10.9596,-2.9123,-21.4261,29.1478,-6.5391
310,-1.3795,-11.0746,-3.1039,-21.0783,27.5478,-6.1913
315,-1.5711,-11.3045,-3.0273,-20.8,25.4609,-5.4261
320,-1.8777,-11.1512,-2.9507,-20.313,23.1652,-4.7304
325,-2.0693,-11.3811,-2.8357,-19.3391,20.7304,-3.9652
330,-2.4142,-11.4195,-2.7974,-18.087,18.0174,-3.2
335,-2.4908,-11.6877,-2.6824,-16.5565,15.2348,-2.2957
340,-2.5291,-11.7643,-2.6824,-15.4435,12.4522,-1.113
345,-2.4908,-11.841,-2.7207,-14.6783,10.0174,0.0
350,-2.4142,-12.0709,-2.8357,-14.1217,7.9304,0.9739
355,-2.4908,-12.2242,-2.7207,-13.2174,5.7043,1.8783
360,-2.4908,-12.3775,-2.7207,-12.1043,3.4087,2.5043
365,-2.2609,-12.6074,-2.6058,-10.4348,1.3217,3.1304
370,-2.1076,-12.8373,-2.7974,-8.2087,-0.2087,3.3391
375,-1.9927,-12.8373,-2.6058,-5.3565,-0.9043,3.3391
380,-1.8394,-12.9523,-2.5675,-1.8087,-0.9043,2.9913
385,-1.4945,-12.6457,-2.5675,2.087,-0.3478,2.4348
390,-1.2646,-12.1475,-2.6058,5.7739,0.6261,1.3217
395,-1.1113,-11.9943,-2.6824,9.6,1.9478,-0.3478
400,-0.8047,-11.4961,-2.874,12.8696,3.9652,-2.2957
405,-0.5748,-10.9596,-2.7591,15.2348,6.6087,-4.313
410,-0.1533,-10.5381,-2.8357,17.113,9.8087,-6.7478
415,0.0,-10.2315,-3.0273,17.7391,13.7043,-9.0435
420,0.2682,-9.81,-2.989,18.0174,17.4609,-10.8522
425,0.4215,-9.3885,-3.1423,18.3652,21.0783,-12.313
430,0.5365,-8.5838,-3.1423,18.2957,24.2087,-14.1913
435,0.6898,-8.2772,-3.4105,17.9478,27.1304,-15.7217
440,0.843,-7.894,-3.7554,17.5304,29.7043,-17.113
445,0.9963,-7.7407,-4.1386,16.9043,32.6261,-18.0174
450,0.9963,-7.4725,-4.3685,15.7217,35.2696,-19.5478
455,0.9963,-7.1659,-4.79,14.8174,37.7043,-20.7304
460,0.8047,-6.6677,-5.02,13.5652,40.0,-21.287
465,0.7664,-6.5145,-5.1349,12.0348,41.5304,-21.3565
470,0.6514,-6.0163,-5.1732,10.5739,41.7391,-21.0783
475,0.6514,-5.748,-5.2116,9.3913,41.0435,-20.0348
480,0.4982,-5.4415,-5.2882,8.3478,39.1652,-18.2957
485,0.3066,-5.1732,-5.3265,7.5826,36.3826,-15.6522
490,0.1533,-5.2116,-5.2116,7.2348,33.1826,-13.5652
495,0.0,-5.4415,-5.2116,7.2348,30.2609,-11.5478
500,-0.0383,-5.7097,-5.1349,7.3043,26.7826,-10.0174
505,-0.1533,-5.748,-4.9433,7.6522,23.9304,-8.5565
510,-0.2682,-5.9396,-4.7134,8.5565,20.5217,-7.513
515,-0.3066,-6.0929,-4.4835,9.9478,16.487,-6.6783
520,-0.2299,-6.3995,-4.6368,11.0609,12.1739,-5.7043
525,0.0,-6.821,-4.4068,11.7565,7.6522,-4.9391
530,0.0,-7.2425,-4.2919,11.7565,2.6435,-4.2435
535,0.115,-7.6641,-4.5218,11.4087,-2.2261,-4.0348
540,0.0383,-8.0473,-4.4452,10.3652,-7.0261,-3.6174
545,0.1916,-8.5454,-4.4452,9.3913,-11.687,-3.1304
550,0.2299,-9.1586,-4.5984,8.3478,-15.8609,-3.0609
555,0.1916,-9.6184,-4.7134,7.1652,-19.2,-2.9217
560,0.3449,-10.0016,-4.8284,5.8435,-21.913,-2.2261
565,0.3832,-10.0399,-5.2499,4.4522,-22.9565,-1.6
570,0.115,-9.9633,-5.3648,2.8522,-22.2609,-0.9043
575,0.4215,-10.0782,-5.3648,1.6696,-20.313,-0.2783
580,0.5365,-10.0782,-5.5181,1.3913,-17.6,-0.2087
585,0.6131,-10.0782,-5.4415,1.9478,-14.2609,-0.6261
590,0.7281,-10.0782,-5.2116,2.713,-10.6435,-1.2522
595,1.0346,-10.2315,-5.0966,3.6174,-7.0957,-1.6
600,1.073,-10.1166,-4.7517,4.313,-3.9652,-1.9478
605,1.3795,-10.2698,-4.4835,4.8696,-1.2522,-2.4348
610,1.3029,-10.2698,-4.2152,5.6348,1.1826,-2.6435
615,1.2263,-10.3848,-3.8704,6.6783,2.9217,-2.9913
620,1.1496,-10.5764,-3.5638,7.4435,3.9652,-2.9217
625,1.0346,-10.5381,-3.4105,8.2087,4.5217,-2.9217
630,0.9963,-10.653,-3.2189,8.9043,4.313,-2.9913
635,0.6898,-10.5764,-3.1039,9.3913,3.2,-3.2
640,0.5748,-10.4614,-2.9123,9.6696,2.1565,-2.9913
645,0.3449,-10.3848,-2.6441,9.6696,1.3217,-2.8522
650,0.2299,-10.0782,-2.874,9.5304,0.487,-2.8522
655,0.115,-9.925,-2.7974,9.113,-0.0696,-2.713
660,0.115,-9.695,-2.5291,8.6957,-0.4174,-2.9913
665,0.0766,-9.3118,-2.5291,8.487,-0.7652,-3.2696
670,0.3066,-8.9286,-2.3759,8.2783,-1.0435,-3.5478
675,0.2682,-8.852,-2.2992,8.1391,-1.3913,-4.1043
680,0.3449,-8.5838,-2.1459,7.8609,-1.8783,-5.0783
685,0.3832,-8.3921,-2.2226,7.7217,-2.1565,-6.1217
690,0.5748,-8.2772,-2.1459,7.2348,-2.2261,-7.2348
695,0.7664,-8.2005,-1.9927,6.8174,-2.1565,-8.2087
700,0.958,-8.2389,-1.9543,6.4,-2.1565,-9.113
705,0.9197,-8.2772,-2.0693,5.8435,-2.2957,-9.8087
710,1.1113,-8.3155,-2.2226,5.0087,-2.4348,-10.3652
715,1.1113,-8.5838,-2.0693,4.2435,-2.2261,-10.9217
720,1.1879,-8.7754,-2.0693,3.8261,-2.2957,-10.9217
725,1.1879,-8.967,-1.9543,3.8957,-2.5043,-10.6435
730,1.3029,-9.0436,-1.8777,4.8,-3.0609,-10.6435
735,1.073,-9.1202,-1.9543,6.2609,-3.7565,-10.3652
740,1.073,-9.2352,-1.7627,8.2087,-4.4522,-9.7391
745,1.1113,-9.1969,-1.8011,10.3652,-5.2174,-9.3913
750,0.9963,-9.3502,-1.7244,12.8,-6.1217,-9.1826
755,0.8814,-9.1969,-1.3795,15.2348,-7.0957,-8.8348
760,0.8047,-9.1586,-1.6095,17.7391,-8.2087,-8.9043
765,0.7281,-9.1969,-1.4179,20.1739,-9.3913,-8.7652
770,0.5365,-9.0819,-1.4945,22.1913,-10.5043,-8.2783
775,0.5748,-9.7717,-1.6478,24.2087,-11.3391,-8.0
780,0.5365,-9.3118,-1.3029,26.4348,-12.4522,-7.6522
785,0.6514,-9.695,-1.0346,28.7304,-13.6348,-7.0957
790,0.4215,-9.8483,-0.958,31.0957,-14.6783,-6.4696
795,0.4215,-10.1932,-0.8047,32.8348,-15.7217,-5.4957
800,0.4982,-10.2698,-0.7664,33.8087,-17.113,-4.1043
805,0.5748,-10.2315,-0.8814,33.8783,-18.9217,-2.5043
810,0.4598,-10.2698,-1.1496,33.5304,-20.6609,-0.9043
815,0.3832,-10.1166,-1.5711,33.0435,-22.4,1.2522
820,0.1533,-9.6567,-2.1076,32.6261,-24.5565,4.1043
825,0.1533,-9.3885,-2.6824,32.0696,-27.1304,7.2348
830,-0.0766,-8.6604,-3.3722,31.7217,-30.7478,11.687
835,-0.2682,-7.779,-4.1003,30.1217,-35.2,15.4435
840,-0.5365,-6.9743,-4.79,27.6174,-40.487,18.5739
845,-0.4982,-6.2462,-5.8247,24.2783,-46.2609,21.7043
850,-0.4215,-5.5564,-6.6677,19.4087,-49.7391,24.0696
855,-0.1916,-5.3265,-7.2425,12.4522,-51.5478,25.8087
860,-0.0383,-5.1732,-7.2425,4.0348,-52.9391,26.6435
865,0.115,-5.1349,-6.8977,0.0,-54.2609,26.087
870,0.1533,-5.2116,-6.0546,-1.8783,-54.887,23.9304
875,0.3449,-5.4415,-6.0929,-2.5739,-55.3739,19.2696
880,0.5365,-5.4032,-6.0546,-3.2,-56.6957,12.9391
885,0.4982,-5.2882,-6.1313,-4.8696,-59.687,5.0783
890,0.2299,-4.8667,-6.0929,-7.3043,-64.2087,-3.5478
895,-0.3449,-4.1386,-6.2079,-8.2783,-69.8435,-12.8696
900,-0.2299,-3.6404,-5.978,-7.6522,-75.0609,-22.1913
905,-0.4598,-2.6824,-5.863,-6.0522,-78.7478,-30.9565
910,-0.8047,-1.6095,-5.1732,-3.8957,-79.3043,-37.0087
915,-0.7281,-0.6131,-4.4835,-1.3913,-75.2,-39.513
920,-1.1496,0.0383,-3.7171,0.0696,-64.5565,-38.9565
925,-1.7244,0.5748,-3.1423,-1.2522,-50.2261,-36.1739
930,-1.6861,1.2263,-2.7207,-5.0783,-35.3391,-29.7043
935,-2.0693,1.3412,-2.4142,-11.6174,-21.7739,-20.5217
940,-1.9927,0.8814,-2.4142,-21.0087,-11.8957,-9.6696
945,-1.6095,0.2299,-2.9507,-30.887,-5.7043,0.9739
950,-1.1113,-0.5748,-3.6404,-39.4435,-2.0174,9.5304
955,-0.1533,-1.5328,-4.5218,-46.887,0.487,15.513
960,0.7281,-2.1459,-5.0583,-52.5913,1.9478,18.8522
965,1.5328,-3.2572,-5.6331,-56.0696,1.6696,19.4087
970,2.031,-4.0236,-5.5181,-55.8609,1.113,16.9739
975,2.6824,-5.2499,-4.8667,-52.4522,1.5304,12.8696
980,2.7207,-6.4761,-4.1003,-47.513,2.9217,7.3739
985,2.4908,-7.9323,-3.1423,-41.6,3.0609,1.3913
990,2.1076,-9.0436,-2.6824,-34.6435,0.1391,-4.3826
995,1.9543,-9.81,-1.9543,-27.6174,-3.8957,-8.9043
1000,1.7627,-10.5381,-1.8011,-22.4,-6.2609,-12.313
1005,1.3795,-11.4195,-1.7627,-18.2957,-5.1478,-15.1652
1010,1.1879,-12.3391,-1.8394,-14.5391,-2.2261,-17.4609
1015,0.7281,-12.9523,-2.2226,-9.7391,0.6261,-19.2696
1020,0.3832,-13.1822,-2.4908,-4.1043,1.8783,-19.7565
1025,-0.2299,-13.4504,-3.5638,2.087,1.9478,-18.7826
1030,-1.0346,-13.4888,-4.8284,8.0696,1.113,-16.5565
1035,-1.916,-13.6037,-5.978,13.913,0.4174,-13.4957
1040,-2.4142,-13.6804,-6.9743,20.8,0.487,-9.5304
1045,-3.0656,-13.4121,-7.4725,27.7565,0.8348,-5.0087
1050,-3.4105,-13.2971,-7.779,34.2957,0.9739,-0.9739
1055,-3.4105,-13.0672,-7.7407,39.6522,0.9739,1.9478
1060,-3.1423,-13.0289,-7.5491,43.5478,1.0435,4.1739
1065,-2.989,-12.8756,-7.3575,48.2783,0.9043,5.6348
1070,-2.5675,-12.7607,-6.4378,55.1652,0.1391,6.3304
1075,-2.5675,-12.2625,-5.5564,64.7652,-1.3217,6.6783
1080,-2.3375,-10.9979,-4.79,76.4522,-3.687,6.887
1085,-2.3759,-9.4268,-3.947,87.513,-6.887,6.0522
1090,-2.2609,-8.1622,-3.3339,95.7913,-11.1304,4.9391
1095,-2.3759,-6.5145,-2.2609,99.8261,-16.7652,4.1043
1100,-2.0693,-5.748,-1.1113,100.3826,-22.6783,3.9652
1105,-1.4179,-5.2882,0.0766,99.2,-27.2,3.6174
1110,-0.5365,-5.2882,1.2263,98.0174,-28.8696,2.5739
1115,0.1916,-5.5564,1.916,97.8087,-25.6,0.9739
1120,1.4562,-5.7097,2.5291,98.5739,-17.4609,-1.4609
1125,2.4525,-5.3648,3.3722,99.3391,-6.0522,-3.9652
1130,3.5638,-4.7517,4.1003,99.1304,7.4435,-5.4261
1135,3.9087,-3.9087,4.4835,96.7652,22.6783,-5.8435
1140,3.9087,-3.1806,4.5984,92.3826,37.8435,-5.7043
1145,3.5638,-2.1843,4.4068,87.2348,50.4348,-5.2174
1150,2.7974,-0.9963,3.9087,81.0435,58.713,-4.1043
1155,2.1459,-0.8047,3.2572,74.2261,62.1913,-2.087
1160,1.1113,-0.5365,2.6441,68.2435,61.3565,0.0696
1165,0.0766,-0.5748,2.3375,64.8348,57.9478,2.4348
1170,-0.9197,-0.5748,1.6095,64.487,53.0783,4.7304
1175,-1.916,-0.4982,0.5365,66.1565,49.3217,5.913
1180,-2.5291,-0.5365,-0.3832,68.1043,48.3478,6.6783
1185,-2.7974,-0.6131,-1.0346,69.5652,51.3391,7.0261
1190,-2.3759,-0.6898,-1.6478,70.6087,56.4174,6.6087
1195,-1.8394,-1.073,-1.4179,70.7478,62.2609,5.3565
1200,-1.073,-1.2646,-1.4179,70.3304,67.687,3.8261
1205,0.0383,-1.1496,-1.7627,69.2174,71.4435,2.4348
1210,0.9197,-1.0346,-2.874,67.687,74.0174,0.8348
1215,1.9927,-0.1916,-5.3265,64.9739,75.5478,-1.2522
1220,2.9123,0.4215,-8.1239,59.687,74.7826,-4.5913
1225,3.6787,0.8814,-12.1092,51.4783,70.4696,-9.7391
1230,3.832,0.7664,-15.558,38.1913,61.0783,-16.6957
1235,3.1423,-0.1916,-17.0909,19.5478,45.7739,-24.0696
1240,0.4215,-2.5675,-16.9376,-2.087,25.6,-29.7739
1245,-4.0236,-6.0163,-14.9066,-22.0522,-2.9217,-31.5826
1250,-8.852,-9.5801,-10.8063,-37.0783,-40.1391,-27.7565
1255,-11.3045,-12.2625,-6.936,-37.2174,-82.6435,-18.9217
1260,-11.1895,-13.1822,-5.0966,-21.8435,-121.9478,-7.3043
1265,-9.0819,-12.8756,-4.2152,0.487,-149.287,4.3826
1270,-5.2882,-11.8793,-3.6787,21.287,-157.7739,14.8174
1275,-0.7664,-11.0746,-2.6824,36.8696,-148.4522,20.9391
1280,3.0273,-10.768,-2.4525,45.6348,-127.1652,21.7043
1285,5.4032,-10.5764,-2.0693,46.9565,-99.8261,19.8957
1290,7.8557,-10.4998,-1.5328,43.6174,-71.2348,16.7652
1295,9.1969,-10.6147,-0.2299,40.0696,-44.1043,13.0087
1300,9.695,-10.1166,1.8011,42.3652,-18.0174,12.0348
1305,9.0053,-9.3118,3.6404,50.9913,5.0087,14.0522
1310,7.3575,-7.0126,5.1732,65.4609,21.4261,16.5565
1315,6.0546,-4.1386,5.4415,79.0957,31.0957,18.9217
1320,4.8667,-1.6095,5.4798,87.8609,37.5652,21.8435
1325,4.2536,0.5365,5.2882,95.4435,43.2,23.1652
1330,3.5638,2.1843,4.8667,104.9739,49.6,20.6609
1335,2.6058,3.6404,3.7554,113.7391,56.0,14.1217
1340,1.3795,4.4835,2.6058,118.3304,61.9826,5.287
1345,0.0383,4.2152,1.5711,117.4261,66.5043,-3.4087
1350,-1.3029,3.1806,0.3066,112.487,69.287,-10.2957
1355,-2.2226,2.031,-0.2682,106.9913,69.2174,-14.4
1360,-3.3339,0.1533,-1.1496,103.2348,65.6696,-15.9304
1365,-4.0236,-2.0693,-1.4945,102.0522,59.0609,-14.887
1370,-4.6751,-4.2536,-2.1843,104.2783,51.4783,-11.4783
1375,-4.6751,-6.2462,-2.7207,109.4957,44.0348,-6.5391
1380,-4.3302,-7.5108,-3.1806,117.7739,38.1217,-0.8348
1385,-3.5638,-9.3118,-3.6021,128.0696,33.8087,4.6609
1390,-3.1039,-10.4614,-3.1423,139.4087,30.7478,9.8783
1395,-2.0693,-11.3045,-2.3375,152.3478,25.6696,14.1913
1400,-1.7627,-11.5727,-1.6095,167.1652,15.9304,16.6261
1405,-1.3412,-11.4578,-0.6131,180.7304,3.4087,18.3652
1410,-1.1496,-10.3082,0.5365,192.0,-11.5478,19.1304
1415,-0.9963,-8.5838,1.6478,200.9739,-26.0174,19.3391
1420,-1.1879,-6.4378,2.7207,209.0435,-36.7304,19.0609
1425,-1.2646,-5.0966,2.5675,217.7391,-42.8522,18.6435
1430,-1.1113,-3.3722,2.2992,225.113,-45.1478,18.087
1435,-0.8047,-1.8394,1.4179,228.2435,-44.5913,17.3913
1440,-0.4215,-0.7664,0.9963,226.087,-41.5304,16.8348
1445,0.0383,-0.5748,0.843,221.4957,-34.8522,15.9304
1450,0.5365,-1.073,1.4179,216.0,-25.1826,15.2348
1455,0.9197,-2.4908,3.0656,209.7391,-13.0087,14.5391
1460,1.7627,-6.0163,5.1732,206.5391,1.3217,13.1478
1465,4.4068,-12.6457,8.737,210.0174,16.9043,10.1565
1470,8.0473,-22.609,14.4851,224.6261,34.0174,4.8
1475,10.1549,-31.2694,18.9686,254.887,53.3565,-2.713
1480,11.5727,-44.6432,26.9392,291.8261,71.3043,-10.9913
1485,10.2698,-61.0826,35.9061,319.8609,81.5304,-16.6957
1490,4.9433,-82.1971,41.1177,325.2174,71.1652,-15.4435
1495,-4.1003,-101.4722,32.9938,295.1652,52.1739,-5.287
1500,-10.3082,-108.2549,22.2258,227.2,34.713,8.3478
1505,-13.1822,-104.5378,11.3811,154.5043,22.3304,23.0957
1510,-10.7297,-87.2937,3.6404,165.4957,24.487,32.6261
1515,-9.4268,-66.4091,1.7244,264.2783,28.7304,23.7913
1520,-9.3118,-47.7854,0.0,360.9739,28.0348,11.6174
1525,-7.8557,-36.7492,-2.031,400.9043,27.8957,12.6609
1530,-6.1313,-22.0725,-4.8284,394.5739,26.713,20.9391
1535,-3.832,-8.2772,-2.4908,355.7565,21.0087,35.7565
1540,0.3832,3.7171,0.3832,298.5739,10.5739,52.3826
1545,2.874,11.3428,2.3375,239.7913,2.2957,65.113
1550,5.1349,17.5507,4.5218,207.3739,-6.7478,70.6783
1555,5.9396,18.2788,3.4105,186.5043,-14.0522,67.0609
1560,5.4032,13.2205,-0.5365,177.1826,-14.6087,52.9391
1565,4.8667,7.2042,-4.2919,182.6087,-10.5043,31.2348
1570,5.02,3.5255,-5.4798,197.913,-8.4174,10.3652
1575,6.0546,-1.6861,-6.3229,220.1043,-8.2087,-6.7478
1580,4.7134,-6.6294,-6.8593,245.1478,-3.6174,-18.0174
1585,3.6021,-11.1895,-5.978,264.4174,0.2783,-20.5217
1590,2.3759,-13.9103,-5.4032,279.513,3.4087,-17.8087
1595,1.3412,-15.0216,-5.6714,284.0348,5.4261,-11.8957
1600,0.0383,-13.1055,-6.2845,273.3217,5.9826,-1.4609
1605,-0.5365,-8.0856,-6.3229,250.5043,5.1478,10.4348
1610,-0.843,-2.1459,-5.6714,223.513,5.0087,18.6435
1615,-0.6131,2.4908,-5.7097,197.4261,5.1478,22.887
1620,-0.115,5.2499,-5.7864,173.7739,5.4957,25.6696
1625,0.7664,7.1659,-5.3648,153.5304,8.1391,25.3913
1630,1.5711,7.5491,-4.2536,140.1739,15.0957,21.913
1635,2.1843,6.821,-2.5291,136.4174,23.7217,16.6957
1640,2.4525,5.2116,-0.3066,140.0348,31.3739,12.2435
1645,2.2992,3.2189,1.1879,147.5478,35.687,10.087
1650,1.7244,0.4598,2.6058,155.5478,36.0348,9.6
1655,0.3449,-2.3375,3.4871,160.0,34.5739,11.0609
1660,-0.9963,-4.905,4.5601,161.8783,33.4609,15.3739
1665,-1.4562,-6.5528,5.6714,164.3826,31.0261,21.4261
1670,-1.6095,-7.6257,6.7827,169.0435,27.1304,27.2
1675,-1.7627,-7.6257,8.0856,174.1217,22.8174,31.6522
1680,-1.916,-6.4378,9.4651,178.2261,18.713,33.4609
1685,-2.9507,-4.1386,10.883,179.7565,16.4174,34.087
1690,-3.8704,-2.7207,12.7223,179.4783,14.8174,33.9478
1695,-3.947,-1.5711,14.2168,177.5304,13.0087,33.113
1700,-3.6787,-1.4562,15.0982,173.6348,13.0087,31.6522
1705,-3.947,-2.6058,15.7113,170.087,13.1478,28.6609
1710,-3.2189,-3.7554,15.0216,170.8522,11.5478,26.7826
1715,-3.5255,-4.2152,14.83,174.9565,9.113,27.1304
1720,-4.6751,-4.5601,14.0252,181.0087,4.7304,30.1913
1725,-5.863,-3.9853,13.6804,185.2522,-1.8783,35.2696
1730,-6.936,-3.6021,13.757,185.2522,-9.8783,39.1652
1735,-7.5874,-3.0656,13.0289,182.4,-14.9565,40.2783
1740,-7.779,-2.7591,12.5691,179.3391,-13.4261,39.9304
1745,-7.5491,-2.0693,12.4158,177.4609,-8.8348,39.1652
1750,-6.936,-0.9963,11.9559,177.5304,-6.9565,38.7478
1755,-5.5564,-0.4215,10.9979,178.2261,-10.2261,38.6783
1760,-4.7134,-0.1533,10.4231,178.6435,-18.7826,39.0261
1765,-2.9507,0.0383,10.0016,178.8522,-29.6348,38.6087
1770,-2.4908,0.5748,9.2352,179.7565,-39.7217,37.1478
1775,-2.031,1.1879,8.5454,181.1478,-47.0957,35.1304
1780,-1.8011,2.1076,8.7754,181.6348,-51.0609,32.3478
1785,-2.1843,2.9507,9.3118,180.6609,-52.5217,28.8696
1790,-1.2646,4.0236,10.883,177.113,-52.6609,25.0435
1795,-1.1496,5.02,12.8373,171.687,-48.5565,19.687
1800,-0.3832,6.0546,13.4121,163.4783,-43.2,14.3304
1805,0.0766,6.6677,13.0289,151.0261,-37.7739,9.1826
1810,-0.2682,6.821,12.4541,136.487,-34.2261,5.4261
1815,-0.5365,6.7827,10.883,124.0348,-32.4174,2.7826
1820,-1.3412,6.5911,9.7334,113.6696,-31.6522,0.2783
1825,-1.5328,6.5145,8.6987,105.3913,-31.7913,-1.5304
1830,-1.9927,5.978,8.5454,98.2261,-32.5565,-2.4348
1835,-2.4525,5.7864,8.8137,92.2435,-35.1304,-2.5043
1840,-2.3759,5.5948,8.9286,87.9304,-39.7913,-2.087
1845,-2.7974,5.748,9.695,85.2174,-44.6609,-1.2522
1850,-2.7974,6.4378,9.9633,81.7391,-50.8522,-1.7391
1855,-2.5675,7.0126,10.7297,76.3826,-57.3913,-3.3391
1860,-2.3375,7.4341,11.6877,69.913,-63.2348,-5.0783
1865,-1.8011,7.5491,13.6037,63.5826,-66.8522,-7.4435
1870,-1.3412,7.8173,14.2168,57.9478,-67.0609,-10.0174
1875,-0.9963,8.0856,14.1019,48.3478,-66.3652,-12.313
1880,-0.2682,8.4688,14.2552,33.7391,-66.6435,-13.913
1885,0.0766,8.2389,14.6,14.4696,-66.9217,-15.7913
1890,0.1533,7.6641,13.4504,2.1565,-65.9478,-17.1826
1895,0.2299,6.9743,11.1895,-7.6522,-62.8174,-17.8087
1900,0.3832,6.1696,8.8903,-16.6261,-57.6696,-17.8087
1905,0.6131,5.5181,7.9323,-23.6522,-52.7304,-16.9043
1910,0.8047,4.6751,6.8593,-27.2696,-48.3478,-15.513
1915,1.1113,3.9087,6.6677,-27.3391,-44.4522,-14.1217
1920,1.3412,3.3339,6.3612,-24.5565,-40.9739,-12.5217
1925,1.5711,2.989,6.0546,-20.6609,-38.7478,-11.2696
1930,1.6095,2.8357,6.0546,-17.4609,-37.4957,-10.5739
1935,1.3029,3.2955,6.7061,-15.5826,-36.5913,-9.7391
1940,1.2263,3.4488,8.3155,-14.5391,-36.4522,-8.487
1945,1.5328,3.6404,9.5801,-12.4522,-37.287,-8.3478
1950,1.4562,3.4105,10.3082,-9.7391,-36.1043,-9.6
1955,1.6861,3.9853,10.1166,-10.5739,-33.8087,-10.5043
1960,1.8394,3.9087,10.5764,-16.2087,-30.7478,-10.5739
1965,1.8394,3.5638,10.2315,-20.7304,-28.3826,-10.2957
1970,1.8394,3.0273,9.81,-23.6522,-27.1304,-9.7391
1975,1.6478,2.6441,9.0819,-25.5304,-26.5043,-9.113
1980,1.8777,2.2226,8.1239,-26.4348,-26.4348,-7.8609
1985,1.7627,2.0693,7.4725,-26.5739,-25.6,-6.6783
1990,1.8394,1.916,7.0893,-25.4609,-24.2087,-5.2174
1995,2.2609,1.7244,6.9743,-22.6783,-22.3304,-4.313
2000,2.2992,1.6861,7.0893,-17.8087,-19.4783,-4.0348
2005,2.4908,1.6861,7.2425,-12.1043,-16.0696,-3.9652
2010,2.2992,1.8777,7.7024,-6.4696,-12.5217,-3.9652
2015,2.4525,1.8777,8.2389,-1.6,-8.9043,-4.313
2020,2.6058,2.0693,8.7754,2.2261,-5.5652,-4.5217
2025,2.7207,2.4908,9.5801,4.7304,-2.2957,-5.2174
2030,2.7974,2.5291,10.4231,6.0522,0.7652,-6.3304
2035,3.1806,2.5291,11.7643,6.3304,3.4783,-7.0957
2040,3.1423,2.7207,12.3008,6.4696,5.6348,-8.2783
2045,3.2572,2.7974,12.9906,4.313,7.6522,-9.0435
2050,3.1423,2.9123,12.9523,-0.9043,8.4174,-9.1826
2055,3.2189,2.874,12.9523,-8.3478,7.7913,-8.8348
2060,2.874,2.6441,12.7223,-16.6957,6.0522,-7.9304
2065,2.5291,2.1076,12.2242,-23.5826,3.4783,-6.5391
2070,2.2609,1.5328,11.6494,-28.313,0.9739,-4.9391
2075,2.031,0.9197,11.0746,-30.5391,-0.6957,-3.0609
2080,1.8011,0.1916,10.2698,-30.5391,-1.3217,-1.113
2085,1.4945,-0.1533,9.7717,-28.8696,-0.6261,0.6261
2090,1.3795,-0.6898,9.3885,-25.8783,1.3217,2.1565
2095,1.0346,-0.8047,9.2735,-21.9826,4.5217,3.2
2100,0.9963,-0.7664,9.3885,-17.6696,8.4174,3.8957
2105,0.9197,-0.8047,9.7334,-13.5652,12.3826,4.3826
2110,0.7281,-0.5365,10.0782,-9.9478,15.7913,4.8
2115,0.9197,-0.1533,10.1932,-7.0957,18.5043,4.6609
2120,0.8814,0.0,10.3465,-5.913,20.313,4.5217
2125,0.843,0.4215,10.5381,-6.5391,21.6348,4.4522
2130,0.843,0.7664,10.1549,-8.487,22.0522,4.5913
2135,0.843,1.1879,10.0399,-11.4087,21.7043,4.3826
2140,0.7281,1.1879,9.925,-14.3304,20.6609,4.5217
2145,0.6131,1.3412,9.7334,-17.1826,19.3391,4.9391
2150,0.6514,1.1496,9.6184,-19.687,17.8087,5.1478
2155,0.5365,0.9963,9.6567,-21.8435,16.3478,5.4261
2160,0.4215,0.6898,9.4268,-23.3739,15.1652,5.4261
2165,0.2682,0.3449,9.3885,-24.6957,14.4696,5.3565
2170,0.0,0.115,9.4268,-25.6696,13.913,5.287
2175,-0.0766,-0.1533,9.0436,-26.2261,13.7739,5.1478
2180,-0.3066,-0.4215,9.0819,-26.3652,13.7739,4.9391
2185,-0.3832,-0.6898,9.1202,-25.7391,13.6348,4.3826
2190,-0.6514,-0.958,9.1969,-24.2783,13.3565,3.9652
2195,-0.5365,-1.0346,9.2352,-22.1913,13.1478,3.8261
2200,0.0383,-1.4562,8.9286,-20.1739,14.2609,4.2435
2205,0.4598,-2.1076,9.3118,-17.1826,18.4348,4.6609
2210,0.2299,-2.5291,10.1549,-12.8696,25.7391,3.9652
2215,0.1533,-2.1459,11.3428,-8.4174,34.0174,2.9913
2220,0.0766,-1.2263,11.2279,-5.287,35.2,2.9217
2225,-0.2682,0.3832,10.9979,-6.6087,29.287,4.2435
2230,-0.5748,1.6861,9.7717,-12.8,18.3652,6.4696
2235,-1.3412,2.5291,8.5071,-18.4348,8.5565,8.1391
2240,-1.8394,2.4525,7.8173,-23.9304,2.2261,9.4609
2245,-2.4142,2.1843,7.5874,-27.9652,-0.6261,9.6696
2250,-2.4525,1.5328,7.9323,-29.287,-1.113,9.3217
2255,-1.9543,0.5748,8.6987,-28.5217,-0.7652,8.5565
2260,-0.843,-0.6898,9.3885,-26.713,-0.2783,7.3043
2265,-0.0383,-1.5328,9.7717,-24.9739,0.0696,4.9391
2270,0.843,-2.2992,9.7717,-22.8174,0.4174,1.8783
2275,1.6478,-2.8357,9.4651,-19.7565,1.8783,-1.5304
2280,2.1843,-3.1806,9.0436,-15.7217,4.4522,-4.4522
2285,1.916,-2.9507,8.967,-11.1304,7.7913,-6.1913
2290,1.916,-2.6058,8.9286,-7.0957,11.2696,-6.6087
2295,1.7244,-1.916,9.0053,-4.6609,14.5391,-6.1913
2300,1.3412,-1.2646,9.4268,-3.1304,16.6261,-4.9391
2305,1.2263,-0.6131,9.695,-2.2957,17.4609,-3.1304
2310,1.2263,-0.2299,9.81,-1.7391,17.7391,-0.6957
2315,0.9963,-0.1533,9.8866,-1.3217,18.087,1.6
2320,0.6898,0.115,9.925,-0.8348,18.9217,4.1043
2325,0.3066,0.115,9.8866,-0.487,19.8957,6.2609
2330,-0.0383,0.2682,9.8866,-0.9739,20.9391,7.8609
2335,-0.0766,0.4215,9.925,-2.087,21.9826,8.9739
2340,-0.4598,0.6514,9.7717,-4.2435,23.1652,9.8783
2345,-0.5748,0.6514,9.5801,-7.513,24.4174,10.7826
2350,-0.6898,0.6514,9.5418,-11.1304,25.6,10.9913
2355,-0.6131,0.4598,9.3502,-14.4696,26.9913,10.8522
2360,-0.7664,0.4982,9.2735,-17.0435,28.1043,10.5739
2365,-0.3832,0.1916,9.2735,-18.2957,28.8696,10.0174
2370,-0.0383,-0.0766,9.3885,-18.6435,28.7304,9.3913
2375,-0.3066,-0.3066,9.81,-18.9913,27.4087,8.6957
2380,-0.3066,-0.5365,9.9633,-19.2696,24.5565,8.3478
2385,-0.4598,-0.6131,9.8866,-19.6174,21.2174,8.1391
2390,-0.5748,-0.6131,9.4651,-19.9652,17.9478,7.7217
2395,-0.4215,-0.8047,9.2352,-20.313,15.4435,7.1652
2400,-0.3832,-0.8047,9.3118,-19.8957,14.1217,6.6783
2405,-0.3066,-0.6131,9.3502,-19.0609,14.1217,6.0522
2410,0.0383,-0.6514,9.1586,-17.8087,15.0957,5.3565
2415,0.1533,-0.4982,9.5034,-16.3478,17.113,4.3826
2420,0.0766,-0.5365,9.8483,-15.0957,18.9913,2.9913
2425,0.2682,-0.8047,9.9633,-14.4,20.5217,2.1565
2430,0.1533,-0.7281,10.3848,-13.4261,21.913,1.5304
2435,0.1916,-0.8814,10.5764,-13.0783,22.9565,1.9478
2440,0.2299,-0.9197,10.5381,-13.287,23.7217,2.9217
2445,0.3066,-0.958,10.5381,-13.5652,24.3478,3.3391
2450,0.115,-0.9963,10.1549,-13.0783,24.5565,3.687
2455,-0.3832,-0.7664,10.4231,-12.2435,24.6957,3.5478
2460,-0.1533,-0.4982,10.0782,-12.0348,24.7652,3.687
2465,-0.3449,-0.5748,9.9633,-12.313,24.7652,3.687
2470,-0.3832,-0.1916,10.0016,-12.313,24.7652,3.3391
2475,-0.6131,-0.3832,9.925,-12.9391,24.7652,2.7826
2480,-0.958,-0.1533,9.8866,-13.0783,23.0957,2.087
2485,-0.7664,-0.6898,10.0016,-14.4,20.1043,2.087
2490,-0.8814,-0.9963,9.81,-14.887,17.113,1.2522
2495,-0.9197,-1.4562,9.8866,-13.3565,14.6087,-0.9739
2500,-1.3412,-1.2263,9.3502,-10.4348,12.313,-3.5478
2505,-1.3412,-1.3795,9.5418,-8.1391,9.6696,-5.4261
2510,-1.5711,-1.3795,9.4651,-6.887,6.4,-6.5391
2515,-1.4562,-1.2263,9.1586,-6.1913,2.5043,-7.0957
2520,-1.5328,-1.1496,9.3118,-5.8435,-1.1826,-7.3043
2525,-1.5711,-1.0346,9.1586,-4.0348,-3.8957,-8.2087
2530,-1.4562,-1.1879,9.0053,-0.9739,-5.8435,-8.6261
2535,-1.6095,-0.9963,8.967,1.7391,-7.513,-8.4174
2540,-1.3795,-1.0346,9.1969,3.8957,-9.8783,-8.2783
2545,-1.4562,-0.9963,9.2352,5.7043,-13.2174,-8.9043
2550,-2.031,-1.3412,9.6184,7.3739,-18.713,-9.8783
2555,-2.7591,-1.4562,9.81,8.9043,-25.6696,-9.7391
2560,-3.3339,-1.0346,9.4268,9.6,-32.7652,-7.2348
2565,-3.6404,-0.2299,8.5454,8.6957,-36.5913,-1.3217
2570,-3.0273,0.1916,7.8173,5.1478,-35.5478,4.8696
2575,-2.1843,0.843,6.7827,1.113,-31.1652,7.7217
2580,-1.6095,0.843,6.3229,-3.2,-26.5043,8.8348
2585,-0.0383,0.6898,5.9396,-10.1565,-23.7913,9.8087
2590,1.0346,-0.115,6.0929,-16.7652,-22.9565,9.8783
2595,1.8011,-1.8011,7.0509,-21.287,-22.887,8.0696
2600,1.6095,-2.7974,8.0473,-22.1913,-22.2609,5.7043
2605,1.2646,-4.8667,9.3118,-19.687,-20.8,1.8783
2610,-0.0383,-5.6714,9.81,-11.6174,-17.6,-3.5478
2615,-0.7281,-5.7097,9.8483,-1.6,-14.8174,-6.1913
2620,-1.4562,-5.3648,9.8483,7.4435,-14.3304,-7.5826
2625,-1.6861,-4.8284,9.7334,14.6783,-16.4174,-9.0435
2630,-1.9927,-4.0236,9.2735,21.4957,-18.713,-8.0
2635,-2.2609,-3.1423,8.8137,26.9913,-20.1739,-5.7043
2640,-2.0693,-2.4142,8.6221,30.9565,-20.8,-3.4783
2645,-1.8777,-1.7244,8.5071,33.2522,-20.5913,-2.6435
2650,-1.6095,-1.1113,8.737,34.0174,-19.5478,-2.7826
2655,-1.2263,-0.5748,8.852,33.113,-18.9217,-4.0348
2660,-0.958,-0.4982,9.1586,30.4696,-18.713,-5.3565
2665,-0.8814,-0.4982,9.4268,26.8522,-19.1304,-6.887
2670,-0.3832,-0.5748,9.7717,23.0957,-20.0348,-8.6957
2675,0.0383,-0.6898,9.695,19.4783,-20.8,-10.0174
2680,0.0,-0.9197,9.7717,15.9304,-20.5217,-10.8522
2685,0.115,-1.4179,9.7717,13.0087,-20.0348,-10.9913
2690,0.115,-1.8394,9.7717,10.2261,-18.5739,-10.7826
2695,0.0383,-1.8011,9.6567,7.6522,-16.5565,-10.0174
2700,0.0,-1.8011,9.5801,5.5652,-14.5391,-9.1826
2705,-0.0383,-1.8011,9.5034,3.8957,-12.7304,-8.0
2710,-0.2682,-1.6478,9.3118,2.9217,-11.2696,-6.6783
2715,-0.3066,-1.3795,9.6184,2.5739,-9.9478,-5.287
2720,-0.6131,-1.2646,9.3118,2.713,-8.9739,-4.1739
2725,-0.5748,-1.073,9.4651,3.1304,-8.5565,-3.2
2730,-0.6514,-0.958,9.4268,3.5478,-8.2783,-2.2957
2735,-0.5365,-0.7281,9.3502,3.7565,-8.2783,-1.5304
2740,-0.7664,-0.7664,9.3118,3.4783,-9.2522,0.0
2745,-0.1916,-0.7664,9.5801,1.1826,-11.2,1.4609
2750,0.0,-0.9963,9.5418,0.6261,-11.8261,0.7652
2755,0.1916,-0.9963,9.5418,0.9739,-11.3391,-0.4174
2760,0.2682,-0.8814,9.5034,1.2522,-10.5739,-1.5304
2765,0.3832,-1.073,9.3885,1.1826,-9.6,-2.2957
2770,0.6514,-1.073,9.5418,1.3217,-8.9739,-2.8522
2775,0.8047,-1.073,9.7334,2.0174,-8.0,-4.1043
2780,1.073,-0.9197,9.7334,3.0609,-6.9565,-5.2174
2785,1.1113,-0.7664,9.7717,3.8957,-6.0522,-6.2609
2790,1.1496,-0.6131,9.8866,4.3826,-5.8435,-7.1652
2795,1.2263,-0.4982,9.9633,4.5913,-5.7043,-7.9304
2800,1.0346,-0.3066,9.9633,4.3826,-5.7043,-8.487
2805,1.0346,-0.3832,9.8483,3.9652,-6.0522,-8.2087
2810,0.9197,-0.0766,9.7717,3.5478,-6.2609,-8.0
2815,0.958,-0.0383,10.0016,2.7826,-6.4,-7.4435
2820,0.7664,-0.0383,9.8866,2.087,-6.7478,-6.7478
2825,0.958,-0.0383,9.8866,1.2522,-7.2348,-5.8435
2830,0.6514,-0.1533,9.925,0.6261,-7.7913,-5.287
2835,0.6898,-0.0383,9.8483,0.2087,-7.9304,-4.3826
2840,0.7281,0.0766,9.6567,0.1391,-8.0,-3.5478
2845,0.6131,0.115,9.695,0.3478,-7.8609,-2.5739
2850,0.843,0.0,9.6567,0.6261,-7.4435,-1.7391
2855,0.843,0.115,9.5801,0.9739,-6.9565,-1.1826
2860,0.843,0.0766,9.695,1.6,-5.7043,-0.4174
2865,0.843,0.0,9.6184,2.3652,-4.5217,0.2087
2870,0.8814,-0.0383,9.695,3.0609,-3.4087,0.5565
2875,0.7664,-0.115,9.7334,3.6174,-2.713,1.0435
2880,0.8047,-0.1916,9.81,4.1043,-2.087,1.3217
2885,0.6514,-0.1533,9.9633,4.7304,-1.6696,1.3913
2890,0.5748,-0.1533,9.7717,5.0087,-1.7391,1.3217
2895,0.6131,-0.3066,9.8866,5.0783,-1.6696,1.3217
2900,0.5365,-0.4215,10.0016,4.9391,-1.8087,1.1826
2905,0.5748,-0.5748,9.81,4.8696,-1.9478,1.0435
2910,0.4215,-0.6131,9.925,4.9391,-2.0174,0.6261
2915,0.3066,-0.5748,9.9633,5.0087,-2.2261,0.487
2920,0.3066,-0.5748,9.9633,5.0783,-2.4348,0.2783
2925,0.3832,-0.6514,9.8866,5.2174,-2.3652,0.0696
2930,0.4215,-0.7281,10.0399,5.287,-2.1565,-0.1391
2935,0.5748,-0.7281,9.7334,5.0783,-1.8783,-0.3478
2940,0.4598,-0.7281,9.81,4.8,-1.4609,-0.6957
2945,0.5365,-0.6898,9.81,4.4522,-1.1826,-0.6957
2950,0.5365,-0.6131,9.8483,4.0348,-0.7652,-0.7652
2955,0.6514,-0.7664,9.7717,3.5478,-0.3478,-0.9739
2960,0.6131,-0.6898,9.81,2.9217,0.4174,-0.9739
2965,0.6898,-0.8047,9.81,2.3652,1.0435,-1.113
2970,0.5748,-0.9197,9.7334,2.2261,1.8087,-1.2522
2975,0.6898,-1.0346,9.6567,2.2261,2.6435,-1.113
2980,0.6898,-0.9197,9.695,2.4348,3.4087,-1.0435
2985,0.5748,-0.9197,9.5801,2.7826,4.2435,-1.1826
2990,0.4982,-0.8814,9.3502,3.0609,4.8696,-1.113
2995,0.4598,-0.8814,9.4651,3.5478,5.287,-1.3217
