timestamp,accX,accY,accZ,gyroX,gyroY,gyroZ
0,0.6898,-10.1166,0.4598,-2.9217,4.8696,-0.5565
5,0.8047,-10.3082,0.3832,-2.9217,5.1478,-0.6261
10,0.6514,-10.1932,0.4982,-2.9217,5.287,-0.6261
15,0.7664,-10.1932,0.2299,-2.8522,5.6348,-0.7652
20,0.843,-10.2698,0.3449,-2.7826,5.9826,-0.6957
25,0.7281,-10.1932,0.1916,-2.9217,6.2609,-0.9043
30,0.8814,-10.2315,0.2299,-3.0609,6.4696,-0.8348
35,0.7281,-10.2315,0.4215,-3.3391,6.6783,-1.0435
40,0.8047,-10.2315,0.4215,-3.7565,7.0957,-1.0435
45,0.7664,-10.1549,0.3832,-3.9652,7.4435,-1.0435
50,0.7664,-10.3848,0.3066,-4.2435,7.6522,-0.9739
55,0.8814,-10.3465,0.2299,-4.3826,8.0,-1.113
60,0.5748,-10.8063,-0.4215,-4.5913,8.2087,-0.9739
65,0.7281,-10.1166,0.3066,-4.8,8.487,-1.0435
70,0.7664,-10.1932,0.4598,-4.9391,8.5565,-0.9043
75,0.7281,-10.2698,0.2682,-5.0087,8.7652,-1.113
80,0.6898,-10.1932,0.3449,-5.287,8.7652,-0.9739
85,0.5748,-10.1549,0.2299,-5.3565,8.8348,-1.113
90,0.6898,-10.1166,0.2299,-5.5652,8.9043,-1.113
95,0.6514,-10.1166,0.2682,-5.7043,9.0435,-1.2522
100,0.6514,-10.2315,0.3066,-5.7043,9.0435,-1.0435
105,0.6131,-10.1549,0.3449,-5.8435,9.0435,-1.3217
110,0.5748,-10.1549,0.2299,-6.1217,9.113,-1.3217
115,0.4598,-10.1549,0.4215,-6.1913,9.113,-1.2522
120,0.4598,-10.1549,0.3066,-6.3304,9.113,-1.1826
125,0.4982,-10.3465,0.3066,-6.4696,8.9043,-1.1826
130,0.6514,-10.3082,0.2682,-6.7478,8.7652,-1.113
135,0.4598,-10.1549,0.2299,-6.9565,8.6957,-1.1826
140,0.6514,-10.1549,0.4215,-7.1652,8.487,-1.0435
145,0.4982,-10.2315,0.2682,-7.3043,8.4174,-1.1826
150,0.5365,-10.1932,0.4215,-7.3043,8.0696,-0.9043
155,0.4215,-10.2315,0.1916,-7.4435,7.7217,-0.9739
160,0.4598,-10.2315,0.5365,-7.6522,7.4435,-0.9043
165,0.3832,-10.2315,0.3066,-7.7217,7.0957,-0.9739
170,0.4598,-10.2315,0.4598,-7.7217,6.6783,-0.7652
175,0.4215,-10.1932,0.3066,-7.6522,6.4696,-0.8348
180,0.3066,-10.2315,0.4215,-7.6522,5.9826,-0.7652
185,0.3832,-10.3465,0.3832,-7.6522,5.6348,-0.7652
190,0.4598,-10.2698,0.2682,-7.513,5.287,-0.6957
195,0.4215,-10.2315,0.3066,-7.3739,4.8696,-0.6957
200,0.4215,-10.1549,0.3449,-7.4435,4.6609,-0.6261
205,0.4982,-10.2315,0.2682,-7.513,4.3826,-0.7652
210,0.4215,-10.1932,0.1916,-7.7217,4.1739,-0.6261
215,0.5748,-10.3082,0.1533,-7.8609,3.9652,-0.7652
220,0.5365,-10.2315,0.3066,-7.9304,3.7565,-0.6957
225,0.5748,-10.1932,0.3449,-7.9304,3.6174,-0.7652
230,0.6514,-10.1932,0.1533,-7.9304,3.4087,-0.8348
235,0.5748,-10.3082,0.1916,-7.8609,3.3391,-0.9043
240,0.5365,-10.1549,0.2299,-7.8609,3.2696,-1.0435
245,0.6898,-10.2698,0.3066,-7.7913,3.0609,-1.113
250,0.6131,-10.1932,0.2299,-7.7913,3.0609,-0.9739
255,0.6131,-10.2698,0.3449,-7.7217,2.9217,-1.113
260,0.7281,-10.2698,0.1916,-7.6522,2.9217,-1.0435
265,0.6898,-10.2698,0.3066,-7.6522,2.9217,-1.113
270,0.8047,-10.3465,0.1916,-7.6522,3.2,-1.113
275,0.6514,-10.2698,0.2299,-7.6522,3.1304,-1.1826
280,0.8814,-10.2315,0.2299,-7.7217,3.2,-1.1826
285,0.6131,-10.1932,0.1916,-7.7913,3.3391,-1.2522
290,0.7281,-10.1932,0.1916,-7.8609,3.4783,-1.2522
295,0.6898,-10.2315,0.1916,-8.0,3.4783,-1.3217
300,0.7664,-10.2698,0.3449,-8.1391,3.4087,-1.3217
305,0.7281,-10.2315,0.1916,-8.2087,3.4783,-1.3913
310,0.7664,-10.1932,0.1916,-8.2087,3.687,-1.2522
315,0.6514,-10.2315,0.2682,-8.3478,3.6174,-1.3217
320,0.6131,-10.2315,0.2682,-8.4174,3.7565,-1.3217
325,0.6514,-10.2698,0.2299,-8.4174,3.8957,-1.3913
330,0.6898,-10.2698,0.3066,-8.3478,3.8957,-1.2522
335,0.6898,-10.1549,0.1533,-8.4174,4.0348,-1.3217
340,0.6898,-10.1166,0.0383,-8.5565,4.1043,-1.113
345,0.6898,-10.1932,0.0383,-8.6261,3.9652,-1.2522
350,0.6514,-10.1932,0.0766,-8.7652,4.1043,-1.1826
355,0.6131,-10.2315,0.0766,-8.9043,4.0348,-1.2522
360,0.5748,-10.1932,0.0383,-9.1826,3.9652,-1.2522
365,0.6131,-10.1932,0.2299,-9.3913,4.1043,-1.2522
370,0.6898,-10.2315,0.1533,-9.4609,4.1043,-1.3217
375,0.5748,-10.2315,0.1533,-9.7391,4.313,-1.4609
380,0.7281,-10.4231,0.115,-9.8783,4.3826,-1.3913
385,0.6898,-10.2698,0.0383,-10.0174,4.5217,-1.6
390,0.6898,-10.3465,0.0766,-10.1565,4.6609,-1.6
395,0.8814,-10.2698,0.0383,-10.2261,4.8696,-1.6696
400,0.7664,-10.2315,0.0383,-10.2957,5.2174,-1.6
405,0.8814,-10.2698,0.0383,-10.2957,5.4261,-1.6696
410,0.8814,-10.2698,0.0,-10.1565,5.7739,-1.7391
415,0.9197,-10.1549,-0.0383,-10.087,6.0522,-1.8087
420,0.9197,-10.1166,-0.0766,-9.9478,6.4696,-1.9478
425,1.0346,-10.0399,0.0,-9.8087,6.887,-2.087
430,0.9197,-10.1166,-0.0383,-9.6,7.3739,-2.1565
435,0.843,-10.0016,0.0766,-9.4609,7.7913,-2.4348
440,0.8814,-9.9633,0.0766,-9.1826,8.1391,-2.5043
445,0.958,-10.0016,0.2299,-9.113,8.4174,-2.713
450,0.843,-9.925,0.0766,-9.0435,8.5565,-2.713
455,0.958,-9.9633,0.0,-9.3913,8.9043,-2.9217
460,0.8814,-9.7334,0.0,-9.7391,9.2522,-2.9913
465,0.9197,-9.925,-0.0383,-10.0174,9.6,-3.1304
470,0.8814,-9.8866,0.0766,-10.087,10.0174,-3.2
475,0.9197,-9.9633,0.0766,-9.9478,10.4348,-3.2696
480,0.843,-10.1549,0.2682,-9.6,10.8522,-3.4087
485,0.8814,-10.0782,0.2299,-9.1826,11.2696,-3.4783
490,0.9197,-10.1166,0.3449,-8.6261,11.7565,-3.6174
495,0.7664,-10.0782,0.2682,-7.8609,12.2435,-3.687
500,0.6514,-10.0782,0.3449,-7.3043,12.8,-3.4087
505,0.6898,-10.2315,0.5748,-6.5391,13.3565,-3.3391
510,0.6514,-9.9633,0.3449,-5.8435,13.6348,-3.2696
515,0.8047,-9.9633,0.4598,-5.4957,13.913,-3.1304
520,0.6514,-9.925,0.3066,-5.1478,14.2609,-2.9913
525,0.6131,-9.8866,0.3832,-4.7304,14.6783,-2.9217
530,0.5748,-10.0399,0.5365,-4.0348,14.8174,-2.8522
535,0.5748,-9.9633,0.4215,-3.6174,15.0261,-2.9217
540,0.5365,-10.0782,0.4215,-2.9217,15.0261,-2.8522
545,0.4982,-10.0782,0.4215,-2.1565,15.0261,-2.8522
550,0.4982,-10.0399,0.4982,-1.4609,14.9565,-2.7826
555,0.3066,-10.0016,0.4982,-0.6957,14.8174,-2.6435
560,0.4215,-9.9633,0.4215,-0.1391,14.6783,-2.5043
565,0.4598,-10.0016,0.4982,0.4174,14.7478,-2.5043
570,0.4598,-10.0782,0.3832,0.8348,14.6087,-2.3652
575,0.4982,-10.0782,0.4215,1.113,14.5391,-2.4348
580,0.4982,-10.1166,0.4598,1.3913,14.5391,-2.2957
585,0.4215,-10.0782,0.5748,1.6696,14.5391,-2.3652
590,0.4982,-10.0782,0.6514,2.2261,14.5391,-2.2261
595,0.5365,-10.3082,0.5365,2.713,14.4696,-2.1565
600,0.5748,-10.2315,0.5748,3.0609,14.3304,-1.9478
605,0.6514,-10.2698,0.6898,3.6174,14.1217,-1.8087
610,0.8047,-10.3082,0.6131,3.9652,13.9826,-1.5304
615,0.5748,-10.1549,0.8814,4.4522,13.8435,-1.1826
620,0.5365,-10.2315,0.8047,4.8696,13.913,-0.9739
625,0.6131,-10.1549,0.8047,5.2174,13.913,-0.6957
630,0.5365,-10.1932,0.6898,5.4261,13.913,-0.6261
635,0.6514,-10.0016,0.3449,5.5652,13.8435,-0.5565
640,0.6514,-10.0016,0.6131,5.6348,13.9826,-0.3478
645,0.6131,-9.925,0.3449,5.4957,13.8435,-0.3478
650,0.5748,-9.8483,0.3832,5.2174,13.5652,-0.3478
655,0.5748,-9.925,0.2682,4.8696,13.4957,-0.487
660,0.3449,-9.8866,0.3066,4.4522,13.2174,-0.487
665,0.4598,-9.8866,0.3449,4.2435,13.0087,-0.487
670,0.4598,-9.8483,0.3066,3.9652,12.7304,-0.487
675,0.4982,-9.81,0.3832,3.7565,12.5217,-0.487
680,0.4215,-9.8483,0.3449,3.2696,12.313,-0.5565
685,0.5365,-9.695,0.115,2.5739,11.9652,-0.9043
690,0.3832,-9.695,0.1916,1.6,11.6174,-1.1826
695,0.3449,-9.6184,0.1533,0.8348,11.2,-1.6
700,0.4598,-9.7717,0.1916,0.2783,10.9913,-1.7391
705,0.3832,-9.5801,0.115,0.0696,10.9217,-1.8783
710,0.4215,-9.5034,0.0766,-0.2783,10.8522,-1.9478
715,0.4598,-9.4268,0.0,-0.6957,10.7826,-1.9478
720,0.4982,-9.3502,-0.0383,-1.0435,10.6435,-2.087
725,0.5748,-9.1202,-0.1916,-1.6,10.3652,-2.2957
730,0.4982,-9.0053,-0.1916,-2.2957,10.3652,-2.5043
735,0.5748,-9.0436,-0.3066,-3.1304,10.5739,-3.0609
740,0.6514,-9.0053,-0.3832,-3.8261,10.9217,-3.4783
745,0.7281,-8.8137,-0.3832,-4.5913,11.2,-3.7565
750,0.843,-8.7754,-0.3449,-5.3565,11.8957,-4.1043
755,0.8814,-8.6604,-0.3449,-6.0522,12.4522,-4.5217
760,1.073,-8.4688,-0.3066,-6.8174,13.5652,-5.0783
765,0.958,-8.3155,-0.115,-7.1652,14.4696,-5.7739
770,1.2646,-8.2772,0.0383,-7.0261,15.6522,-6.4
775,1.1879,-8.2389,0.2682,-6.4696,17.0435,-6.9565
780,1.3795,-8.1622,0.3832,-5.913,18.713,-7.4435
785,1.3029,-8.0089,0.3449,-5.2174,20.8,-7.8609
790,1.2263,-7.894,0.0766,-4.8696,23.4435,-8.2783
795,1.2263,-7.6641,0.115,-4.5217,26.0174,-8.5565
800,1.1879,-7.5491,0.3066,-3.6174,28.8696,-8.7652
805,1.073,-7.7024,0.6898,-2.1565,31.6522,-8.8348
810,0.958,-7.6257,1.0346,-0.2783,34.5043,-8.8348
815,0.8047,-7.7407,1.5711,1.9478,36.8,-8.7652
820,0.843,-7.8173,1.8011,3.8957,38.1217,-9.1826
825,1.0346,-7.8173,2.1459,5.7043,38.8174,-9.8783
830,0.958,-7.894,2.5675,7.3739,39.4435,-10.9913
835,0.7664,-7.9323,2.9123,8.9739,39.513,-12.3826
840,0.6131,-8.0856,2.874,10.2957,39.1652,-14.1217
845,0.4598,-7.9323,2.8357,10.9217,38.9565,-15.5826
850,0.115,-8.0473,2.7974,11.687,39.0261,-16.9739
855,0.0383,-7.9323,2.7591,12.6609,39.0261,-17.7391
860,-0.0766,-7.9323,2.4908,13.6348,38.9565,-18.1565
865,-0.2682,-8.0856,1.9927,14.4,39.0261,-17.9478
870,-0.3449,-8.1239,1.916,15.1652,39.3739,-17.1826
875,-0.1916,-8.2005,1.916,16.6957,40.0,-16.1391
880,-0.3066,-8.3921,1.8394,18.7826,40.8348,-14.4696
885,-0.0766,-8.4688,2.1459,21.0087,41.8087,-12.8
890,-0.0766,-8.4305,2.031,22.1913,42.087,-11.3391
895,-0.0383,-8.5838,2.1076,22.9565,41.7391,-9.8783
900,0.0383,-8.6987,2.031,23.4435,40.9739,-8.8348
905,0.0,-8.852,2.2992,24.2783,40.5565,-7.7217
910,0.0383,-8.8903,2.4525,25.1826,40.2783,-7.0261
915,-0.0766,-9.0053,2.5291,26.1565,40.2087,-6.3304
920,-0.1916,-8.967,2.1459,27.1304,39.7913,-5.287
925,-0.0383,-8.967,1.916,28.313,39.3043,-3.7565
930,-0.1533,-8.9286,1.916,30.4,39.3739,-2.2957
935,-0.0766,-8.7754,2.2609,33.0435,39.7217,-1.3217
940,-0.0383,-8.4305,2.3759,36.0348,40.4174,-0.487
945,0.0766,-8.2389,2.4908,38.1217,40.9739,0.0
950,0.0766,-8.1239,2.4525,39.0957,40.9739,0.0696
955,-0.0383,-8.1239,2.1076,38.8174,40.487,0.2087
960,-0.115,-8.1239,1.8011,37.7043,39.513,0.0696
965,-0.1533,-8.0473,1.8011,35.8957,38.7478,-0.2783
970,-0.1533,-8.0089,1.4179,34.087,38.6783,-0.6261
975,-0.2299,-7.894,1.4562,33.8087,40.4174,-1.2522
980,0.0383,-7.6257,1.4179,34.5739,43.6174,-2.2261
985,-0.0383,-7.0126,1.2263,34.9217,47.5826,-4.1739
990,0.0766,-6.6294,1.1879,34.713,51.2696,-6.1217
995,0.3449,-6.4378,0.6898,32.5565,53.913,-6.7478
1000,0.4215,-6.2462,0.4598,28.3826,55.3739,-8.2783
1005,0.6898,-6.1696,0.3832,24.5565,56.6261,-9.6
1010,0.6131,-5.9396,0.5748,21.9826,58.2957,-10.3652
1015,0.5365,-5.748,0.5748,19.2696,61.0783,-11.4783
1020,0.8814,-5.5564,0.1916,16.0,64.3478,-13.0087
1025,1.1113,-5.4032,-0.0766,10.2957,67.3391,-15.1652
1030,1.4562,-5.02,-0.4215,4.8696,71.8609,-17.9478
1035,1.4179,-5.0966,-0.6131,0.2783,77.7043,-20.1739
1040,1.5328,-4.9433,-0.4598,-3.4783,84.0348,-22.4696
1045,1.6861,-4.5601,-0.8814,-6.7478,89.1826,-24.0
1050,1.6478,-4.5601,-0.7664,-9.9478,94.4696,-25.1826
1055,1.7627,-4.2919,-0.8814,-13.4957,99.687,-25.8783
1060,1.7627,-4.4835,-1.3029,-17.3217,104.2087,-26.3652
1065,1.8777,-4.3685,-1.5328,-21.0087,108.8,-27.5478
1070,1.4562,-4.4068,-1.7627,-25.0435,114.2957,-28.0348
1075,1.3412,-4.5218,-1.6095,-27.8261,119.3739,-28.5217
1080,1.1113,-4.3685,-1.7244,-30.0522,123.8957,-29.4957
1085,1.0346,-4.3302,-1.6095,-32.8348,127.3739,-30.5391
1090,0.8047,-4.2536,-1.8394,-37.4261,128.8348,-32.9043
1095,0.4982,-4.2152,-1.916,-42.8522,128.9043,-34.9217
1100,-0.115,-4.4452,-1.3795,-48.5565,128.0,-37.1478
1105,-0.115,-4.905,-1.8777,-53.287,126.1913,-38.4696
1110,-0.115,-5.5948,-2.2992,-60.5217,126.3304,-43.9652
1115,-0.4215,-6.3612,-2.2609,-71.9304,128.6261,-50.4348
1120,-0.1916,-7.1276,-2.6058,-78.4696,128.9043,-55.7913
1125,-0.3832,-6.9743,-2.6441,-81.7391,129.3217,-61.4957
1130,-0.0383,-7.2425,-3.0273,-82.2957,128.6957,-66.6435
1135,-0.2682,-7.7407,-2.2226,-81.8087,127.3739,-70.4696
1140,0.3832,-7.8557,-2.4142,-80.8348,125.4261,-73.113
1145,-0.3066,-8.2389,-2.6824,-83.4087,127.2348,-77.3565
1150,-0.5748,-8.6604,-2.2226,-92.1043,129.3913,-79.9304
1155,-1.1496,-9.7334,-2.4142,-100.3826,130.0174,-81.5304
1160,-1.0346,-10.9596,-2.4142,-109.9826,130.1565,-82.2957
1165,-0.7664,-11.2662,-3.3722,-113.8783,127.3043,-83.687
1170,-0.9963,-11.5727,-5.2882,-120.9043,128.4174,-88.0
1175,-1.6861,-12.3775,-4.9816,-131.8261,132.6609,-90.8522
1180,-2.3759,-13.3738,-5.0583,-137.1826,133.913,-90.4348
1185,-2.4908,-14.4084,-6.0546,-137.6,129.8783,-89.4609
1190,-2.3759,-15.3281,-7.0509,-140.313,126.4696,-91.2696
1195,-3.0273,-15.5964,-8.1239,-147.2,127.6522,-94.6087
1200,-3.5255,-16.5161,-8.9286,-154.3652,131.2,-97.1826
1205,-4.3685,-16.2478,-9.5418,-160.6261,132.3826,-99.2696
1210,-4.062,-17.9722,-11.726,-168.7652,133.287,-101.6348
1215,-3.5255,-19.3901,-13.0289,-187.687,134.887,-103.3739
1220,-2.7591,-20.5397,-14.9449,-205.5652,136.7652,-106.2261
1225,-0.3449,-25.8279,-10.3848,-221.6348,141.4957,-112.3478
1230,-0.843,-25.4447,-16.3628,-216.5565,149.287,-118.7478
1235,0.6898,-26.7859,-15.5197,-199.0261,151.4435,-126.1913
1240,2.3759,-26.556,-14.6384,-183.0957,150.3304,-134.2609
1245,4.6751,-25.1764,-13.1439,-173.6348,150.3304,-142.1217
1250,4.2536,-23.452,-9.9633,-162.713,155.4783,-148.5913
1255,3.7937,-20.2331,-6.5911,-143.7217,165.913,-148.1739
1260,3.2572,-16.0562,-3.9087,-128.9043,170.2957,-142.4696
1265,3.0656,-12.1092,-2.1459,-123.9652,169.7391,-136.4174
1270,3.1039,-8.2005,-1.7627,-127.5826,166.8174,-130.2261
1275,2.989,-5.7097,-2.3759,-136.4174,163.9652,-123.8957
1280,3.1039,-3.7554,-3.5638,-149.9826,163.2696,-119.2348
1285,2.7974,-2.989,-4.3685,-165.2174,165.913,-116.3826
1290,2.2992,-2.4525,-4.5984,-179.6174,172.9391,-115.4087
1295,2.5675,-2.989,-3.947,-195.5478,180.5913,-116.0348
1300,2.4525,-3.832,-2.874,-213.1478,187.9652,-118.6783
1305,2.2609,-5.0583,-1.1113,-225.2522,192.2783,-120.8348
1310,2.4525,-5.978,0.958,-233.1826,194.6435,-121.4609
1315,2.9123,-5.8247,3.3339,-232.8348,196.0348,-122.0174
1320,2.7591,-8.2005,4.9433,-222.5391,196.3826,-121.8087
1325,3.2955,-9.4651,5.748,-212.7304,192.9043,-116.8
1330,3.5638,-10.4998,5.4032,-200.8348,187.7565,-113.6
1335,4.1769,-10.1549,5.863,-188.4522,182.1217,-112.6261
1340,3.4488,-10.9213,5.0583,-172.0348,178.2957,-118.7478
1345,3.3339,-11.6494,4.8284,-155.687,174.9565,-127.3739
1350,2.2992,-10.8063,4.5601,-136.487,171.687,-133.2174
1355,1.8011,-11.1129,4.1386,-118.4,167.3739,-138.9913
1360,1.9543,-10.6914,3.6787,-103.5826,162.5043,-145.6696
1365,1.1113,-9.8483,3.2955,-89.113,159.1652,-153.113
1370,0.0383,-7.5108,2.4908,-72.2087,155.0609,-158.8174
1375,-0.3449,-5.5181,0.958,-55.0261,148.9391,-161.8087
1380,0.0,-3.6787,0.3449,-44.1043,141.8435,-161.5304
1385,0.1916,-2.4908,0.5365,-42.1565,137.2522,-160.2087
1390,0.6514,-2.1843,0.6131,-40.6957,133.6348,-158.6783
1395,1.7627,-2.7591,1.8011,-37.5652,129.2522,-157.9826
1400,3.2189,-5.1732,2.0693,-42.5739,125.9826,-158.7478
1405,3.9853,-5.863,3.6404,-53.4957,125.9826,-163.7565
1410,4.2919,-6.1313,4.2536,-59.4087,129.0435,-168.4174
1415,4.5984,-7.0509,3.8704,-60.1043,133.2174,-168.6261
1420,5.8247,-7.8557,3.6021,-58.2261,138.3652,-167.513
1425,6.936,-8.6221,3.4871,-58.1565,139.9652,-168.3478
1430,9.3885,-10.4231,2.1459,-57.7391,139.6174,-167.5826
1435,13.1822,-11.0363,2.6058,-60.7304,137.2522,-167.8609
1440,14.6,-12.684,1.8777,-58.6435,137.6696,-175.7217
1445,14.1785,-13.1439,1.6095,-55.8609,137.7391,-184.6261
1450,15.1365,-12.4924,1.5711,-52.5913,137.4609,-193.8783
1455,16.5927,-12.1475,0.6898,-46.6087,132.7304,-203.4783
1460,17.1675,-9.6184,-0.8814,-36.2435,127.6522,-214.1217
1465,17.1675,-8.4688,-1.3029,-28.6609,127.5826,-221.913
1470,17.9339,-8.4688,-2.1076,-30.6783,128.1391,-224.3478
1475,18.3554,-8.852,-2.1076,-41.2522,129.5304,-224.7652
1480,22.0725,-10.7297,-1.9927,-51.8957,128.8348,-220.5913
1485,27.0158,-11.3811,-2.7591,-54.8174,127.2348,-223.5826
1490,28.7019,-11.5727,-4.1386,-46.3304,125.7043,-232.6261
1495,31.4227,-11.4961,-5.748,-34.713,127.0957,-242.2261
1500,31.6909,-10.9979,-5.4415,-21.287,127.9304,-253.0783
1505,31.2694,-10.2698,-5.2116,-1.3913,123.687,-256.5565
1510,31.0011,-9.3118,-3.1423,20.4522,116.313,-261.9826
1515,29.545,-7.5874,-2.0693,39.3043,109.913,-269.3565
1520,26.0578,-6.3229,-0.5365,51.9652,107.8957,-275.4087
1525,23.452,-6.0929,0.4215,60.4522,109.2174,-277.4261
1530,18.3554,-5.978,0.1916,66.5043,114.6435,-279.0261
1535,13.6037,-5.748,-0.0766,72.0,117.0783,-281.3217
1540,11.1895,-5.2116,0.0383,76.0348,116.7304,-279.1652
1545,9.5418,-4.1769,0.9963,79.0957,113.8087,-274.713
1550,7.5491,-3.832,2.4908,79.6522,109.0783,-269.4957
1555,8.2389,-3.1039,2.7974,78.887,97.6,-259.9652
1560,7.2809,-2.874,2.4525,75.3391,85.7739,-252.5217
1565,8.0856,-3.3339,2.9123,69.0783,73.9478,-244.5217
1570,8.2005,-3.3722,2.6058,64.9739,64.9739,-237.1478
1575,9.0436,-3.2189,1.9543,61.287,57.6696,-227.9652
1580,9.0053,-2.4525,1.4179,56.0696,55.9304,-223.8609
1585,8.8137,-1.9927,1.8777,50.2957,54.887,-218.5739
1590,9.0819,-1.6861,2.031,47.3739,49.2522,-213.0087
1595,9.0819,-0.843,2.2226,46.0522,41.2522,-208.487
1600,8.9286,-0.2682,2.4142,45.2174,34.6435,-204.313
1605,8.2772,0.0,2.7207,45.287,30.1217,-199.1652
1610,8.3921,0.9963,2.2609,46.5391,23.0261,-194.3652
1615,8.7754,2.2992,1.5328,46.3304,17.4609,-189.5652
1620,9.695,3.8704,1.3795,43.6174,14.9565,-181.3565
1625,10.8446,4.5984,2.1843,40.9043,11.5478,-171.6174
1630,12.0709,4.5218,1.4179,41.1826,8.2087,-158.4
1635,11.8793,3.6021,1.8777,34.6435,11.5478,-139.2
1640,11.0363,0.9963,1.6095,24.9739,11.4783,-119.3739
1645,9.8483,-0.1916,1.5328,19.6174,9.6,-104.487
1650,8.2772,-0.5365,1.8394,20.5217,6.9565,-96.6957
1655,7.9706,0.2682,1.916,26.713,1.2522,-93.1478
1660,7.9323,1.4562,1.2263,34.2261,-2.713,-89.8087
1665,8.0473,3.1039,1.073,37.6348,-3.2,-87.0957
1670,7.7024,3.5638,0.8047,37.7043,-0.9043,-85.9826
1675,8.0856,4.5984,1.5711,34.713,3.2696,-86.887
1680,8.1622,4.6368,1.073,31.9304,5.2174,-85.3565
1685,9.1969,3.9853,0.1916,27.6174,8.1391,-82.9217
1690,10.0399,2.989,-1.2646,23.3739,12.4522,-81.0435
1695,10.0782,1.7244,-1.4562,21.7043,18.5739,-79.4435
1700,9.925,1.6478,-0.0766,22.5391,21.7739,-79.1652
1705,9.695,2.1459,0.7664,24.7652,21.1478,-77.8435
1710,9.1969,2.4525,1.1496,27.0609,17.7391,-75.4783
1715,8.8903,3.1806,1.1113,28.313,14.1913,-72.9043
1720,8.6987,3.7554,0.2299,29.5652,10.5739,-70.1913
1725,8.9286,4.3302,-0.4982,29.7739,8.4174,-66.6435
1730,9.0819,5.0583,-0.4598,28.1739,7.4435,-64.8348
1735,9.1586,5.8247,-0.2682,25.6,8.0,-63.3739
1740,9.1969,5.9396,-0.5365,22.6087,9.5304,-60.5217
1745,9.3118,5.5564,-0.3449,18.4348,12.3826,-57.113
1750,9.5801,5.1349,-0.1533,14.4,14.6783,-53.0087
1755,9.2735,5.1732,-0.6514,12.0348,16.3478,-48.4174
1760,9.2352,4.9433,-0.7664,10.087,18.4348,-44.5913
1765,9.1202,4.8667,-0.7281,8.9739,20.4522,-39.4435
1770,9.2352,4.905,-0.4982,9.1826,21.7739,-35.687
1775,9.5034,4.9816,-0.3066,10.087,23.7217,-31.7913
1780,9.81,5.0966,-0.3832,11.3391,26.3652,-28.2435
1785,9.5418,4.7517,0.0,12.4522,28.8,-24.1391
1790,9.4651,4.6368,0.2682,13.0087,30.7478,-19.8261
1795,8.8137,4.6368,0.7664,15.3043,31.0957,-14.2609
1800,8.3155,4.905,1.1113,18.5739,29.3565,-9.3217
1805,8.1239,5.2116,1.4945,22.8174,27.1304,-4.5913
1810,7.894,5.5181,1.1113,26.9217,25.5304,0.8348
1815,7.5874,5.9396,0.958,29.287,24.9043,5.1478
1820,8.3155,6.1696,0.9963,29.2174,25.3217,8.6261
1825,7.9323,6.5145,0.3066,27.5478,26.8522,11.7565
1830,7.4725,6.5911,0.6514,24.3478,26.9217,14.0522
1835,7.3192,6.4761,0.8814,20.8696,24.8348,17.3913
1840,6.5528,6.4378,1.3412,18.6435,21.0087,21.2174
1845,6.2845,6.5911,1.4562,18.2261,15.7217,25.3217
1850,6.2462,6.6294,1.6095,17.7391,10.087,29.0783
1855,5.7864,6.3612,1.8777,16.1391,5.287,33.3913
1860,5.6331,5.863,1.9927,15.0957,-0.2087,38.6087
1865,5.1732,5.5948,1.916,16.0,-5.4957,43.2696
1870,5.6714,5.02,1.9927,18.5739,-11.0609,48.2783
1875,5.7097,4.8284,1.4562,22.5391,-16.2087,53.7739
1880,5.9396,4.8667,0.8814,26.5739,-20.8,58.5043
1885,6.5145,4.905,0.6514,29.7739,-24.487,63.4435
1890,6.6294,4.6368,0.3066,32.6957,-27.2,66.7826
1895,7.0126,4.8284,0.3066,35.1304,-28.1043,69.4261
1900,7.0893,5.3265,0.5748,38.1913,-28.5217,71.0261
1905,7.9323,5.4798,0.5365,40.6261,-28.313,72.4174
1910,7.2809,5.6331,0.5365,42.2261,-25.7391,72.1391
1915,7.6641,5.6331,0.3832,41.9478,-24.487,72.4174
1920,7.4725,5.6331,0.5748,40.6957,-23.7913,73.113
1925,7.8557,5.5181,0.6131,39.5826,-24.4174,74.7826
1930,8.4688,5.0966,0.2682,39.0261,-25.113,75.7565
1935,9.1202,5.1732,0.2682,39.7217,-24.2783,76.2435
1940,8.9286,4.6751,-0.1533,40.9043,-22.6087,76.2435
1945,8.9286,4.79,-0.1533,42.4348,-20.8696,76.2435
1950,8.5838,5.3648,-0.1533,44.313,-20.313,75.9652
1955,9.1586,5.4798,-0.5365,46.0522,-19.7565,75.9652
1960,9.1969,5.7097,-0.6514,45.913,-18.5739,75.8261
1965,9.1586,5.6331,-0.6898,43.3391,-16.5565,75.0609
1970,9.4651,5.02,-0.8814,39.5826,-14.6087,73.1826
1975,9.1586,4.8667,-0.9197,35.5478,-13.0087,71.2348
1980,9.3885,4.4068,-0.9963,32.2783,-12.1739,68.8696
1985,9.4651,4.1769,-1.3029,29.9826,-11.2696,66.5739
1990,9.5418,3.947,-1.1496,28.3826,-9.6696,63.8609
1995,9.6184,3.4488,-1.2263,27.6174,-8.0,62.1217
2000,9.3118,3.3339,-1.5711,28.1043,-5.287,60.2435
2005,9.2352,3.2955,-1.4562,29.3565,-3.4783,60.1739
2010,9.5418,2.9507,-1.916,30.4696,-2.5043,59.8261
2015,9.81,2.989,-2.2226,31.513,-1.6,59.0609
2020,9.8483,3.1039,-2.1843,32.8348,-1.1826,57.6696
2025,10.1932,2.874,-2.4525,33.7391,-1.6696,56.0696
2030,9.695,2.3759,-3.0273,34.2261,-2.7826,54.1913
2035,9.5034,2.4908,-3.2189,33.9478,-5.0087,52.1739
2040,10.3848,1.7627,-3.6787,32.1391,-8.9739,50.6435
2045,10.5381,1.5328,-3.832,29.3565,-11.9652,46.7478
2050,11.0746,1.2646,-3.9087,24.6261,-14.6783,42.7826
2055,12.1475,0.6131,-3.9087,19.8261,-15.1652,39.0261
2060,13.1055,0.4598,-3.832,16.1391,-13.4957,33.9478
2065,13.3355,0.4982,-3.4488,14.1913,-9.7391,30.7478
2070,13.2971,0.4598,-3.1806,12.9391,-5.2174,28.3826
2075,13.4121,0.3832,-2.6441,12.313,-0.4174,26.9913
2080,12.799,0.4215,-2.4525,13.2174,3.4087,24.9043
2085,12.799,0.5748,-2.2609,14.7478,6.5391,23.5826
2090,12.2242,0.843,-2.1843,15.6522,10.2957,23.3043
2095,12.684,0.9197,-1.9927,15.1652,14.1913,22.4
2100,12.1475,1.1879,-2.1076,14.4696,16.6261,20.4522
2105,11.6494,1.3029,-2.1076,13.0783,19.4783,21.4957
2110,11.3811,1.3795,-1.9543,11.0609,21.3565,22.2609
2115,11.0746,1.2646,-2.2226,9.2522,23.0261,22.7478
2120,10.6914,1.1879,-1.916,7.2348,24.2087,23.3043
2125,10.5764,0.8814,-1.8777,5.7739,24.9043,24.6957
2130,10.1932,0.5365,-1.8011,4.5217,25.4609,25.4609
2135,9.9633,0.4215,-1.6478,3.6174,26.2957,26.1565
2140,9.7717,0.1533,-1.5328,3.2696,27.0609,26.0174
2145,9.5034,-0.2682,-1.4945,2.9913,27.9652,26.0174
2150,9.2352,-0.2299,-1.4179,3.2,28.8696,25.3913
2155,9.1586,-0.2299,-1.4562,3.5478,29.7043,25.113
2160,9.1586,-0.1533,-1.4179,4.5217,30.8174,24.3478
2165,9.1202,-0.2299,-1.3795,5.7043,32.7652,23.7913
2170,9.0053,-0.115,-1.2263,6.6783,35.3391,22.8174
2175,9.0436,-0.0766,-1.1496,6.7478,37.3565,22.1217
2180,9.3118,0.0766,-1.3029,6.3304,38.9565,20.6609
2185,9.3118,0.4215,-1.1879,5.6348,40.5565,19.687
2190,9.3502,0.2682,-1.3029,4.1739,42.7826,18.6435
2195,9.81,0.0,-1.2263,3.4087,45.4261,18.5043
2200,9.4268,-0.115,-1.3029,3.8957,51.1304,16.9739
2205,9.3885,0.0766,-0.7281,5.5652,53.6348,15.4435
2210,9.6184,0.1916,-0.6131,5.5652,51.9652,14.5391
2215,10.2698,0.1916,-0.843,4.2435,50.9217,13.8435
2220,10.2698,-0.0383,-0.6514,2.5043,53.4261,12.8
2225,10.1932,0.0,-0.4215,0.7652,56.0696,12.7304
2230,10.2315,0.0383,-0.3066,-0.3478,57.1826,12.4522
2235,10.5381,-0.0383,-0.2299,-1.6,57.9478,12.5913
2240,11.0363,-0.5748,-0.6514,-2.713,61.0087,12.5217
2245,10.0399,-0.1916,0.0,-2.713,64.2087,11.5478
2250,10.3082,-0.3066,0.0,-4.1043,60.1739,10.6435
2255,10.653,-0.3449,-0.1533,-5.6348,56.7652,10.6435
2260,10.6147,-0.4215,-0.1533,-8.0,56.2087,9.8087
2265,10.7297,-0.3449,-0.4598,-10.5739,55.7913,8.3478
2270,10.653,-0.7664,-0.2682,-12.9391,56.3478,6.887
2275,10.8063,-0.9197,-0.1916,-15.0261,57.9478,5.4261
2280,10.3465,-0.7664,0.115,-16.3478,60.4522,2.8522
2285,10.0399,-0.8814,0.5748,-17.0435,60.2435,1.1826
2290,10.1549,-0.958,0.5748,-17.1826,58.7826,0.1391
2295,10.4614,-1.4179,0.6898,-16.487,59.5478,-0.7652
2300,10.2698,-1.4562,0.843,-14.4,61.7739,-2.5739
2305,10.0399,-1.4562,1.3412,-11.5478,63.513,-3.7565
2310,9.8866,-1.4179,1.3795,-8.0696,64.1391,-4.9391
2315,9.925,-1.4179,1.3795,-3.7565,64.487,-5.6348
2320,10.4614,-1.3412,1.1879,1.2522,65.3913,-6.6783
2325,10.0782,-1.3029,1.5328,6.4696,69.3565,-8.0
2330,9.3118,-0.958,2.1076,12.4522,70.5391,-10.2957
2335,9.1969,-0.8047,2.2992,16.5565,66.8522,-10.2261
2340,9.2352,-0.6514,2.2609,19.8957,62.3304,-9.4609
2345,9.4268,-0.7664,2.4142,22.2609,59.1304,-8.5565
2350,9.4268,-0.7664,2.4142,24.4174,56.9739,-9.113
2355,9.1969,-0.3832,2.2226,26.5043,55.3739,-9.7391
2360,9.3502,-0.4598,2.4908,27.3391,53.8435,-9.7391
2365,9.2352,-0.1533,2.5291,27.4087,51.4783,-8.9739
2370,9.4268,-0.5365,2.5291,27.2,48.9739,-9.113
2375,9.1202,-0.2682,2.4908,27.2,46.7478,-10.9913
2380,8.9286,0.0,2.6441,28.1739,45.4261,-11.7565
2385,8.737,0.1533,2.6058,28.3826,43.2696,-11.1304
2390,8.7754,0.2682,2.5675,28.5913,41.1826,-10.2261
2395,8.7754,0.2682,2.6441,28.3826,39.1652,-8.6261
2400,8.9286,0.2682,2.5291,27.8957,37.0087,-7.7913
2405,8.6221,0.4215,2.6441,26.9913,35.2,-6.887
2410,8.6987,0.4215,2.7207,25.6696,32.6957,-5.8435
2415,8.4688,0.3449,2.6441,24.9043,30.2609,-5.2174
2420,8.6987,0.4215,2.6441,25.1826,29.4957,-3.8957
2425,8.8137,0.4215,2.6824,24.4174,27.0609,-2.6435
2430,8.737,0.3832,2.7207,23.4435,24.9043,-2.713
2435,8.6987,0.3832,2.6058,22.4,22.6783,-2.1565
2440,8.8903,0.3832,2.6441,21.287,19.8957,-1.6696
2445,8.8137,0.5365,2.6058,20.1739,17.3217,-1.113
2450,9.0436,0.4982,2.4142,19.4783,15.3043,-1.113
2455,8.737,0.7281,2.2992,18.2957,12.9391,-0.6261
2460,8.5838,0.8047,2.4142,17.6696,11.4087,-0.3478
2465,8.7754,0.8814,2.2609,17.4609,11.4087,0.487
2470,8.967,0.843,2.3375,15.7913,10.3652,0.9043
2475,9.1586,0.7281,2.4142,14.2609,9.7391,0.7652
2480,9.2352,0.8814,2.2992,12.9391,9.0435,0.6957
2485,9.3502,0.6898,2.1076,11.8261,8.1391,1.5304
2490,9.1202,0.843,2.2226,10.5739,7.5826,1.4609
2495,9.2735,0.6898,2.031,9.3913,6.8174,1.8087
2500,9.2735,0.6898,2.0693,8.3478,5.4957,1.5304
2505,9.4268,0.6131,1.916,7.8609,4.2435,2.0174
2510,9.3118,0.7281,2.031,7.5826,3.2696,1.6696
2515,9.3502,0.7664,1.916,7.1652,1.7391,1.8087
2520,9.5034,0.843,1.8394,6.6783,1.1826,1.1826
2525,9.4268,0.843,1.8394,6.2609,0.6957,1.2522
2530,9.5418,0.7664,1.8777,5.7739,0.2783,0.6957
2535,9.5418,0.9963,1.8394,5.287,0.0696,0.0
2540,9.7334,0.843,1.8777,4.313,0.0696,-0.4174
2545,9.7334,0.843,1.916,3.5478,0.2087,-0.5565
2550,9.6184,0.8814,1.8394,2.8522,0.2087,-1.113
2555,9.8866,0.9197,1.9927,2.2957,0.1391,-1.3217
2560,9.7717,0.7281,1.916,1.6696,-0.0696,-1.6696
2565,9.6184,0.7281,1.916,1.3217,0.0696,-1.3913
2570,9.5801,0.6898,1.8777,1.1826,0.4174,-1.3913
2575,9.5801,0.6898,1.8011,1.1826,0.487,-1.1826
2580,9.6184,0.6514,1.8394,1.3217,0.2783,-0.7652
2585,9.695,0.4982,1.7627,1.5304,0.3478,-0.1391
2590,9.7717,0.4598,1.7627,2.0174,0.3478,-0.4174
2595,9.6567,0.5748,1.6095,2.7826,0.2783,-0.2783
2600,9.6184,0.4598,1.7244,3.3391,0.2783,-0.3478
2605,9.7334,0.4215,1.6861,3.7565,0.487,0.0
2610,9.6184,0.6131,1.8011,3.8957,0.5565,0.2087
2615,9.6567,0.5365,1.6861,3.7565,0.4174,0.6261
2620,9.6184,0.4598,1.6095,3.4783,0.4174,0.4174
2625,9.695,0.5365,1.5328,3.2696,0.3478,0.7652
2630,9.695,0.5748,1.7244,3.2,0.3478,0.7652
2635,9.695,0.6131,1.5711,3.0609,0.5565,0.9043
2640,9.6184,0.4982,1.3412,2.6435,0.7652,0.7652
2645,9.6567,0.5748,1.3795,2.3652,1.113,1.0435
2650,9.6567,0.5748,1.5328,2.0174,1.4609,0.9043
2655,9.695,0.3832,1.5328,1.7391,2.087,0.9739
2660,9.7334,0.4982,1.5711,1.4609,2.4348,0.9043
2665,9.7717,0.4598,1.4562,1.2522,2.7826,0.9739
2670,9.6567,0.4982,1.6478,1.0435,2.9217,0.7652
2675,9.7334,0.4598,1.4179,0.8348,3.2,0.9043
2680,9.7334,0.4982,1.4945,0.6261,3.4783,0.6957
2685,9.695,0.3832,1.4179,0.487,3.8261,0.8348
2690,9.7334,0.4215,1.6095,0.1391,3.8957,0.6957
2695,9.7334,0.4598,1.5328,0.0,3.8957,0.7652
2700,9.8866,0.3066,1.3412,-0.3478,4.2435,0.2783
2705,9.6567,0.3832,1.5328,-0.6261,5.0783,-0.0696
2710,9.8483,0.4215,1.5711,-0.9043,5.0783,-0.2087
2715,9.81,0.3832,1.6095,-1.2522,5.4261,-0.2783
2720,9.5801,0.4598,1.6478,-1.7391,5.4957,-0.487
2725,9.81,0.3832,1.6478,-2.2957,4.6609,-0.1391
2730,9.81,0.3066,1.6478,-2.8522,4.313,-0.4174
2735,9.6567,0.3832,1.8011,-3.3391,4.3826,-0.4174
2740,9.5418,0.3449,1.8011,-3.6174,4.2435,-0.6261
2745,9.6184,0.3449,1.8394,-3.8261,3.687,-0.487
2750,9.5801,0.3449,1.8394,-4.0348,3.2696,-0.487
2755,9.695,0.3066,1.7244,-3.7565,3.1304,-0.5565
2760,9.5801,0.2682,1.7627,-3.2696,3.6174,-0.9043
2765,9.5418,0.3832,1.7627,-2.9217,3.8261,-0.9043
2770,9.5801,0.3066,1.8011,-2.7826,4.0348,-1.0435
2775,9.6184,0.2299,1.7627,-2.4348,4.1739,-0.9043
2780,9.4268,0.4215,1.8777,-2.087,4.313,-0.9739
2785,9.5801,0.2682,1.8777,-1.8783,4.2435,-0.7652
2790,9.5801,0.4215,1.8777,-1.8783,4.313,-0.8348
2795,9.6567,0.3449,1.916,-1.6696,4.1043,-0.7652
2800,9.5418,0.3449,1.8777,-1.5304,3.7565,-0.6957
2805,9.6184,0.4982,1.916,-1.6,3.2696,-0.5565
2810,9.695,0.3449,1.7627,-1.6696,2.713,-0.487
2815,9.5418,0.4215,1.6861,-1.6,2.2957,-0.2783
2820,9.6567,0.4215,1.7244,-1.4609,2.3652,-0.487
2825,9.5801,0.3832,1.6861,-1.0435,2.2957,-0.487
2830,9.5418,0.3066,1.6095,-0.5565,2.5739,-0.5565
2835,9.5034,0.4215,1.8777,0.1391,2.9217,-0.5565
2840,9.4268,0.4215,1.8394,0.487,2.5739,-0.487
2845,9.5418,0.4215,1.7627,0.6957,2.0174,-0.2783
2850,9.4268,0.4598,1.8011,0.8348,2.0174,-0.3478
2855,9.5418,0.4215,1.8394,1.0435,1.8087,-0.1391
2860,9.6184,0.3832,1.8394,1.1826,1.3913,-0.1391
2865,9.5418,0.3066,1.7627,1.1826,1.3217,0.0
2870,9.5801,0.3832,1.7627,1.1826,1.2522,-0.0696
2875,9.695,0.2299,1.8011,1.4609,1.3913,0.0696
2880,9.5801,0.4215,1.7627,1.5304,1.3217,-0.0696
2885,9.5418,0.3832,1.8011,1.6,1.3217,0.0696
2890,9.5418,0.2299,1.8011,1.7391,1.2522,-0.0696
2895,9.6567,0.4598,1.6095,1.9478,1.0435,-0.0696
2900,9.6184,0.5748,1.6478,2.087,0.8348,-0.5565
2905,9.6567,0.3832,1.5711,2.2261,0.6957,-0.2783
2910,9.5418,0.4215,1.7244,2.087,0.7652,-0.3478
2915,9.7717,0.4982,1.7244,1.9478,0.7652,-0.2087
2920,9.5418,0.4982,1.6861,1.8783,0.8348,-0.3478
2925,9.5801,0.6131,1.5711,1.7391,0.9043,-0.2783
2930,9.7334,0.4598,1.5711,1.6696,0.9043,-0.2087
2935,9.6567,0.4598,1.4945,1.8783,1.113,-0.1391
2940,9.6567,0.5365,1.5711,1.7391,1.3913,-0.2087
2945,9.7334,0.4215,1.4562,1.6,1.6696,-0.2783
2950,9.7334,0.4215,1.4179,1.5304,2.0174,-0.4174
2955,9.6184,0.5748,1.5328,1.6696,2.2957,-0.4174
2960,9.695,0.4598,1.4945,1.5304,2.4348,-0.4174
2965,9.6184,0.4215,1.6478,1.3913,2.5739,-0.3478
2970,9.81,0.4215,1.5328,1.4609,2.8522,-0.487
2975,9.695,0.4215,1.5711,1.3913,3.0609,-0.4174
2980,9.7334,0.4982,1.4945,1.4609,3.4783,-0.6261
2985,9.6567,0.4598,1.3795,1.3217,3.5478,-0.4174
2990,9.6184,0.4598,1.3795,1.1826,3.6174,-0.6957
2995,9.695,0.4598,1.5711,1.1826,3.8261,-0.6261
