timestamp,accX,accY,accZ,gyroX,gyroY,gyroZ
0,1.073,-9.5034,-4.2919,-8.8348,1.9478,5.1478
5,1.073,-9.5418,-4.2536,-8.5565,1.6696,5.4261
10,0.9963,-9.5418,-4.2152,-8.4174,1.3913,5.3565
15,1.0346,-9.4268,-4.4068,-8.2087,0.9043,5.6348
20,1.073,-9.5418,-4.2919,-8.0696,0.5565,5.6348
25,0.958,-9.5034,-4.0236,-7.9304,0.2087,5.7043
30,0.843,-9.5801,-4.0236,-7.5826,-0.0696,5.7739
35,0.9197,-9.4268,-4.2152,-7.3043,-0.4174,5.913
40,0.9197,-9.4268,-4.2152,-7.0957,-0.6957,5.913
45,0.8814,-9.4268,-4.2536,-6.887,-0.9739,5.9826
50,0.843,-9.3502,-4.4068,-6.5391,-1.1826,6.0522
55,0.8814,-9.3885,-4.1769,-6.7478,-1.3217,5.9826
60,0.7281,-9.1586,-4.1003,-6.887,-1.5304,5.9826
65,0.6898,-9.4268,-4.2536,-6.887,-1.7391,6.1217
70,0.8814,-9.4651,-4.1769,-6.9565,-1.9478,6.1217
75,0.7664,-9.3502,-4.2152,-7.0957,-2.2957,5.9826
80,0.7664,-9.3118,-4.0236,-7.1652,-2.4348,5.9826
85,0.9963,-9.4268,-4.3685,-7.2348,-2.8522,6.1217
90,0.8814,-9.4268,-4.1386,-7.3043,-2.9913,6.3304
95,0.843,-9.4268,-4.2152,-7.3739,-3.2696,6.6087
100,0.6898,-9.2352,-4.3302,-7.3739,-3.687,6.5391
105,0.8047,-9.3885,-4.2919,-7.513,-3.9652,6.6783
110,0.6514,-9.4268,-4.2152,-7.6522,-4.1043,6.6783
115,0.6898,-9.2352,-4.3302,-8.0,-4.3826,6.6783
120,0.7664,-9.1969,-4.2919,-8.2783,-4.5913,6.7478
125,0.7281,-9.2352,-4.2152,-8.3478,-4.9391,6.8174
130,0.7281,-9.3885,-4.3302,-8.5565,-5.1478,6.7478
135,0.843,-9.1969,-4.2536,-8.6957,-5.6348,6.6783
140,0.7664,-9.3118,-4.2152,-8.9043,-6.0522,6.5391
145,0.7664,-9.3502,-4.2536,-9.1826,-6.5391,6.3304
150,0.7664,-9.4268,-4.2536,-9.3913,-7.1652,6.1913
155,0.7664,-9.3118,-4.2919,-9.3217,-7.7217,6.0522
160,0.7281,-9.3502,-4.3302,-9.4609,-8.2087,5.9826
165,0.7281,-9.5418,-4.2919,-9.5304,-8.6957,5.8435
170,0.7664,-9.5418,-4.2919,-9.113,-9.0435,5.7739
175,0.8047,-9.5418,-4.2919,-8.9043,-9.4609,5.6348
180,0.5748,-9.4268,-4.2536,-8.7652,-9.5304,5.4261
185,0.8047,-9.5034,-4.1386,-8.5565,-9.7391,5.3565
190,0.7281,-9.5418,-4.2919,-8.5565,-9.8783,5.1478
195,0.6514,-9.4651,-4.2152,-8.5565,-9.9478,4.8
200,0.8047,-9.3885,-4.4068,-8.4174,-10.0174,4.6609
205,0.843,-9.5034,-4.4068,-8.487,-10.087,4.5217
210,0.8047,-9.4268,-4.4068,-8.8348,-10.087,4.2435
215,0.7281,-9.3885,-4.2919,-9.113,-10.1565,4.0348
220,0.8047,-9.5034,-4.3302,-9.1826,-10.2261,3.9652
225,0.8047,-9.5418,-4.3302,-9.1826,-10.4348,4.0348
230,0.6898,-9.4651,-4.4068,-9.113,-10.5043,4.2435
235,0.5748,-9.5034,-4.3302,-8.9739,-10.5739,4.313
240,0.6514,-9.4651,-4.2536,-8.6957,-10.7826,4.3826
245,0.6131,-9.4268,-4.4452,-8.4174,-10.8522,4.5913
250,0.9197,-9.5801,-4.3685,-8.0696,-11.0609,4.8
255,0.843,-9.5034,-4.3685,-7.9304,-11.1304,4.8696
260,0.7664,-9.5801,-4.3685,-7.513,-11.0609,4.7304
265,0.7664,-9.4268,-4.2536,-7.1652,-10.9913,4.7304
270,0.6514,-9.5034,-4.4068,-6.8174,-10.9217,4.5913
275,0.6514,-9.5801,-4.2919,-6.8174,-10.713,4.6609
280,0.6131,-9.5801,-4.5218,-6.7478,-10.5043,4.6609
285,0.6131,-9.695,-4.4068,-6.8174,-10.2957,4.4522
290,0.6131,-9.5034,-4.5218,-6.8174,-10.087,4.313
295,0.5748,-9.6184,-4.3685,-7.3739,-9.7391,4.313
300,0.8047,-9.5801,-4.3685,-7.7913,-9.5304,4.0348
305,0.6898,-9.695,-4.4835,-8.487,-9.3217,3.687
310,0.5748,-9.695,-4.3302,-8.8348,-9.2522,3.5478
315,0.5365,-9.695,-4.4452,-9.113,-9.1826,3.2
320,0.6131,-9.81,-4.4835,-9.4609,-9.1826,3.0609
325,0.4982,-9.7717,-4.4068,-9.5304,-9.1826,2.9217
330,0.4598,-9.8483,-4.4452,-9.4609,-9.1826,2.9217
335,0.5748,-9.925,-4.3685,-9.3217,-9.1826,2.8522
340,0.4598,-10.0016,-4.5218,-9.113,-9.113,2.7826
345,0.3066,-9.8866,-4.3685,-8.6957,-9.2522,2.7826
350,0.4598,-9.9633,-4.3685,-8.2087,-9.113,3.1304
355,0.3832,-10.1549,-4.5218,-7.8609,-8.9739,3.0609
360,0.3449,-10.0782,-4.4835,-7.7217,-8.6957,2.9913
365,0.3832,-10.0782,-4.5984,-7.8609,-8.4174,3.2696
370,0.3066,-10.0399,-4.5601,-7.7913,-8.2783,3.4783
375,0.2299,-10.0399,-4.5984,-7.6522,-8.2087,3.8261
380,0.3066,-9.9633,-4.5984,-7.6522,-8.0696,4.0348
385,0.1916,-10.0016,-4.5218,-7.7913,-7.9304,4.2435
390,0.3449,-9.9633,-4.6368,-7.513,-7.9304,4.6609
395,0.1916,-9.9633,-4.5218,-7.3739,-7.9304,4.9391
400,0.3066,-9.9633,-4.7134,-7.2348,-8.0696,5.287
405,0.2299,-9.9633,-4.7134,-7.0261,-8.2087,5.7739
410,0.1533,-10.0399,-4.4835,-6.8174,-8.2783,6.0522
415,0.3066,-10.0399,-4.5218,-6.1913,-8.487,6.4
420,0.3832,-10.0782,-4.5984,-5.7043,-8.6957,6.887
425,0.2682,-9.8866,-4.5601,-5.287,-8.6957,6.9565
430,0.3832,-9.925,-4.5218,-5.287,-8.9043,6.887
435,0.2682,-9.8483,-4.5984,-5.4261,-8.7652,6.887
440,0.3449,-9.7717,-4.5601,-5.8435,-8.8348,7.0957
445,0.3066,-9.81,-4.6751,-6.4,-8.8348,7.3043
450,0.2299,-9.7717,-4.6368,-7.2348,-8.8348,7.3739
455,0.2299,-9.81,-4.6751,-8.0696,-8.8348,7.4435
460,0.3832,-9.8483,-4.6751,-9.0435,-8.6957,7.513
465,0.4982,-9.9633,-4.6751,-9.6696,-8.7652,7.8609
470,0.3066,-9.81,-4.5984,-10.0174,-8.8348,8.1391
475,0.4598,-9.925,-4.6368,-9.8783,-8.9043,8.6261
480,0.3449,-9.7717,-4.7134,-9.6696,-9.0435,9.1826
485,0.3449,-9.8483,-4.7517,-9.5304,-9.0435,9.6696
490,0.3832,-9.81,-4.6751,-9.2522,-8.8348,10.3652
495,0.3449,-9.81,-4.5984,-8.8348,-8.7652,10.9217
500,0.3832,-9.8483,-4.7517,-8.5565,-8.5565,11.5478
505,0.3066,-9.695,-4.7134,-8.2783,-8.1391,12.2435
510,0.5365,-9.81,-4.6368,-8.1391,-7.9304,13.0087
515,0.0766,-9.7334,-4.905,-8.0696,-7.7217,13.8435
520,0.3066,-9.5418,-4.7134,-8.2087,-7.4435,14.5391
525,0.2682,-9.5801,-4.6751,-8.2783,-7.3043,15.2348
530,0.4598,-9.5034,-4.6368,-8.0696,-7.4435,15.8609
535,0.4598,-9.5801,-4.7134,-7.9304,-7.4435,16.3478
540,0.4215,-9.4651,-4.7517,-8.0696,-7.513,17.1826
545,0.4215,-9.4268,-4.79,-8.2087,-7.7217,17.8783
550,0.3449,-9.2735,-4.7517,-8.5565,-7.7217,18.3652
555,0.3449,-9.3885,-4.6368,-9.113,-7.6522,19.0609
560,0.3832,-9.3502,-4.79,-9.4609,-7.6522,19.6174
565,0.3066,-9.0819,-4.5984,-10.3652,-7.513,20.0348
570,0.2299,-9.3118,-4.6751,-11.6174,-7.4435,20.5913
575,0.3832,-9.2735,-4.7134,-12.5217,-7.4435,21.0087
580,0.2682,-9.1202,-4.7517,-13.7739,-7.3739,21.1478
585,0.4215,-9.1969,-4.6368,-14.8174,-7.4435,21.5652
590,0.3832,-9.2352,-4.5601,-15.3739,-7.513,22.0522
595,0.3066,-9.2352,-4.5601,-15.7913,-7.5826,22.5391
600,0.3449,-9.1969,-4.7517,-15.9304,-7.7913,22.887
605,0.3449,-9.2735,-4.8667,-15.8609,-7.9304,23.3739
610,0.0766,-9.1202,-4.8284,-15.5826,-8.0696,23.9304
615,0.115,-9.0819,-4.6368,-15.3043,-8.487,24.5565
620,0.0383,-9.3885,-4.5984,-14.6087,-8.8348,25.1826
625,0.0383,-9.1969,-4.79,-13.6348,-9.3913,25.6
630,-0.0766,-9.0436,-4.7517,-13.0783,-9.7391,25.9478
635,-0.115,-9.0436,-4.6751,-13.0783,-10.087,26.2261
640,-0.1533,-9.0819,-4.7517,-12.9391,-10.3652,26.6435
645,-0.3066,-8.967,-4.8284,-13.0087,-10.713,26.9217
650,-0.3832,-8.8137,-4.905,-13.0783,-11.2,27.0609
655,-0.2682,-8.8137,-4.8667,-13.7043,-11.5478,27.1304
660,-0.4215,-8.8903,-4.8284,-14.6783,-11.6174,27.4087
665,-0.4982,-8.852,-4.7134,-15.6522,-11.687,27.5478
670,-0.3832,-8.967,-4.905,-16.2087,-11.8261,27.7565
675,-0.5365,-8.8903,-4.7517,-16.6957,-11.7565,27.5478
680,-0.4982,-9.0436,-5.02,-17.2522,-11.5478,27.4087
685,-0.5748,-8.967,-4.905,-17.4609,-11.5478,27.1304
690,-0.4982,-8.967,-4.7517,-17.8087,-11.687,26.7826
695,-0.6898,-8.852,-4.8284,-18.5043,-11.8261,26.4348
700,-0.5748,-8.967,-4.8667,-19.2,-11.9652,26.2261
705,-0.5748,-9.0436,-4.7134,-19.7565,-12.0348,26.1565
710,-0.6131,-9.1202,-4.79,-19.687,-12.4522,26.087
715,-0.6131,-9.1202,-4.79,-19.4087,-13.1478,25.6
720,-0.5748,-8.9286,-4.6751,-19.2,-13.7043,25.2522
725,-0.7281,-9.0819,-4.7517,-18.9913,-14.2609,25.3217
730,-0.6898,-9.0436,-4.8667,-18.6435,-14.8174,25.2522
735,-0.5748,-9.1202,-4.905,-17.6,-15.6522,25.8783
740,-0.8047,-9.0436,-4.9816,-15.6522,-16.6957,26.0174
745,-0.6131,-9.0819,-4.7517,-14.5391,-17.3217,26.087
750,-0.6898,-9.0436,-4.6751,-13.0783,-17.4609,25.9478
755,-0.7664,-9.0053,-4.9433,-12.3826,-17.5304,25.5304
760,-0.6514,-8.8137,-4.9816,-11.8957,-17.4609,25.4609
765,-0.7664,-8.7754,-4.9433,-12.2435,-17.0435,25.3217
770,-0.6131,-8.737,-5.0583,-13.3565,-16.6957,25.1826
775,-0.6131,-8.852,-4.9433,-14.9565,-15.8609,25.7391
780,-0.6514,-8.7754,-4.7134,-16.0,-15.2348,26.2957
785,-0.6131,-8.7754,-4.9433,-16.487,-14.887,26.5739
790,-0.6898,-8.5454,-4.905,-16.487,-14.7478,26.713
795,-0.6131,-8.6604,-4.8667,-16.9043,-14.5391,26.713
800,-0.6131,-8.5838,-4.905,-17.6,-14.2609,26.3652
805,-0.4982,-8.5071,-4.9433,-17.9478,-14.0522,26.2957
810,-0.5748,-8.6987,-4.9816,-18.5739,-14.0522,26.1565
815,-0.6131,-8.4305,-5.02,-18.713,-14.3304,25.9478
820,-0.6131,-8.4688,-4.905,-19.1304,-14.6783,25.7391
825,-0.6514,-8.5071,-5.0583,-19.687,-15.3739,25.8087
830,-0.6131,-8.4688,-4.6751,-19.5478,-16.2087,25.7391
835,-0.6514,-8.3921,-4.9816,-19.2696,-17.1826,25.3913
840,-0.5748,-8.3155,-4.9816,-19.0609,-18.1565,25.0435
845,-0.7281,-8.2005,-5.02,-19.1304,-18.5739,25.0435
850,-0.7281,-8.1622,-4.9816,-19.8261,-19.1304,24.7652
855,-0.7281,-8.1239,-5.0583,-20.5913,-19.4783,24.6957
860,-0.7281,-7.9706,-5.02,-21.7739,-19.8957,24.2087
865,-0.7281,-7.9706,-5.1732,-23.1652,-20.1739,23.9304
870,-0.8814,-7.9706,-5.1732,-24.4174,-20.3826,23.8609
875,-0.7664,-7.9706,-5.0966,-25.3217,-20.6609,23.8609
880,-0.843,-7.8173,-4.9816,-25.9478,-20.313,24.2087
885,-0.9197,-7.8173,-5.1349,-26.8522,-20.4522,24.1391
890,-0.958,-7.779,-4.8667,-27.7565,-20.8,23.8609
895,-0.958,-7.7407,-5.2116,-28.5913,-21.3565,23.4435
900,-0.9963,-7.779,-5.2882,-29.287,-22.0522,22.9565
905,-0.9963,-7.6641,-5.0583,-30.0522,-22.8174,22.1913
910,-0.9963,-7.5874,-5.1732,-30.7478,-23.7217,21.6348
915,-1.1879,-7.5108,-5.0583,-31.4435,-24.2783,21.287
920,-1.1496,-7.4725,-5.1349,-32.1391,-24.8348,20.7304
925,-1.3795,-7.4725,-5.02,-32.9739,-25.5304,20.1739
930,-1.4179,-7.4725,-4.9816,-34.0174,-26.3652,19.2
935,-1.3795,-7.3958,-5.0966,-35.1304,-27.2,18.4348
940,-1.4945,-7.3192,-4.9433,-36.4522,-27.3391,17.8087
945,-1.3795,-7.2809,-4.905,-37.6348,-27.6174,17.1826
950,-1.5328,-7.1659,-4.905,-38.8174,-27.687,16.487
955,-1.4562,-6.8593,-4.8284,-40.0,-27.6174,16.0696
960,-1.5711,-7.0126,-4.8284,-41.2522,-28.0348,15.6522
965,-1.5328,-7.2042,-4.7134,-42.087,-28.6609,15.1652
970,-1.5711,-6.936,-4.79,-42.6435,-29.3565,14.887
975,-1.5711,-7.0893,-4.6751,-42.9217,-30.4,13.9826
980,-1.5328,-6.8977,-4.6368,-43.0609,-31.6522,12.9391
985,-1.4562,-6.8977,-4.8667,-43.0609,-33.0435,11.2696
990,-1.5711,-6.8977,-4.79,-43.2696,-33.9478,10.2957
995,-1.4562,-7.0126,-4.9433,-43.5478,-34.5043,9.8783
1000,-1.5328,-7.0126,-4.79,-44.1043,-34.713,9.5304
1005,-1.4179,-7.2042,-4.905,-44.9391,-34.9913,8.8348
1010,-1.3029,-7.2042,-4.7517,-46.2609,-35.4783,8.0
1015,-1.2646,-7.1276,-4.9816,-47.5826,-35.6174,7.513
1020,-1.2646,-7.2425,-4.7517,-48.6957,-35.687,6.7478
1025,-1.1113,-7.2042,-4.8667,-49.3217,-35.8957,5.913
1030,-1.1879,-7.2425,-5.0966,-49.9478,-35.8957,5.287
1035,-1.1113,-7.3575,-5.02,-50.0174,-36.0348,4.7304
1040,-1.1113,-7.2809,-4.9433,-49.9478,-36.0348,4.1739
1045,-1.0346,-7.3192,-5.0583,-49.4609,-36.0348,3.6174
1050,-1.073,-7.2425,-5.2116,-49.0435,-35.8261,3.687
1055,-0.958,-7.1659,-4.9816,-47.7913,-35.9652,2.8522
1060,-1.1113,-7.1659,-5.2116,-46.3304,-36.2435,1.9478
1065,-0.9963,-7.2809,-5.1349,-45.0087,-36.5217,1.2522
1070,-1.0346,-7.1276,-5.2116,-43.7565,-37.0783,0.2783
1075,-0.9963,-7.2042,-5.2116,-42.5043,-37.7043,-0.4174
1080,-1.0346,-7.2425,-5.2116,-41.3913,-38.1913,-1.0435
1085,-1.1496,-7.1276,-5.2116,-40.0696,-38.6783,-1.4609
1090,-1.0346,-7.0893,-5.1349,-39.3739,-39.1652,-0.9739
1095,-1.2646,-7.2425,-5.02,-38.1913,-40.2087,-2.1565
1100,-1.3412,-7.1276,-5.1349,-37.3565,-41.3217,-2.8522
1105,-1.2263,-7.2809,-5.0583,-36.5913,-42.5739,-3.2696
1110,-1.3029,-7.0893,-4.8667,-35.7565,-43.687,-3.4783
1115,-1.3029,-6.8977,-5.1732,-35.0609,-44.6609,-3.7565
1120,-1.3412,-6.936,-5.02,-34.6435,-45.4957,-3.9652
1125,-1.3412,-6.8593,-4.9433,-34.087,-46.1913,-3.9652
1130,-1.3412,-6.9743,-4.8667,-33.8087,-46.6783,-3.687
1135,-1.3029,-6.821,-4.7517,-33.4609,-47.513,-3.9652
1140,-1.1496,-6.8593,-4.8667,-32.6261,-48.4174,-4.4522
1145,-1.2646,-6.821,-4.905,-32.1391,-49.113,-4.6609
1150,-0.9963,-6.7061,-4.9433,-31.5826,-49.3913,-4.8696
1155,-0.9963,-6.7444,-4.7517,-31.0957,-49.8783,-5.1478
1160,-0.958,-6.7444,-4.905,-30.6783,-50.1565,-5.3565
1165,-0.9963,-6.7444,-5.0966,-30.2609,-50.1565,-5.9826
1170,-0.9197,-6.7061,-5.0966,-29.913,-50.087,-7.0957
1175,-0.6514,-6.7061,-4.9433,-29.4261,-50.087,-8.1391
1180,-0.7281,-6.7444,-4.8667,-28.8696,-49.8783,-9.4609
1185,-0.6514,-6.6677,-4.8667,-28.0348,-49.5304,-11.0609
1190,-0.6131,-6.6294,-4.8284,-27.2,-49.113,-12.5217
1195,-0.6131,-6.7061,-4.9433,-26.087,-48.3478,-14.2609
1200,-0.5748,-6.7827,-4.8667,-25.113,-47.5826,-15.8609
1205,-0.4598,-6.7444,-4.7517,-24.2087,-46.6087,-17.6
1210,-0.3066,-6.9743,-4.9816,-23.3739,-45.6348,-19.2696
1215,-0.3449,-6.821,-5.02,-22.6087,-44.5913,-20.8696
1220,-0.2299,-6.9743,-5.0966,-22.0522,-43.4783,-22.6783
1225,0.0,-7.3958,-5.1349,-21.7043,-42.4348,-24.6261
1230,-0.3066,-7.1276,-5.2116,-21.287,-41.7391,-26.6435
1235,-0.1916,-7.2425,-5.2116,-20.4522,-41.2522,-28.3826
1240,-0.115,-7.2809,-5.1349,-18.9913,-40.8348,-30.4
1245,-0.2299,-7.3575,-5.2499,-17.3217,-40.7652,-32.3478
1250,-0.1916,-7.3575,-5.0966,-15.0957,-40.9739,-34.1565
1255,-0.3449,-7.2809,-5.2499,-12.6609,-41.3217,-36.2435
1260,-0.4598,-7.2809,-5.2499,-10.2957,-42.1565,-38.0522
1265,-0.5748,-7.2809,-5.1732,-7.7913,-43.2696,-39.4435
1270,-0.6514,-7.2425,-5.2499,-5.3565,-44.7304,-40.5565
1275,-0.958,-7.2425,-5.0966,-2.3652,-46.4696,-41.5304
1280,-0.8814,-7.2042,-4.8667,1.1826,-48.2783,-42.4348
1285,-1.1113,-6.8593,-4.8667,5.1478,-49.8087,-43.1304
1290,-1.1113,-6.7827,-4.6751,9.5304,-51.2696,-43.3391
1295,-1.2646,-6.8593,-4.5601,13.8435,-52.9391,-43.7565
1300,-1.1879,-6.8977,-4.3685,18.2957,-54.3304,-44.313
1305,-1.4945,-6.7827,-4.1769,23.2348,-55.6522,-44.7304
1310,-1.4562,-6.8977,-4.0236,28.0348,-56.6957,-45.2174
1315,-1.3029,-6.7444,-3.6404,32.9043,-57.3913,-45.287
1320,-1.5711,-6.6294,-3.5255,37.287,-57.9478,-45.1478
1325,-1.4179,-6.7444,-3.5255,41.7391,-58.7826,-44.8696
1330,-1.1879,-6.3995,-3.5638,46.0522,-59.6174,-44.313
1335,-1.1879,-6.2845,-3.2189,49.7391,-60.0348,-43.4783
1340,-0.6514,-6.1313,-3.2572,53.0783,-59.8957,-42.1565
1345,-0.6131,-6.2462,-2.989,55.3739,-58.7826,-40.1391
1350,-0.4215,-6.1696,-3.2955,58.0174,-58.6435,-38.4
1355,-0.0383,-6.1313,-3.2572,60.4522,-58.2261,-36.5217
1360,0.3449,-6.0929,-3.3722,62.4,-57.6696,-34.5043
1365,0.6131,-5.8247,-3.4871,63.6522,-56.6957,-32.6957
1370,0.843,-5.863,-3.8704,63.1652,-55.3043,-30.7478
1375,0.6898,-5.9013,-4.1386,62.5391,-54.887,-29.0783
1380,1.1879,-5.748,-4.2919,62.5391,-55.2348,-27.687
1385,1.2263,-5.9013,-4.4452,62.6783,-54.3304,-26.087
1390,1.3029,-6.1313,-4.2536,63.3043,-54.5391,-26.2957
1395,0.9197,-5.8247,-4.9816,63.6522,-55.3043,-27.4087
1400,1.2646,-6.0163,-5.02,63.513,-55.1652,-27.3391
1405,1.3412,-6.0929,-5.4032,64.6957,-54.2609,-26.6435
1410,0.958,-5.9396,-5.5948,65.6696,-51.2,-23.7217
1415,-0.1533,-6.5911,-5.6331,66.5043,-50.5739,-22.6087
1420,-0.4598,-6.5528,-6.1313,67.7565,-54.887,-25.113
1425,-0.8047,-6.3995,-6.4378,67.687,-59.3391,-27.2696
1430,-1.3795,-6.3612,-6.8977,66.2957,-61.7043,-24.9043
1435,-2.6441,-7.3958,-6.9743,63.9304,-64.487,-22.3304
1440,-3.9087,-8.4305,-6.936,63.3043,-69.5652,-21.913
1445,-4.1003,-9.7717,-6.936,64.7652,-74.5739,-20.0348
1450,-5.7097,-11.726,-6.1313,67.8957,-77.287,-16.6261
1455,-7.4341,-14.4084,-5.6714,74.1565,-81.7391,-15.3043
1460,-7.894,-17.7423,-4.79,84.1043,-87.513,-14.1217
1465,-10.653,-19.8116,-4.905,98.5043,-90.713,-14.3304
1470,-13.642,-20.6546,-6.1313,111.1652,-93.913,-10.5739
1475,-17.0525,-20.9612,-7.2042,117.7043,-99.3391,-2.2957
1480,-15.673,-23.3754,-6.1313,122.8522,-105.3913,10.713
1485,-24.0652,-23.9885,-8.5071,139.1304,-100.5913,16.2087
1490,-30.6179,-24.3717,-11.1512,148.4522,-93.5652,35.7565
1495,-28.5103,-28.8169,-11.1895,135.7913,-97.4609,68.9391
1500,-30.6946,-30.4646,-12.0709,123.4087,-103.5826,88.0
1505,-25.0615,-31.6143,-13.1055,118.3304,-115.1304,109.4957
1510,-28.9702,-28.9318,-15.5964,119.8609,-111.0957,115.1304
1515,-27.399,-28.6636,-16.2478,125.287,-105.8087,132.7304
1520,-21.6893,-25.3297,-14.5234,139.9652,-96.6261,155.7565
1525,-15.3664,-21.6893,-11.7643,151.513,-84.5217,173.287
1530,-13.1055,-21.1528,-9.1969,155.0609,-72.8348,187.6174
1535,-9.1969,-22.3791,-7.7024,164.4522,-73.5304,211.2
1540,-5.748,-24.1801,-6.1696,181.4957,-76.2435,241.8087
1545,-6.6677,-22.1875,-4.3302,191.3043,-76.1043,270.1217
1550,-5.1732,-20.578,-1.7627,175.7913,-76.0348,281.4609
1555,-4.2919,-19.0069,1.2263,149.9826,-67.9652,280.0
1560,-2.9123,-17.2058,3.3722,128.3478,-54.4,265.7391
1565,-4.2536,-13.3355,2.6441,106.5043,-39.1652,244.5217
1570,-2.989,-10.0782,2.6441,80.9739,-23.513,226.5043
1575,-4.4452,-8.6604,3.1423,54.7478,-1.5304,213.4957
1580,-6.2845,-7.1659,3.7937,34.6435,13.4957,202.2957
1585,-6.3612,-5.5564,4.4452,23.2348,16.0,192.5565
1590,-7.3958,-4.1769,4.7134,12.7304,10.713,181.913
1595,-7.894,-3.7937,4.9433,5.0087,0.3478,174.6087
1600,-7.779,-3.4871,4.4068,5.0783,-13.287,168.5565
1605,-6.3995,-4.1769,3.4871,6.1913,-29.4957,164.1043
1610,-5.2116,-5.5948,3.1423,6.1217,-46.2609,158.9565
1615,-4.1003,-7.2042,2.6824,7.3739,-60.4522,150.6783
1620,-2.6824,-9.3885,2.6441,13.3565,-70.0522,140.1739
1625,-1.4945,-10.8446,2.3759,28.3826,-76.0348,129.6
1630,-1.6478,-11.8793,1.7627,48.6957,-80.6957,120.0
1635,-1.2646,-12.1859,0.8814,70.4696,-85.8435,115.8261
1640,-1.2263,-11.7643,0.4982,90.713,-89.5304,115.5478
1645,-1.0346,-10.6914,-0.1916,108.1739,-93.287,116.4522
1650,-0.6898,-9.3118,-0.6898,120.7652,-96.3478,117.7739
1655,-0.4982,-7.9323,-1.3029,129.6696,-95.8609,119.4435
1660,-0.2299,-6.1696,-1.1879,135.5826,-93.8435,122.1565
1665,0.6514,-4.79,-1.3795,139.0609,-90.8522,125.0087
1670,1.0346,-3.5638,-1.2263,140.8696,-85.5652,125.5652
1675,1.2646,-2.6441,-0.958,141.0087,-79.1652,126.3304
1680,1.1496,-1.7627,-0.8047,139.4087,-73.3913,128.4174
1685,0.9197,-0.9963,-0.6898,135.2348,-68.9391,131.6174
1690,0.958,-0.3066,-0.6131,128.7652,-64.9739,134.887
1695,0.9963,0.0,-0.4982,120.5565,-59.687,136.9043
1700,0.7664,0.0766,-0.4215,111.8609,-53.1478,137.8087
1705,0.3449,0.1533,-0.2682,103.4435,-46.3304,138.1565
1710,0.3066,-0.3449,0.115,96.4174,-40.6261,137.4609
1715,-0.2682,-0.8047,0.4982,93.3565,-36.8696,136.5565
1720,-0.6514,-1.4945,0.8814,94.5391,-35.0609,135.7913
1725,-1.2646,-2.1843,1.1496,98.9217,-35.5478,135.513
1730,-2.031,-2.8357,1.8394,104.9739,-37.9826,135.2348
1735,-2.2992,-3.5638,2.031,112.2783,-42.2261,135.4435
1740,-2.4525,-3.7937,2.4142,121.6,-46.8174,136.7652
1745,-2.6824,-3.947,2.4525,132.2435,-51.3391,138.7826
1750,-2.9123,-4.3302,2.6058,142.9565,-55.8609,141.0087
1755,-3.3722,-4.0236,2.5675,153.8783,-60.5913,142.4696
1760,-4.5218,-4.062,2.6441,163.4087,-64.8348,143.1652
1765,-5.863,-3.7937,2.5675,171.2696,-68.8696,143.513
1770,-6.5911,-3.4488,2.031,177.6,-72.2783,144.1391
1775,-6.6677,-2.874,1.6095,182.4,-73.2522,144.0
1780,-7.7024,-2.5291,1.5328,184.7652,-72.9739,143.3043
1785,-8.0089,-2.2992,2.2609,183.7913,-72.5565,141.0783
1790,-9.1969,-1.8011,2.3759,179.5478,-72.5565,138.087
1795,-9.925,-1.8011,2.6058,172.1043,-71.0957,136.4174
1800,-10.8446,-1.5328,3.0656,163.9652,-66.7826,135.3043
1805,-12.4924,-2.1459,4.0236,155.9652,-61.3565,134.3304
1810,-11.1512,-2.7591,4.4452,151.0957,-57.4609,134.5391
1815,-10.0782,-3.1806,4.8667,148.4522,-53.1478,133.6348
1820,-9.9633,-3.1039,5.5181,147.4087,-49.3217,131.2696
1825,-11.5344,-3.4488,6.2462,147.687,-46.3304,129.2522
1830,-13.4121,-3.3339,6.8593,147.8957,-47.7913,127.513
1835,-14.4084,-3.1423,7.3958,148.5913,-51.3391,127.3043
1840,-14.6384,-3.0656,7.4725,150.887,-52.8696,128.0696
1845,-16.2861,-2.874,7.7407,152.6261,-52.5913,127.5826
1850,-17.8189,-2.6058,8.1622,152.3478,-52.5217,127.4435
1855,-17.9339,-2.5675,8.2005,151.3739,-52.313,127.1652
1860,-19.3134,-1.5711,8.1239,149.913,-50.2261,121.6696
1865,-20.2331,-0.6514,7.6257,148.0348,-47.0957,114.6435
1870,-19.9266,0.2682,6.6294,143.7217,-42.7826,107.687
1875,-19.4667,1.1113,6.3995,137.0435,-36.3826,99.9652
1880,-19.7733,0.8814,5.5948,133.7043,-29.5652,89.4609
1885,-19.505,1.073,4.1386,130.1565,-25.1826,69.1478
1890,-18.662,0.9197,3.0656,124.1739,-21.0087,46.5391
1895,-17.4357,0.958,2.2609,117.4957,-17.2522,27.2
1900,-17.589,-0.1533,2.2226,108.1739,-17.5304,9.6
1905,-16.5161,-0.5365,1.2646,99.2696,-25.5304,-8.6957
1910,-15.6347,-1.073,0.4215,87.7217,-33.8087,-22.9565
1915,-14.0252,-2.1843,0.3066,73.5304,-39.7217,-30.1913
1920,-11.3045,-3.1806,0.6898,60.7304,-42.087,-34.713
1925,-7.9706,-2.874,1.6095,52.5913,-36.7304,-37.1478
1930,-5.748,-1.4945,2.5675,49.8783,-24.0,-40.6957
1935,-5.4032,0.6514,2.8357,51.687,-9.8783,-46.1217
1940,-6.7827,2.0693,3.0273,55.7217,-0.9043,-50.2261
1945,-8.0473,3.7937,2.874,59.1304,-3.4783,-53.2174
1950,-7.9706,6.0163,1.9927,58.0174,-12.2435,-53.0783
1955,-8.9286,7.3575,1.5328,52.2435,-25.1826,-45.4261
1960,-8.7754,6.0546,3.3722,41.9478,-34.6435,-25.9478
1965,-7.4725,4.1003,5.9013,44.8,-33.5304,-0.9043
1970,-3.1423,6.821,0.4215,50.9217,-32.3478,15.3043
1975,-1.8011,10.0016,-4.1003,22.9565,-64.6957,6.6087
1980,-4.5218,10.6147,-3.5255,-18.9217,-115.2696,0.0696
1985,-6.3229,10.653,0.0766,-38.9565,-146.6435,0.487
1990,-8.0089,9.7334,0.3832,-28.7304,-153.113,2.0174
1995,-8.6221,5.6714,5.4798,-21.8435,-145.6696,11.687
2000,-2.5291,2.4525,8.3155,-4.0348,-105.7391,35.4087
2005,-3.0656,3.4871,6.6294,25.2522,-70.4,23.7217
2010,-4.0236,6.0163,1.2263,32.4174,-55.8609,6.8174
2015,-4.5984,8.6604,0.3449,-0.6957,-64.4174,-7.513
2020,-3.8704,6.821,2.031,-23.2348,-77.2174,-14.6783
2025,-2.9123,4.5218,3.2572,-20.5913,-78.887,-15.2348
2030,-2.4525,3.6787,2.9123,-14.4,-72.487,-14.6087
2035,-2.7591,3.6787,2.5291,-17.9478,-70.6783,-16.0696
2040,-3.3722,3.7554,2.3375,-25.8783,-74.6435,-17.9478
2045,-4.2152,3.1039,2.6058,-31.6522,-80.4174,-16.4174
2050,-4.3685,2.7974,3.2572,-33.5304,-85.2174,-13.1478
2055,-4.79,2.5675,3.7937,-32.4174,-87.1652,-12.5217
2060,-5.2882,2.5291,4.1386,-30.9565,-86.1913,-13.1478
2065,-5.6714,2.4142,4.5601,-29.6348,-84.5217,-11.8957
2070,-6.2079,1.9927,5.2499,-27.4087,-82.9217,-9.9478
2075,-6.6677,1.9543,5.6714,-23.3739,-80.8348,-7.7913
2080,-6.8593,1.6095,6.3229,-17.3913,-77.7043,-5.3565
2085,-7.779,1.6095,7.0509,-11.2,-74.2957,-2.2261
2090,-7.9323,1.4562,7.2809,-5.9826,-72.2087,1.113
2095,-8.2389,1.2263,7.5491,-1.6696,-71.5826,3.9652
2100,-8.3155,1.1113,7.5874,1.0435,-71.9304,6.0522
2105,-8.5071,1.4945,7.6257,2.3652,-73.0435,7.8609
2110,-8.8137,1.7627,7.4341,2.0174,-73.9478,9.113
2115,-8.852,1.9927,6.7827,0.1391,-74.0174,10.087
2120,-9.1202,2.3375,6.6294,-3.6174,-73.0435,10.2957
2125,-9.2352,2.4908,6.3612,-8.487,-71.0261,10.0174
2130,-9.1202,2.6441,6.1696,-13.7043,-68.4522,9.1826
2135,-9.0053,2.7591,6.1696,-18.6435,-65.3913,7.7217
2140,-9.0053,2.5291,5.9013,-22.5391,-62.0522,6.0522
2145,-9.0053,2.4142,6.1696,-26.087,-58.0174,4.3826
2150,-8.8137,2.031,6.1313,-28.9391,-53.4261,2.4348
2155,-8.5838,1.6861,6.0929,-31.1652,-48.4174,1.0435
2160,-8.0473,1.3412,6.2845,-32.6957,-42.8522,-0.6957
2165,-7.7407,0.9197,6.5145,-34.2261,-37.1478,-2.9217
2170,-7.2809,0.4982,6.4761,-35.3391,-31.9304,-6.0522
2175,-6.7827,0.1916,6.821,-35.9652,-27.0609,-9.1826
2180,-6.2845,-0.115,6.7827,-35.6174,-22.4,-10.9217
2185,-5.6714,-0.2299,7.0509,-34.2957,-18.4348,-12.1739
2190,-5.2499,-0.4982,7.0126,-33.2522,-15.3739,-14.3304
2195,-5.02,-0.6131,6.9743,-31.2348,-13.6348,-15.1652
2200,-4.6368,-0.8047,7.0126,-27.4087,-12.9391,-15.6522
2205,-4.6368,-0.8047,6.936,-22.8174,-13.3565,-16.0696
2210,-4.5218,-0.8047,6.821,-17.6696,-14.9565,-16.6957
2215,-4.5601,-0.8814,6.7061,-11.8261,-17.3217,-16.9739
2220,-4.4452,-0.8814,6.5911,-6.1913,-20.1739,-16.6957
2225,-4.5601,-0.6514,6.3995,-1.3217,-23.0957,-16.8348
2230,-4.5601,-0.4982,6.0546,2.1565,-25.8783,-16.4174
2235,-4.5601,-0.3832,6.0163,3.8957,-28.8,-16.2783
2240,-4.7517,-0.3066,5.863,4.1043,-32.0,-16.2087
2245,-4.8284,-0.0383,5.8247,2.9913,-34.9913,-16.0696
2250,-4.8667,-0.1533,5.5564,1.1826,-38.1913,-15.5826
2255,-5.02,-0.115,5.6331,-1.3913,-41.113,-15.4435
2260,-4.9433,-0.0383,5.5564,-4.5217,-43.7565,-15.513
2265,-4.9816,-0.3066,5.7097,-8.1391,-45.9826,-15.3043
2270,-5.0583,-0.3066,5.748,-11.6174,-47.9304,-15.5826
2275,-5.1732,-0.6898,5.7864,-14.6783,-49.9478,-15.6522
2280,-5.0583,-0.8814,6.2462,-16.6261,-51.4783,-15.3739
2285,-5.0583,-1.0346,6.0163,-17.4609,-52.1043,-15.0957
2290,-5.2116,-1.3029,6.1313,-17.4609,-51.9652,-14.4
2295,-4.8284,-1.4562,6.2079,-16.7652,-51.2,-13.0087
2300,-5.0966,-1.5711,6.5145,-16.5565,-49.5304,-12.1739
2305,-5.02,-1.916,6.5145,-16.3478,-47.4435,-11.1304
2310,-4.9816,-2.031,6.5528,-16.0,-44.9391,-10.2261
2315,-4.9816,-2.1843,6.6294,-15.8609,-41.8783,-9.1826
2320,-5.0966,-2.1843,6.821,-16.0,-38.4,-8.0
2325,-5.0583,-2.1843,6.936,-16.9739,-34.9913,-7.2348
2330,-5.02,-2.031,7.0893,-18.4348,-31.5826,-6.6783
2335,-4.9816,-1.9927,7.0893,-20.5913,-28.1739,-6.2609
2340,-5.0583,-1.9927,6.936,-23.0957,-25.113,-6.1913
2345,-5.1349,-1.8011,7.2809,-25.6,-22.5391,-6.2609
2350,-5.02,-1.8394,7.0126,-28.4522,-19.9652,-6.0522
2355,-5.1732,-1.7244,7.1659,-31.0261,-17.8087,-5.7739
2360,-4.9433,-1.6095,7.1659,-33.3217,-15.9304,-5.5652
2365,-5.02,-1.4562,7.1659,-35.4087,-13.913,-5.4261
2370,-5.0583,-1.3795,7.3575,-36.9391,-12.1043,-4.8696
2375,-5.02,-1.3795,7.3192,-38.4,-10.713,-4.5217
2380,-5.0966,-1.3795,7.0509,-39.3043,-9.6,-4.0348
2385,-5.2499,-1.3029,7.3575,-40.0,-8.6957,-3.0609
2390,-4.9433,-1.4945,7.2042,-39.9304,-7.8609,-2.2261
2395,-5.1349,-1.3412,7.3192,-39.3043,-7.0261,-1.4609
2400,-5.1349,-1.3029,7.1659,-38.3304,-6.1913,-0.8348
2405,-5.1349,-1.4945,7.3192,-37.1478,-5.6348,0.5565
2410,-4.905,-1.4945,7.4341,-35.4783,-5.4261,2.3652
2415,-5.02,-1.6095,7.3958,-33.4609,-4.9391,3.6174
2420,-5.02,-1.4562,7.3192,-30.1913,-4.8,4.7304
2425,-5.02,-1.4945,7.2425,-26.9217,-4.8,5.3565
2430,-4.8667,-1.5328,6.9743,-24.2783,-5.2174,5.7043
2435,-5.0583,-1.6095,6.7444,-23.0261,-5.3565,5.4261
2440,-5.2882,-1.5711,6.821,-21.9826,-6.6087,5.913
2445,-5.2116,-1.5711,6.9743,-20.6609,-8.3478,6.8174
2450,-5.4798,-1.8394,6.821,-18.7826,-10.2957,7.0957
2455,-5.4798,-1.8011,6.5145,-16.7652,-12.4522,8.0
2460,-5.5948,-1.916,6.3229,-15.6522,-14.4696,9.4609
2465,-5.7864,-1.6861,6.3995,-15.7217,-17.2522,11.0609
2470,-6.0929,-1.8011,6.0546,-16.0696,-20.3826,11.5478
2475,-5.978,-2.031,5.9396,-17.2522,-23.5826,12.3826
2480,-6.0929,-2.1843,5.863,-18.9217,-26.6435,13.4261
2485,-6.1313,-2.4142,5.748,-20.3826,-29.287,15.4435
2490,-6.0546,-2.8357,5.7097,-21.1478,-30.8174,18.2957
2495,-6.1313,-2.7591,5.5564,-21.913,-31.6522,21.0087
2500,-5.863,-3.1039,5.5564,-23.3739,-32.0696,21.5652
2505,-5.863,-3.1423,5.6714,-25.113,-32.3478,21.0783
2510,-5.8247,-3.2572,5.5181,-25.9478,-32.0,20.9391
2515,-5.7097,-3.4488,5.3265,-26.4348,-31.1652,20.313
2520,-5.3648,-3.1806,5.4032,-26.9217,-29.3565,19.8261
2525,-5.1732,-3.2189,5.4032,-27.4783,-26.5739,20.313
2530,-5.1349,-3.1806,5.5948,-27.4087,-24.1391,19.2696
2535,-5.3648,-3.1423,5.5564,-26.5739,-21.9826,17.8783
2540,-5.1349,-2.7974,5.7097,-25.3217,-20.3826,16.6261
2545,-4.9433,-2.874,5.978,-24.0696,-19.0609,15.0261
2550,-4.7517,-2.6824,6.1313,-21.8435,-17.7391,12.8
2555,-4.5218,-2.5675,6.5145,-18.713,-16.4174,10.5739
2560,-4.4452,-2.5291,6.7827,-14.3304,-14.7478,8.8348
2565,-4.3685,-2.4142,6.936,-9.5304,-12.8,7.3043
2570,-4.3685,-2.4142,7.2809,-4.3826,-10.9217,5.8435
2575,-4.3302,-2.0693,7.5108,0.6957,-9.3913,4.5217
2580,-4.2536,-1.8777,7.7407,5.4261,-8.5565,3.1304
2585,-4.0236,-1.7627,7.894,9.8087,-8.2087,1.8783
2590,-4.062,-1.4945,8.0473,13.7739,-7.8609,0.5565
2595,-4.1769,-1.2646,8.1622,17.3913,-7.3739,-0.3478
2600,-4.2536,-1.2263,8.0856,20.2435,-7.513,-0.7652
2605,-4.062,-0.8814,8.2772,22.4696,-7.6522,-1.113
2610,-4.3302,-0.843,8.1239,24.3478,-7.8609,-1.4609
2615,-4.1386,-0.4215,8.1239,25.8783,-8.0,-1.9478
2620,-4.2152,-0.3832,7.894,26.6435,-7.2348,-2.2957
2625,-4.8284,-0.4215,8.0473,26.2957,-6.5391,-2.2261
2630,-3.8704,-0.2682,7.9706,25.5304,-5.1478,-2.2261
2635,-5.0966,-0.0383,7.6641,24.6957,-4.1043,-2.9913
2640,-6.7827,0.115,7.2809,20.8696,-4.2435,-1.6
2645,-4.4068,-0.3449,7.5491,15.1652,-4.9391,-1.3217
2650,-3.6787,-0.4982,7.3192,12.313,-4.4522,-2.087
2655,-4.7517,-0.4215,7.5108,8.9739,-2.6435,-2.4348
2660,-4.2536,-0.4215,7.1276,4.5217,-1.7391,-2.8522
2665,-3.2955,-0.6131,7.0893,0.6957,-1.8087,-3.6174
2670,-3.1806,-0.4982,7.0509,-1.0435,-0.8348,-5.4261
2675,-2.5675,-0.4598,7.3575,-1.3913,1.6696,-7.7913
2680,-2.6824,-0.4982,7.6641,-1.1826,4.5913,-10.5739
2685,-3.0656,-0.4215,7.5874,-0.1391,7.7913,-13.0087
2690,-3.1039,-0.3066,7.7407,1.3913,10.3652,-14.887
2695,-3.1806,-0.3066,7.6641,3.3391,11.6174,-16.1391
2700,-3.3722,-0.3832,7.4341,5.5652,11.2,-16.6957
2705,-3.5638,-0.3066,7.3958,7.5826,9.6696,-16.5565
2710,-3.7937,-0.3832,7.2809,9.7391,8.1391,-15.7217
2715,-4.062,-0.3449,7.1659,11.0609,6.887,-14.8174
2720,-4.1003,-0.2299,7.0509,11.687,5.6348,-13.7043
2725,-4.3685,-0.2682,7.0126,11.9652,4.7304,-12.4522
2730,-4.6751,0.0,7.1276,12.2435,3.4783,-10.9913
2735,-4.905,-0.0383,7.3575,12.0348,2.2957,-8.9739
2740,-5.1349,-0.115,7.3192,11.5478,0.9043,-6.8174
2745,-4.9816,-0.4215,7.2809,11.2,-0.4174,-4.8696
2750,-5.2116,-0.1916,7.3575,10.9913,-1.7391,-2.9217
2755,-5.4798,-0.4215,7.0509,10.2261,-3.1304,-1.1826
2760,-5.2882,-0.6514,7.2425,9.4609,-3.8261,0.1391
2765,-5.0966,-0.7281,7.3958,9.8087,-3.8261,0.9043
2770,-5.02,-0.843,7.3192,10.5739,-3.2696,1.0435
2775,-5.2882,-0.8814,7.0893,10.8522,-2.2957,0.9739
2780,-5.4415,-0.7664,7.1659,10.5043,-1.0435,0.6957
2785,-5.5948,-0.8047,7.0126,9.7391,0.4174,0.1391
2790,-5.7097,-1.0346,6.8593,8.8348,2.2261,-0.8348
2795,-5.5564,-1.073,6.9743,7.3739,4.4522,-1.6696
2800,-5.5564,-0.958,6.7444,5.287,6.6087,-2.6435
2805,-5.5948,-0.958,6.821,2.3652,8.487,-3.5478
2810,-5.6714,-0.8047,6.7444,-0.8348,10.0174,-4.2435
2815,-5.748,-0.7281,6.7444,-4.3826,11.1304,-4.6609
2820,-5.5564,-0.843,6.6677,-8.1391,11.5478,-4.8
2825,-5.5181,-0.9197,6.821,-11.7565,11.4087,-4.9391
2830,-5.4415,-0.9197,6.821,-14.887,10.8522,-4.8696
2835,-5.5181,-0.843,6.821,-17.6696,10.087,-4.7304
2840,-5.4415,-1.073,6.7444,-19.4783,9.113,-4.4522
2845,-5.3648,-1.2646,6.9743,-20.6609,8.4174,-4.0348
2850,-5.1349,-1.3029,6.8977,-20.8696,7.5826,-3.5478
2855,-5.02,-1.4562,7.0126,-20.2435,6.887,-3.1304
2860,-5.02,-1.5711,7.1659,-18.713,6.3304,-2.5739
2865,-4.9816,-1.6095,7.0893,-16.487,5.9826,-2.0174
2870,-4.8667,-1.7244,7.1659,-13.5652,5.5652,-1.5304
2875,-4.79,-1.7627,7.0509,-10.3652,5.4261,-1.0435
2880,-4.905,-1.8011,7.0509,-7.0957,5.1478,-0.487
2885,-4.905,-1.7627,6.7827,-3.9652,4.8,-0.0696
2890,-4.9433,-1.6478,6.8593,-1.2522,4.6609,0.5565
2895,-5.02,-1.6478,6.936,0.6261,4.4522,0.9043
2900,-5.02,-1.4945,7.0509,1.8783,4.1739,1.1826
2905,-5.2499,-1.5328,6.936,2.1565,3.8261,1.6
2910,-5.2499,-1.4945,6.7827,1.8087,3.3391,1.8783
2915,-5.3265,-1.4179,6.7444,0.9739,2.7826,2.087
2920,-5.2882,-1.3795,6.821,-0.3478,2.1565,2.4348
2925,-5.4415,-1.3029,7.0126,-1.8087,1.5304,2.6435
2930,-5.4032,-1.1879,6.8593,-3.4783,1.113,2.8522
2935,-5.4032,-1.3029,6.6677,-5.0087,0.6957,2.8522
2940,-5.4798,-1.3029,6.7827,-6.5391,0.2087,3.2
2945,-5.5564,-1.2263,6.8593,-7.9304,0.0,3.3391
2950,-5.4798,-1.1113,6.8593,-9.1826,-0.3478,3.5478
2955,-5.5948,-1.1879,6.8977,-10.087,-0.6261,3.687
2960,-5.5181,-1.2263,6.6294,-10.7826,-0.8348,3.8261
2965,-5.4798,-1.1879,6.7061,-11.2,-1.0435,4.0348
2970,-5.5948,-1.1496,6.7444,-11.4783,-1.2522,4.0348
2975,-5.4798,-1.1496,6.7827,-11.4087,-1.3913,4.1739
2980,-5.5181,-1.1496,6.821,-11.2696,-1.6696,4.313
2985,-5.5181,-1.0346,6.7444,-10.8522,-1.9478,4.2435
2990,-5.4415,-1.1879,6.7444,-10.2261,-2.2261,4.2435
2995,-5.4798,-0.9963,6.7827,-9.5304,-2.713,4.1043
