timestamp,accX,accY,accZ,gyroX,gyroY,gyroZ
0,0.958,-9.6567,-5.4415,-82.9217,7.0261,-4.0348
5,0.958,-9.8483,-5.5564,-83.3391,7.513,-4.313
10,0.9197,-9.6567,-5.5564,-83.8957,7.8609,-4.313
15,0.9963,-9.7334,-5.4415,-84.2435,8.3478,-4.3826
20,1.073,-9.8483,-5.3265,-84.6609,8.9043,-4.313
25,1.073,-9.7334,-5.4415,-85.3565,9.6,-4.4522
30,1.073,-9.7334,-5.3648,-85.8435,10.3652,-4.3826
35,0.9963,-9.6567,-5.3648,-86.7478,10.9913,-4.5217
40,1.1113,-9.7334,-5.3648,-87.513,11.687,-4.6609
45,0.9197,-9.7334,-5.5948,-88.4174,12.2435,-4.9391
50,0.958,-9.7717,-5.6714,-89.3217,12.9391,-5.2174
55,0.8047,-9.7717,-5.5564,-90.087,13.4957,-5.5652
60,0.7664,-9.7717,-5.8247,-90.7826,13.9826,-5.8435
65,0.7664,-9.7717,-5.748,-91.3391,14.5391,-6.0522
70,0.5748,-9.81,-6.0163,-92.0348,14.887,-6.1913
75,0.5365,-9.8483,-6.3229,-92.5913,14.8174,-6.2609
80,0.6131,-9.81,-6.2845,-93.4261,14.6087,-6.3304
85,0.4598,-9.925,-6.4378,-94.1217,14.1913,-6.4
90,0.4598,-9.925,-6.7061,-94.6783,13.7043,-6.2609
95,0.2682,-9.8483,-6.936,-95.0957,12.9391,-6.1217
100,0.3066,-9.8866,-7.2809,-95.2348,11.8261,-6.0522
105,0.3832,-9.7717,-7.4341,-95.6522,10.4348,-5.9826
110,0.4982,-9.7717,-7.8557,-95.9304,9.1826,-6.0522
115,0.3449,-9.7717,-8.0473,-96.0,8.2783,-6.6087
120,0.3449,-9.7334,-8.2389,-95.513,7.4435,-7.513
125,0.5365,-9.695,-8.4305,-94.6087,6.7478,-8.7652
130,0.9197,-9.4651,-8.7754,-93.913,6.1913,-9.9478
135,0.6898,-9.4651,-8.737,-93.1478,5.5652,-11.2696
140,0.7664,-9.3885,-9.0436,-92.3826,4.8,-12.3826
145,1.1113,-9.3885,-9.0053,-91.2696,3.9652,-13.0087
150,1.073,-9.1586,-9.1202,-89.3913,3.3391,-13.7043
155,1.0346,-9.2352,-9.2352,-87.3043,2.5043,-13.7043
160,1.4179,-9.1202,-9.3502,-85.0087,1.5304,-13.4261
165,1.3029,-9.0436,-9.4268,-82.087,0.5565,-13.1478
170,1.2646,-9.0053,-9.1586,-78.6783,-0.2087,-12.8696
175,1.4562,-9.0436,-9.1969,-74.3652,-1.113,-12.5217
180,1.4562,-9.1586,-9.1969,-69.4957,-1.5304,-12.1043
185,1.6095,-9.1586,-9.0819,-64.7652,-1.3913,-11.7565
190,1.4562,-8.9286,-9.2352,-59.7565,-0.9739,-11.5478
195,1.4945,-8.8137,-9.1202,-55.5826,-0.2783,-11.5478
200,1.1496,-8.8137,-8.852,-52.0348,0.6957,-11.687
205,1.2263,-8.5838,-8.967,-49.1826,1.8087,-11.7565
210,1.1113,-8.5838,-8.967,-47.6522,2.8522,-11.8957
215,0.9197,-8.4688,-9.0436,-46.887,3.8261,-12.1739
220,0.6898,-8.2389,-9.3118,-46.4696,4.313,-12.3826
225,0.4982,-8.2772,-9.2735,-46.7478,5.287,-12.7304
230,0.4982,-8.2005,-9.5034,-46.8174,6.0522,-13.0783
235,0.6514,-8.2389,-9.5034,-47.3043,6.887,-13.3565
240,0.4598,-8.0856,-9.5034,-47.9304,7.7217,-13.8435
245,0.2682,-8.0473,-9.4651,-48.2783,8.0,-14.4
250,0.3066,-8.1239,-9.5418,-48.6957,8.2783,-14.887
255,0.3066,-8.1622,-9.5801,-49.2522,8.4174,-15.3739
260,0.3066,-8.0473,-9.3885,-49.9478,8.8348,-15.5826
265,0.2682,-8.2005,-9.2735,-50.6435,9.0435,-15.7913
270,0.3832,-8.1239,-9.0053,-51.1304,9.113,-15.7217
275,0.3832,-8.0473,-9.0053,-51.6174,8.7652,-15.6522
280,0.3449,-8.2005,-8.737,-52.2435,8.2087,-15.5826
285,0.3832,-8.0089,-8.7754,-53.2174,7.3739,-15.4435
290,0.5365,-8.1622,-8.8903,-54.4696,6.4696,-14.9565
295,0.4598,-7.6641,-8.8137,-55.7913,5.6348,-14.1217
300,0.6898,-7.4341,-9.0053,-57.1826,4.8696,-13.2174
305,0.9197,-7.2809,-9.1969,-58.9217,4.2435,-12.0348
310,1.2263,-7.1659,-9.3118,-60.8696,3.4783,-10.8522
315,1.4562,-7.1276,-9.6567,-63.0261,2.8522,-9.6
320,1.5711,-7.1276,-9.81,-64.7652,2.2261,-8.2783
325,1.8011,-7.0893,-10.0782,-66.5739,1.6,-7.0261
330,1.8777,-7.0893,-10.0399,-68.5217,1.4609,-5.913
335,1.9927,-7.0893,-10.2315,-70.1217,1.2522,-4.7304
340,1.8777,-7.0509,-10.3465,-71.4435,1.3217,-3.5478
345,2.0693,-7.0509,-10.0399,-72.7652,1.5304,-2.3652
350,2.0693,-7.0509,-10.0016,-74.087,1.8783,-1.1826
355,1.9543,-6.9743,-9.8483,-75.5478,2.1565,-0.1391
360,1.7627,-6.936,-9.81,-76.9391,2.5043,0.6957
365,1.6861,-6.8977,-9.8483,-78.3304,2.9217,1.3913
370,1.4945,-6.821,-9.7717,-79.513,3.4087,1.5304
375,1.4179,-6.7444,-9.8483,-80.487,4.1739,1.3913
380,1.3029,-6.7827,-9.8483,-81.1826,4.9391,1.113
385,1.1879,-6.7827,-9.925,-81.6,5.7739,0.6261
390,1.1879,-6.6677,-9.925,-82.0174,6.4696,0.3478
395,1.1113,-6.7061,-10.0782,-82.1565,7.1652,-0.1391
400,1.2263,-6.7444,-9.8866,-82.2957,7.5826,-0.6261
405,0.843,-6.5528,-9.8866,-82.3652,7.9304,-1.0435
410,0.8814,-6.5911,-9.8483,-82.2261,8.1391,-1.4609
415,0.9197,-6.4378,-9.8483,-82.2261,8.1391,-1.8087
420,0.843,-6.3612,-9.7717,-82.087,7.9304,-2.2261
425,0.9963,-6.3612,-9.7717,-81.8783,7.6522,-2.5043
430,0.958,-6.3229,-9.695,-81.8783,7.3739,-2.713
435,1.1113,-6.2462,-9.5418,-81.4609,7.1652,-2.8522
440,0.9963,-6.2079,-9.5418,-81.1826,6.887,-3.0609
445,1.1496,-6.2079,-9.5801,-80.5565,6.7478,-3.1304
450,1.4179,-6.3995,-9.6184,-79.6522,6.887,-3.2
455,1.3412,-6.0546,-9.5801,-78.6087,6.887,-3.4087
460,1.3412,-6.0163,-9.6567,-77.2174,6.9565,-3.5478
465,1.5328,-6.0163,-9.6567,-75.6174,7.0261,-3.7565
470,1.5711,-6.0546,-9.6567,-73.7391,7.2348,-3.7565
475,1.6478,-5.9013,-9.695,-71.9304,7.4435,-3.7565
480,1.6095,-5.8247,-9.81,-70.1217,7.7217,-3.8957
485,1.7244,-5.6331,-9.6567,-68.3826,7.8609,-3.7565
490,1.7627,-5.3265,-9.695,-66.6435,8.0696,-3.6174
495,1.7244,-5.1732,-9.6184,-65.113,8.2783,-3.5478
500,1.6478,-5.0583,-9.4651,-63.6522,8.487,-3.3391
505,1.7627,-4.8284,-9.3885,-62.4696,8.6957,-3.0609
510,1.5711,-4.79,-9.6184,-61.3565,8.7652,-2.5739
515,1.5711,-4.7517,-9.6184,-59.9652,8.7652,-2.1565
520,1.4945,-4.5984,-9.5034,-58.7826,8.7652,-1.6696
525,1.4562,-4.4835,-9.6184,-57.6,8.6261,-1.1826
530,1.3795,-4.3302,-9.6184,-56.6261,8.5565,-0.6261
535,1.3029,-4.1769,-9.5418,-55.513,8.4174,-0.2783
540,1.3795,-4.1386,-9.5034,-54.4696,8.1391,0.0
545,1.3412,-4.2536,-9.5801,-53.4957,7.9304,0.2783
550,1.4179,-3.947,-9.6184,-52.7304,7.7217,0.3478
555,1.4179,-3.947,-9.5801,-51.8261,7.6522,0.487
560,1.4562,-3.6404,-9.5418,-50.8522,7.513,0.3478
565,1.6861,-3.7171,-9.4651,-49.8783,7.6522,0.2783
570,1.5711,-3.7554,-9.3502,-48.9043,7.7217,0.2783
575,1.6861,-3.6404,-9.4268,-48.0,7.8609,0.3478
580,1.7627,-3.4871,-9.4651,-47.1652,8.2783,0.2783
585,1.7244,-3.4105,-9.4651,-46.4696,8.6261,0.3478
590,1.7244,-3.2189,-9.4651,-45.7739,9.0435,0.3478
595,1.8394,-3.3339,-9.5801,-45.0783,9.4609,0.2783
600,1.8011,-3.1806,-9.4651,-44.313,9.7391,0.1391
605,1.8394,-2.989,-9.4651,-43.8261,10.2261,0.1391
610,1.8011,-3.0273,-9.3885,-43.7565,10.6435,0.2087
615,1.8777,-3.1423,-9.3885,-43.687,11.2,0.1391
620,1.7627,-3.0273,-9.4651,-43.4783,11.5478,0.0696
625,1.8394,-2.9123,-9.3885,-43.6174,11.8957,0.2087
630,1.7627,-2.8357,-9.4268,-43.9652,12.1739,0.3478
635,1.7627,-2.8357,-9.4268,-44.1043,12.1739,0.3478
640,1.7627,-2.874,-9.4651,-44.1739,12.1043,0.3478
645,1.7627,-2.8357,-9.5418,-43.8957,11.8957,0.4174
650,1.8394,-3.0656,-9.5418,-43.4087,11.3391,0.2087
655,1.6478,-3.0656,-9.5418,-42.713,10.713,0.0
660,1.6861,-3.0656,-9.4268,-42.087,10.0174,-0.0696
665,1.4945,-3.1806,-9.4651,-41.113,9.3217,-0.2783
670,1.916,-3.2189,-9.4651,-39.7217,8.6261,-0.6261
675,1.4562,-3.1039,-9.4268,-38.3304,7.9304,-1.0435
680,1.3412,-3.1423,-9.4268,-36.8696,7.4435,-1.4609
685,1.3412,-3.2189,-9.3502,-35.4783,6.8174,-1.8783
690,1.2263,-3.2955,-9.2735,-33.9478,6.2609,-2.2957
695,1.2263,-3.2189,-9.1969,-32.4174,5.5652,-2.9217
700,1.3029,-3.1806,-9.1586,-31.0261,4.9391,-3.2696
705,1.1496,-3.1039,-9.3502,-29.913,4.2435,-3.7565
710,1.1879,-3.2955,-9.3118,-29.1478,3.6174,-4.2435
715,0.9963,-3.1423,-9.1969,-28.4522,2.9913,-4.8696
720,1.1879,-3.4105,-9.1586,-27.6174,2.4348,-5.6348
725,1.073,-3.2189,-9.1586,-26.9913,1.8783,-6.1913
730,1.0346,-3.1039,-9.2352,-26.8522,1.2522,-6.6783
735,1.1113,-3.1039,-9.1202,-27.0609,0.6261,-7.0957
740,1.1496,-3.0273,-9.2352,-27.4087,-0.0696,-7.4435
745,1.1879,-2.9123,-9.1969,-28.0348,-0.7652,-7.7217
750,1.2646,-2.9507,-9.4651,-28.6609,-1.4609,-7.9304
755,1.4945,-2.9507,-9.2735,-29.2174,-2.087,-8.0696
760,1.4179,-2.8357,-9.3885,-29.8435,-2.713,-8.0
765,1.4945,-2.874,-9.5034,-30.4,-3.4783,-8.0
770,1.6478,-2.9123,-9.695,-30.9565,-4.0348,-8.0696
775,1.5711,-3.0656,-9.5418,-31.4435,-4.5913,-8.0696
780,1.5328,-2.7207,-9.5034,-31.7217,-4.9391,-7.9304
785,1.8011,-3.0273,-9.4651,-32.0696,-5.3565,-7.7913
790,1.8011,-2.989,-9.4268,-32.3478,-5.6348,-7.9304
795,1.7627,-2.989,-9.5418,-32.6261,-5.8435,-7.9304
800,1.9543,-2.9507,-9.4268,-32.8348,-6.0522,-8.0696
805,1.9927,-2.9123,-9.3885,-33.113,-6.4,-8.0
810,1.9543,-3.1039,-9.4651,-33.2522,-6.5391,-8.1391
815,1.8011,-3.0273,-9.695,-33.8783,-6.7478,-8.1391
820,1.8011,-3.0273,-9.3885,-34.4348,-6.9565,-8.1391
825,1.7627,-3.2572,-9.4651,-35.1304,-7.3043,-8.0
830,1.6095,-3.0273,-9.4651,-35.8957,-7.6522,-8.0696
835,1.6478,-3.2572,-9.7334,-36.8696,-8.0696,-8.0696
840,1.6095,-3.2955,-9.81,-37.7043,-8.487,-7.9304
845,1.7244,-3.3722,-9.81,-38.6783,-8.8348,-7.8609
850,1.6478,-3.4105,-9.8483,-39.3739,-9.2522,-7.7913
855,1.6861,-3.4488,-9.8483,-39.9304,-9.6696,-7.7913
860,1.7627,-3.4488,-9.8483,-40.487,-9.8783,-7.7913
865,1.6095,-3.4488,-10.0016,-41.0435,-10.087,-7.7913
870,1.6095,-3.4105,-9.925,-41.6,-10.3652,-7.7913
875,1.7244,-3.6404,-10.0782,-42.0174,-10.4348,-8.0
880,1.7627,-3.3722,-10.0016,-42.2261,-10.2261,-8.2087
885,1.6861,-3.5638,-10.3465,-42.4348,-10.087,-8.5565
890,1.916,-3.6021,-10.1166,-42.4348,-10.0174,-9.113
895,1.8394,-3.4488,-10.1932,-42.5043,-9.8087,-9.6
900,1.8777,-3.4871,-10.1932,-42.5043,-9.8087,-10.1565
905,1.9543,-3.4871,-10.1932,-42.3652,-9.6,-10.9217
910,1.8011,-3.4871,-10.1932,-42.2261,-9.5304,-11.7565
915,1.8011,-3.4871,-10.1549,-42.6435,-9.5304,-12.6609
920,1.5328,-3.4871,-10.1549,-43.2,-9.1826,-13.7043
925,1.6478,-3.3339,-10.0782,-44.313,-8.7652,-14.887
930,1.3795,-3.4105,-10.1932,-45.7043,-8.3478,-16.1391
935,1.3795,-3.3722,-10.1932,-47.3739,-8.0696,-17.3913
940,1.1496,-3.5255,-9.925,-49.4609,-7.7913,-18.7826
945,1.1879,-3.2955,-9.8866,-51.6174,-7.5826,-20.0348
950,0.9197,-3.2955,-9.8866,-53.7739,-7.5826,-21.3565
955,0.958,-3.2572,-9.7334,-56.0,-7.6522,-22.4696
960,0.9963,-3.4105,-9.7334,-58.1565,-7.8609,-23.5826
965,1.0346,-3.4871,-9.695,-60.5217,-8.3478,-24.6261
970,0.958,-3.4105,-9.7717,-62.5391,-8.7652,-25.4609
975,0.9963,-3.5638,-9.6184,-64.487,-9.6,-26.1565
980,1.0346,-3.6787,-9.6184,-66.5043,-10.5739,-26.8522
985,0.958,-3.6021,-9.4651,-68.4522,-11.7565,-27.687
990,1.1113,-3.6021,-9.5801,-70.4,-13.1478,-28.4522
995,1.0346,-3.832,-9.5801,-72.2783,-14.5391,-29.4261
1000,1.1113,-3.6787,-9.4268,-74.0174,-15.7913,-30.1217
1005,1.1113,-3.832,-9.6567,-75.687,-16.9043,-31.0261
1010,1.073,-3.832,-9.6184,-77.287,-17.6,-31.7913
1015,1.2263,-3.8704,-9.8483,-78.3304,-18.087,-32.2783
1020,1.1879,-3.7937,-9.695,-78.887,-18.3652,-32.6957
1025,1.2263,-3.7171,-9.7717,-79.2348,-18.6435,-32.7652
1030,1.1879,-3.5255,-9.81,-79.3739,-18.713,-32.6261
1035,1.3412,-3.7171,-9.5801,-79.513,-18.6435,-32.5565
1040,1.3795,-3.6404,-9.6567,-79.513,-18.6435,-32.487
1045,1.1496,-3.6021,-9.5418,-79.5826,-18.7826,-32.3478
1050,1.2263,-3.4488,-9.4651,-79.8609,-19.1304,-32.487
1055,1.2263,-3.3339,-9.5034,-80.6261,-19.687,-33.0435
1060,1.1879,-3.4105,-9.3502,-81.6696,-20.313,-33.7391
1065,1.2263,-3.4105,-9.3502,-82.4348,-21.0783,-34.6435
1070,1.1879,-3.3339,-9.0819,-83.1304,-21.913,-35.3391
1075,1.2263,-3.2572,-9.1969,-83.8261,-22.6087,-36.1043
1080,1.1113,-3.1039,-9.0053,-84.8696,-23.0957,-36.8696
1085,1.0346,-3.1806,-8.967,-86.4,-23.0957,-37.5652
1090,0.9197,-3.1806,-8.6987,-88.5565,-22.9565,-38.4696
1095,1.073,-3.2572,-8.7754,-90.9913,-22.6087,-39.4435
1100,0.9963,-3.2572,-8.4305,-93.7739,-22.1913,-40.487
1105,1.0346,-3.4871,-8.2772,-96.6957,-21.7043,-41.5304
1110,1.073,-3.5638,-8.0089,-99.4783,-21.1478,-42.5043
1115,1.0346,-3.7171,-7.9323,-102.2609,-20.5217,-43.3391
1120,1.073,-3.6787,-7.5874,-104.9043,-20.0348,-44.313
1125,1.0346,-3.6404,-7.4341,-107.1304,-19.5478,-45.1478
1130,1.0346,-3.7554,-7.1659,-108.4522,-19.5478,-45.913
1135,1.073,-3.832,-6.7061,-108.9391,-19.9652,-46.4
1140,0.9963,-4.0236,-6.0546,-108.7304,-21.3565,-46.9565
1145,0.843,-4.2536,-5.5564,-108.4522,-23.7217,-47.8609
1150,0.9963,-4.5601,-4.7134,-107.6174,-26.8522,-49.0435
1155,0.8047,-4.4835,-3.947,-106.0174,-31.3043,-49.9478
1160,0.6514,-4.3302,-3.5255,-103.9304,-36.5913,-50.2261
1165,0.6131,-4.4835,-2.7591,-101.7043,-42.5043,-50.5043
1170,0.5748,-4.7517,-2.5291,-98.7826,-48.6261,-50.6435
1175,0.6514,-5.1349,-2.5291,-94.887,-54.9565,-51.0609
1180,0.9197,-5.5181,-2.4525,-89.8087,-61.7739,-51.2
1185,1.0346,-5.7097,-2.7591,-82.5739,-69.8435,-50.6435
1190,0.9963,-5.7864,-2.989,-71.6522,-78.887,-49.5304
1195,0.4982,-6.0929,-2.9507,-57.4609,-89.3217,-48.487
1200,0.5748,-5.2882,-3.5255,-38.5391,-102.2609,-47.3739
1205,0.5748,-4.8667,-3.6787,-24.6261,-114.6435,-52.8696
1210,0.4215,-3.5638,-3.832,-7.1652,-121.3217,-52.313
1215,-0.3066,-2.031,-4.4452,8.3478,-126.2609,-48.2087
1220,-0.6514,-0.8047,-4.6368,16.0,-130.2261,-47.3043
1225,-0.9963,-0.0383,-4.9433,17.9478,-132.2435,-48.3478
1230,-1.3412,0.3066,-5.0966,17.3913,-131.7565,-50.9913
1235,-2.3759,0.1916,-4.9433,17.6696,-131.1304,-54.6783
1240,-2.2609,-0.6898,-4.7134,17.5304,-134.1217,-61.287
1245,-2.989,-1.916,-4.6368,25.1826,-135.7217,-66.5739
1250,-3.6404,-2.6058,-4.5218,42.3652,-139.4087,-69.913
1255,-4.3685,-2.4142,-5.4415,62.4696,-147.5478,-73.4609
1260,-4.5601,-1.4179,-6.6294,78.4,-157.5652,-77.5652
1265,-5.1349,-0.843,-7.3192,88.1391,-168.6261,-80.9739
1270,-5.1349,-0.1533,-7.9323,94.887,-180.8,-83.8261
1275,-5.5948,0.1533,-8.0856,99.0609,-192.0,-86.6087
1280,-5.9396,0.4598,-8.5838,103.0261,-202.7826,-89.3217
1285,-5.9396,0.6514,-9.1969,106.713,-212.8,-91.4783
1290,-6.0929,0.6898,-9.4268,109.7739,-221.7739,-92.7304
1295,-6.1696,0.6514,-9.5034,112.0696,-229.5652,-93.4957
1300,-5.748,0.6898,-9.2352,113.3913,-237.3565,-94.4696
1305,-5.5181,0.7281,-9.2735,114.4348,-245.1478,-94.3304
1310,-5.4415,1.1496,-9.2735,114.3652,-252.1043,-94.6087
1315,-5.1732,1.6478,-9.3502,113.3217,-257.8783,-94.3304
1320,-4.8667,2.4525,-9.0819,111.1652,-263.0957,-92.8696
1325,-4.2919,3.1039,-9.4268,107.8957,-267.2696,-91.1304
1330,-3.9853,3.6404,-9.81,102.5391,-269.913,-90.087
1335,-3.3722,3.9087,-9.8866,96.7652,-271.513,-88.9043
1340,-3.0273,4.2152,-10.0782,89.113,-272.0,-87.9304
1345,-2.4525,4.5601,-10.1932,81.4609,-271.0957,-88.3478
1350,-2.2609,4.5218,-10.4614,73.0435,-269.3565,-88.2783
1355,-2.1843,4.2919,-10.8446,64.2783,-266.8522,-88.3478
1360,-1.9927,4.2152,-10.6914,55.8609,-263.5826,-88.5565
1365,-1.4562,3.832,-10.9596,48.3478,-259.6174,-88.1391
1370,-1.4945,3.2572,-11.0746,41.8783,-255.3739,-87.513
1375,-1.3412,2.7207,-10.8446,36.3826,-251.3391,-87.0957
1380,-1.2263,2.3759,-10.8063,32.0,-248.0696,-87.5826
1385,-1.2263,1.9927,-10.653,28.313,-245.0087,-87.4435
1390,-1.916,1.3029,-10.8063,26.0174,-242.0174,-86.887
1395,-2.3375,0.843,-10.3465,25.1826,-239.3043,-85.7739
1400,-2.8357,0.6514,-10.1166,25.7391,-237.287,-84.1739
1405,-3.3722,0.6898,-9.925,26.3652,-235.8957,-81.113
1410,-4.1769,0.7281,-9.7717,26.1565,-234.1565,-78.4696
1415,-5.2499,0.6514,-9.6184,25.2522,-232.7652,-75.4783
1420,-6.2462,0.5748,-9.4651,23.9304,-232.2783,-71.3043
1425,-6.9743,1.0346,-9.7717,21.9826,-232.4174,-67.2696
1430,-7.6641,0.9197,-9.7717,18.2957,-233.2522,-63.6522
1435,-9.8866,0.8814,-9.6567,13.8435,-235.8957,-60.1043
1440,-11.9559,1.7244,-10.0399,9.3913,-241.1826,-55.4435
1445,-15.1748,2.4525,-10.2698,3.8957,-247.3043,-48.0696
1450,-18.547,4.2919,-11.3811,0.4174,-253.287,-35.6174
1455,-21.6893,5.5948,-13.3738,-1.8087,-257.5304,-16.5565
1460,-23.452,5.4032,-14.6,-8.0696,-260.7304,8.0696
1465,-24.4867,6.1313,-16.5927,-11.5478,-258.3652,32.9043
1470,-23.4904,6.7827,-18.0489,-18.3652,-251.687,61.4957
1475,-26.0578,6.0929,-17.2058,-33.9478,-243.3391,90.3652
1480,-27.7439,4.79,-16.5161,-47.1652,-240.6261,119.7217
1485,-28.7402,3.0656,-16.0179,-61.2174,-238.2609,147.8957
1490,-31.3077,3.1039,-16.4394,-67.5478,-237.6348,175.3043
1495,-39.4316,6.2079,-16.3628,-66.2261,-228.1043,202.7826
1500,-41.9991,5.4798,-15.0216,-73.4609,-241.113,239.6522
1505,-41.0794,5.2499,-14.9832,-70.1913,-243.5478,271.5826
1510,-34.6799,3.947,-13.6037,-56.8348,-225.3217,304.6261
1515,-28.3954,1.8011,-9.6184,-43.2696,-196.0348,321.9478
1520,-25.2914,0.4215,-6.936,-32.2783,-173.5652,325.6348
1525,-21.0762,0.1533,-5.9013,-25.1826,-160.3478,317.8435
1530,-19.505,2.1459,-5.4032,-20.313,-149.2174,310.887
1535,-16.2095,2.5291,-5.2882,-18.7826,-147.2,304.8348
1540,-14.0252,3.832,-5.2499,-18.5043,-146.2261,291.3391
1545,-9.1202,4.8667,-6.5145,-24.1391,-141.4261,279.0261
1550,-5.9013,3.7171,-5.0583,-44.313,-123.3391,264.2087
1555,-3.6021,2.2226,-3.4871,-74.0174,-91.4087,243.4087
1560,-0.0383,0.0,-1.9543,-102.6783,-51.687,219.8261
1565,1.3412,-2.2609,-1.2646,-128.2087,-5.913,191.7217
1570,0.8814,-6.1313,-0.1916,-143.4435,47.6522,173.4261
1575,-1.4945,-5.863,-1.1496,-131.8261,94.2609,162.0174
1580,-5.6714,-4.2152,-1.2646,-111.6522,119.3043,134.4
1585,-7.8173,-4.3685,-1.8011,-83.3391,132.8,115.1304
1590,-6.7827,-1.7627,-5.9396,-36.3826,127.9304,93.913
1595,-7.2042,1.9927,-6.936,2.2957,122.713,66.0174
1600,-10.4614,4.4068,-5.5181,20.1043,121.6696,44.3826
1605,-11.5727,6.4378,-4.5218,27.4783,118.887,28.6609
1610,-11.0746,7.3575,-3.7554,29.7043,119.9304,20.0348
1615,-10.883,7.4341,-2.4142,22.887,125.1478,10.5043
1620,-10.4614,7.0126,-1.916,14.6087,132.6609,0.6261
1625,-10.6914,6.6294,-1.5711,12.4522,141.4957,-9.0435
1630,-8.5454,6.2845,-2.6058,12.313,144.487,-17.7391
1635,-9.7717,4.7517,-2.989,8.6957,152.1391,-25.5304
1640,-10.1166,4.2536,-3.3339,11.7565,157.7043,-30.2609
1645,-9.7334,4.6368,-3.4488,23.0957,153.8783,-30.8174
1650,-8.8903,4.5601,-3.3339,28.4522,146.7826,-31.513
1655,-9.0436,4.0236,-3.3722,28.2435,141.6348,-32.6261
1660,-8.967,3.9087,-2.9507,27.8957,136.2783,-32.2783
1665,-8.8903,3.832,-2.4908,27.9652,129.8087,-31.9304
1670,-8.3155,3.832,-2.6824,28.9391,122.7826,-30.1913
1675,-7.5874,3.9087,-2.5291,29.6348,116.313,-29.9826
1680,-7.3958,3.947,-2.1459,28.8696,110.7478,-30.3304
1685,-7.6257,3.947,-1.7244,28.0348,105.1826,-31.0957
1690,-7.8173,4.2536,-1.4562,27.2696,98.6435,-32.2783
1695,-7.2425,4.4835,-1.6095,26.5043,90.9217,-32.487
1700,-6.8977,4.5218,-1.6861,24.2783,83.8957,-32.9739
1705,-6.821,4.8284,-1.4179,20.2435,77.1478,-33.6696
1710,-7.2042,4.6368,-0.9197,14.9565,70.3304,-34.1565
1715,-7.4341,4.5601,-0.6131,9.7391,63.3043,-33.9478
1720,-7.8557,3.9087,-0.115,6.6087,57.6,-32.5565
1725,-8.5071,3.9087,0.1916,7.3043,51.6174,-29.4261
1730,-8.6221,3.5638,0.5748,8.9043,44.2435,-25.6696
1735,-8.5071,3.2572,0.3449,9.8087,36.7304,-22.887
1740,-8.9286,3.4105,0.5365,9.8087,29.0783,-20.1043
1745,-8.967,3.4871,0.6131,8.6261,20.5217,-17.3217
1750,-8.6604,3.4488,0.4215,7.3043,11.2,-14.6087
1755,-6.4378,3.2572,-0.7664,5.7043,1.8087,-13.3565
1760,-5.1349,3.3339,-1.9543,-0.0696,-3.6174,-14.1913
1765,-4.79,3.6021,-2.5675,-8.2087,-3.7565,-15.9304
1770,-4.5218,3.947,-3.4105,-16.4174,-1.6,-17.3217
1775,-4.6751,3.9853,-3.7554,-24.6957,1.9478,-18.713
1780,-4.9433,4.0236,-4.1769,-33.2522,5.7739,-19.4783
1785,-5.4032,3.7171,-4.4068,-40.6261,7.8609,-20.313
1790,-5.5564,3.4871,-4.4452,-46.1217,8.5565,-21.0783
1795,-6.5911,3.0656,-4.6751,-49.2522,8.7652,-21.4261
1800,-7.1276,2.7974,-4.9433,-50.0174,7.7913,-21.3565
1805,-7.779,2.4908,-5.2116,-48.1391,7.4435,-20.5913
1810,-8.5071,2.4525,-5.978,-43.4783,7.4435,-20.5217
1815,-9.3118,2.4908,-6.4378,-37.3565,7.8609,-19.5478
1820,-10.0399,2.7207,-6.936,-31.1652,9.5304,-18.6435
1825,-10.653,3.0273,-7.3192,-24.9739,11.0609,-16.8348
1830,-11.2279,3.1423,-7.5874,-19.7565,11.7565,-14.6087
1835,-11.9176,3.8704,-7.779,-14.887,11.8261,-12.5217
1840,-12.1859,4.1003,-7.9706,-11.1304,10.713,-9.8783
1845,-12.1092,4.062,-8.1239,-8.9043,8.9043,-7.2348
1850,-12.2625,4.7134,-8.0473,-7.3739,6.887,-4.4522
1855,-11.9559,4.6368,-8.0473,-6.9565,4.8,-1.4609
1860,-11.726,4.6368,-7.6257,-6.2609,2.5739,0.9739
1865,-11.2279,4.5218,-7.3958,-5.4957,0.4174,3.0609
1870,-10.9596,4.6751,-7.1276,-5.1478,-1.6,4.8696
1875,-10.4998,4.5984,-6.5528,-4.7304,-3.8261,6.4696
1880,-10.3465,4.3685,-6.3612,-4.4522,-5.5652,7.3739
1885,-9.9633,4.3302,-6.2462,-4.2435,-6.887,8.2087
1890,-9.6184,4.1769,-5.7097,-3.9652,-7.7217,9.2522
1895,-9.0436,3.9853,-5.6331,-3.5478,-8.4174,10.1565
1900,-8.852,3.7171,-5.4415,-3.3391,-8.4174,10.9217
1905,-8.7754,3.6021,-5.1349,-2.9217,-8.2783,11.7565
1910,-8.3921,3.3339,-4.9816,-2.5043,-8.0696,12.5913
1915,-8.2772,3.2189,-4.9816,-1.7391,-7.5826,13.0783
1920,-8.2389,3.1806,-4.7517,-0.9043,-6.9565,13.5652
1925,-7.7407,2.9507,-4.7134,0.487,-6.4696,14.3304
1930,-7.7407,2.9123,-4.3685,0.9043,-5.913,14.4
1935,-7.7407,2.8357,-4.3302,1.6696,-5.1478,14.6783
1940,-7.7024,2.9507,-4.2536,2.6435,-4.313,14.9565
1945,-7.8173,2.989,-3.8704,3.7565,-3.687,15.3043
1950,-7.0126,3.1039,-4.2152,5.1478,-4.313,16.0
1955,-7.2809,3.0273,-4.0236,4.6609,-3.8261,15.7217
1960,-8.2772,3.2572,-3.947,4.1043,-2.6435,15.4435
1965,-7.2809,3.2572,-4.0236,4.8,-2.087,16.0
1970,-7.2809,3.3722,-3.947,4.6609,-1.8783,15.9304
1975,-7.4341,3.2189,-3.8704,3.8957,-1.1826,15.7217
1980,-7.3575,3.3339,-4.1386,3.687,-0.9739,15.5826
1985,-7.3575,3.2572,-4.1386,3.687,-0.2783,15.3043
1990,-7.4341,3.2572,-4.2536,3.8957,0.3478,15.0261
1995,-7.3958,3.2572,-4.2919,4.1739,0.6957,14.887
2000,-7.5491,3.3339,-4.5984,4.7304,0.8348,14.4696
2005,-7.5108,3.4105,-4.79,4.8,0.6957,13.8435
2010,-7.5491,3.2572,-4.8667,4.8,0.6957,13.287
2015,-7.7024,3.4105,-4.905,4.9391,0.2783,12.8
2020,-7.779,3.5255,-5.0583,5.3565,0.0696,12.313
2025,-7.9323,3.7171,-5.1732,5.5652,-0.3478,11.687
2030,-7.9323,3.7171,-5.4798,5.8435,-0.8348,11.1304
2035,-8.0856,3.7937,-5.5564,6.4696,-1.2522,10.5739
2040,-7.9706,3.8704,-5.6714,7.0261,-1.4609,10.087
2045,-8.0856,3.7937,-5.7097,7.3043,-1.8087,9.6696
2050,-8.0473,4.062,-5.4798,7.6522,-2.0174,9.3913
2055,-8.0089,3.8704,-5.7864,7.4435,-2.1565,8.487
2060,-8.1622,3.947,-5.7864,6.6087,-1.8783,7.7217
2065,-8.1622,3.947,-6.0163,5.2174,-1.2522,6.6087
2070,-8.1239,3.9853,-5.9013,3.8261,-0.5565,5.4261
2075,-8.1239,3.9087,-5.978,2.6435,0.2087,4.0348
2080,-8.1622,3.8704,-5.978,1.7391,0.9043,2.6435
2085,-8.1239,3.8704,-5.863,1.0435,1.5304,1.1826
2090,-8.1239,3.6787,-6.0546,0.2783,2.0174,-0.2087
2095,-8.0856,3.832,-5.978,-0.4174,2.7826,-1.6
2100,-8.0089,3.5638,-6.0163,-0.9739,3.6174,-2.7826
2105,-8.0473,3.6404,-5.9013,-1.5304,4.5913,-3.8957
2110,-8.0473,3.6404,-5.9013,-2.2957,5.5652,-5.0087
2115,-8.0856,3.2955,-6.0546,-2.9217,6.4,-6.0522
2120,-8.2772,3.4105,-5.9396,-3.4087,7.3739,-7.1652
2125,-7.894,3.2572,-5.863,-3.6174,7.7217,-8.0696
2130,-7.9323,3.0656,-5.9013,-4.1739,8.3478,-9.113
2135,-8.0856,2.9123,-6.1696,-4.5217,9.2522,-10.2261
2140,-8.2389,2.989,-5.9396,-4.5217,10.087,-10.8522
2145,-8.6221,2.989,-5.9013,-4.313,10.5739,-11.4783
2150,-8.0473,2.7974,-5.863,-3.8957,9.8783,-11.687
2155,-7.5874,2.4908,-6.2462,-4.313,9.3217,-12.2435
2160,-7.8557,2.6058,-6.3229,-4.9391,10.4348,-12.8696
2165,-7.9323,2.5291,-6.3229,-5.0783,11.4783,-13.0087
2170,-8.4688,2.4908,-5.9396,-4.7304,11.6174,-12.8696
2175,-7.8173,2.6058,-5.8247,-3.8261,10.087,-12.3826
2180,-7.5874,2.3759,-5.978,-3.9652,8.487,-12.2435
2185,-7.6257,2.3375,-6.2462,-4.7304,8.6261,-12.7304
2190,-7.6641,2.3375,-6.3229,-5.4957,9.113,-12.6609
2195,-8.0473,2.4142,-6.0929,-5.913,9.2522,-12.1043
2200,-7.894,2.3375,-5.9396,-5.3565,8.0,-11.4783
2205,-7.3575,2.031,-6.0929,-5.287,5.913,-10.9913
2210,-7.7024,1.9927,-6.3995,-5.8435,5.4261,-11.3391
2215,-7.8557,2.1459,-6.2079,-6.0522,5.3565,-11.4087
2220,-7.7407,2.1076,-6.2845,-5.9826,5.3565,-11.0609
2225,-7.8173,2.0693,-6.1313,-5.7739,4.9391,-10.6435
2230,-7.8557,2.1076,-6.0929,-5.287,4.1739,-10.1565
2235,-7.9706,2.031,-6.2462,-5.2174,3.6174,-9.6
2240,-7.9706,1.9543,-6.2462,-5.0783,3.0609,-9.0435
2245,-7.894,1.9543,-6.2845,-4.9391,2.5739,-8.6957
2250,-8.0089,1.9543,-6.3229,-4.6609,2.3652,-8.2783
2255,-8.0089,1.8394,-6.2079,-4.2435,2.087,-7.5826
2260,-7.9706,2.031,-6.2845,-3.7565,1.7391,-7.1652
2265,-8.0473,1.8011,-6.2462,-3.4087,1.4609,-6.5391
2270,-8.1622,1.8011,-6.2845,-2.9913,1.2522,-5.9826
2275,-8.0856,1.9543,-6.2845,-2.7826,0.9739,-5.4957
2280,-8.2005,2.0693,-6.1696,-2.4348,0.6957,-5.1478
2285,-8.1239,1.8777,-6.1313,-2.2261,0.4174,-4.8
2290,-8.1622,1.8777,-6.2845,-2.087,0.3478,-4.2435
2295,-8.1239,1.916,-6.2462,-1.8087,0.0696,-3.7565
2300,-8.3155,1.9543,-6.0929,-1.6,-0.1391,-3.2
2305,-8.2005,1.9927,-6.1696,-1.5304,-0.3478,-2.6435
2310,-8.1622,1.916,-6.0929,-1.2522,-0.4174,-2.2261
2315,-8.1622,1.8394,-6.0929,-0.9739,-0.487,-1.8783
2320,-8.2389,1.9543,-6.1696,-0.9739,-0.487,-1.4609
2325,-8.1239,1.8394,-6.2845,-0.9739,-0.4174,-1.1826
2330,-8.2005,1.9543,-5.9013,-0.9739,-0.3478,-0.8348
2335,-8.2005,1.7627,-6.2462,-0.9739,-0.4174,-0.487
2340,-8.2005,1.9927,-6.1313,-1.0435,-0.4174,-0.2087
2345,-8.3155,1.9543,-6.1696,-1.1826,-0.2783,0.0696
2350,-8.2389,2.1459,-6.1696,-1.3217,-0.2087,0.2783
2355,-8.1622,2.1459,-6.0163,-1.5304,-0.2783,0.5565
2360,-8.0856,2.031,-5.9396,-1.7391,-0.2087,0.9043
2365,-8.1239,2.0693,-6.0546,-1.9478,-0.1391,1.2522
2370,-8.0473,2.1076,-6.0546,-2.2957,-0.0696,1.4609
2375,-8.1239,2.1843,-6.0163,-2.5739,0.0696,1.6
2380,-8.2005,1.9927,-5.9396,-2.6435,0.1391,2.0174
2385,-7.9706,2.1459,-6.0546,-2.713,0.2783,2.2261
2390,-7.9706,2.1459,-5.9396,-2.9217,0.4174,2.3652
2395,-8.0089,2.1459,-6.0163,-2.9913,0.6261,2.713
2400,-7.9706,2.1459,-6.0163,-3.1304,0.8348,2.7826
2405,-7.9323,2.1843,-6.1313,-3.2696,0.9739,3.1304
2410,-8.0473,2.0693,-5.978,-3.4087,1.1826,3.2
2415,-7.894,2.2226,-6.0546,-3.5478,1.2522,3.3391
2420,-7.9323,2.1843,-5.978,-3.7565,1.3913,3.5478
2425,-7.8557,2.3375,-5.9013,-3.8261,1.6,3.6174
2430,-8.0089,2.1843,-5.978,-3.8261,1.8087,3.7565
2435,-7.9706,2.2992,-6.0929,-3.7565,1.9478,3.8261
2440,-7.9323,2.3375,-5.978,-3.687,2.2261,4.0348
2445,-8.0089,2.3759,-5.7864,-3.8261,2.4348,4.0348
2450,-7.894,2.2609,-5.9396,-3.687,2.5739,4.1043
2455,-7.9323,2.2992,-5.9396,-3.687,2.713,4.1739
2460,-8.0089,2.4142,-5.978,-3.7565,2.8522,4.2435
2465,-7.8173,2.2609,-6.0163,-3.5478,2.9913,4.313
2470,-8.0089,2.3759,-6.1313,-3.4783,3.2,4.2435
2475,-7.7407,2.4142,-5.9396,-3.4783,3.3391,4.1739
2480,-8.0089,2.3375,-5.9013,-3.5478,3.5478,4.1739
2485,-7.8173,2.4142,-6.0163,-3.4783,3.7565,4.0348
2490,-8.0089,2.4525,-5.9396,-3.5478,3.8957,3.8957
2495,-7.7024,2.7207,-6.1313,-3.7565,4.1043,3.687
2500,-7.6257,2.4142,-5.978,-3.7565,4.2435,3.5478
2505,-7.894,2.4525,-5.978,-3.8261,4.4522,3.4087
2510,-7.9323,2.4908,-5.978,-3.7565,4.5913,3.2
2515,-7.9706,2.5291,-5.863,-3.8261,4.7304,3.0609
2520,-7.9323,2.5291,-6.0546,-3.8261,4.9391,2.713
2525,-7.9706,2.5291,-6.0546,-3.7565,5.0087,2.6435
2530,-8.0089,2.5291,-5.9396,-3.7565,5.1478,2.2957
2535,-7.8557,2.4525,-6.0546,-3.687,5.287,2.1565
2540,-7.9706,2.5675,-6.1696,-3.8261,5.4957,1.8087
2545,-8.0089,2.4525,-6.0546,-3.6174,5.6348,1.5304
2550,-8.1239,2.7207,-6.0163,-3.5478,5.7739,1.1826
2555,-7.9706,2.4525,-6.0546,-3.4087,5.913,0.8348
2560,-7.9706,2.5291,-6.0163,-3.2,5.913,0.6261
2565,-8.0089,2.4142,-6.0546,-3.0609,6.0522,0.2783
2570,-8.0473,2.4525,-6.0546,-2.8522,6.1217,-0.0696
2575,-7.9323,2.4525,-6.2462,-2.6435,6.1217,-0.3478
2580,-7.894,2.4908,-6.0929,-2.5043,6.1217,-0.5565
2585,-7.9323,2.5291,-6.1696,-2.3652,6.0522,-0.7652
2590,-8.0089,2.4525,-6.0929,-2.2957,6.0522,-1.0435
2595,-7.894,2.4525,-5.978,-2.2261,6.1217,-1.3913
2600,-7.8173,2.4908,-6.2462,-2.1565,5.913,-1.6696
2605,-7.779,2.5291,-5.9013,-2.1565,5.8435,-1.8783
2610,-8.0856,2.6058,-6.1313,-2.2261,5.913,-2.087
2615,-7.894,2.4525,-6.1696,-2.3652,5.7043,-2.3652
2620,-7.9323,2.4142,-6.2845,-2.3652,5.7043,-2.5043
2625,-7.894,2.4142,-6.2079,-2.4348,5.4957,-2.713
2630,-7.779,2.3759,-6.1696,-2.2261,5.287,-2.9217
2635,-7.8173,2.4142,-6.1313,-2.1565,5.1478,-3.0609
2640,-7.894,2.3375,-6.4378,-2.1565,5.0087,-3.2
2645,-7.7407,2.3759,-6.2845,-2.1565,4.9391,-3.2
2650,-7.894,2.4142,-6.1696,-2.2261,4.8,-3.1304
2655,-7.8557,2.2609,-6.2462,-2.087,4.7304,-3.2696
2660,-8.0089,2.1843,-5.9396,-2.087,4.4522,-3.2696
2665,-7.894,2.2609,-6.2462,-2.087,4.313,-3.1304
2670,-7.8173,2.2609,-6.1696,-2.1565,4.0348,-3.0609
2675,-7.8557,2.2609,-6.3612,-1.9478,3.9652,-2.9913
2680,-7.8557,2.1843,-6.3612,-2.087,3.687,-2.8522
2685,-7.779,2.2226,-6.2845,-1.8783,3.5478,-2.6435
2690,-7.8557,2.2609,-6.2845,-1.8783,3.2696,-2.5043
2695,-7.8173,2.1459,-6.2462,-1.8087,3.0609,-2.3652
2700,-7.894,2.2226,-6.2462,-1.6696,2.8522,-2.2261
2705,-7.8173,2.2226,-6.1696,-1.5304,2.713,-2.0174
2710,-7.779,2.031,-6.1696,-1.6,2.5739,-1.6696
2715,-7.9323,2.5291,-6.3229,-1.6,2.4348,-1.4609
2720,-7.894,2.2992,-6.1313,-1.6696,2.1565,-1.1826
2725,-7.894,2.2609,-6.2462,-1.8087,2.0174,-1.0435
2730,-7.8173,2.1459,-6.0929,-1.8783,1.8783,-0.8348
2735,-7.8557,2.2226,-6.2079,-2.0174,1.6696,-0.487
2740,-7.8173,2.1459,-6.3995,-2.1565,1.6,-0.2783
2745,-7.894,2.1076,-6.2462,-2.2261,1.6,0.0
2750,-7.8173,2.2226,-6.2079,-2.2957,1.3913,0.2087
2755,-7.779,2.031,-6.2845,-2.5739,1.1826,0.4174
2760,-7.779,2.1843,-6.2845,-2.713,1.113,0.5565
2765,-7.8173,2.1076,-6.4761,-2.9217,0.9739,0.6957
2770,-7.8557,2.2609,-6.0163,-2.9913,0.7652,0.9739
2775,-7.9323,2.1459,-6.4378,-3.0609,0.6261,1.1826
2780,-7.9323,2.2992,-6.2845,-3.1304,0.6261,1.3913
2785,-7.894,2.2609,-6.3229,-3.3391,0.5565,1.5304
2790,-7.894,2.2609,-6.3229,-3.2696,0.4174,1.6696
2795,-7.9323,2.1843,-6.3612,-3.3391,0.3478,1.7391
2800,-7.9323,2.2992,-6.1696,-3.2,0.2087,1.8087
2805,-7.894,2.2992,-6.2462,-3.4087,0.1391,1.9478
2810,-8.0473,2.3375,-6.2079,-3.4087,-0.0696,2.1565
2815,-7.9706,2.2226,-6.2079,-3.3391,-0.2087,2.1565
2820,-8.0089,2.4525,-6.1696,-3.4783,-0.3478,2.2261
2825,-8.3538,2.3759,-6.2462,-3.3391,-0.3478,2.2261
2830,-7.894,2.3759,-6.2845,-3.3391,-0.487,2.1565
2835,-7.9706,2.2992,-6.1313,-3.3391,-0.5565,2.2957
2840,-7.894,2.4142,-6.2462,-3.3391,-0.6261,2.3652
2845,-7.9323,2.3759,-6.0929,-3.3391,-0.6261,2.3652
2850,-7.8557,2.3375,-6.1696,-3.2696,-0.6261,2.3652
2855,-7.8557,2.4142,-6.2845,-3.1304,-0.6261,2.4348
2860,-7.8557,2.3375,-6.0929,-3.2696,-0.487,2.4348
2865,-7.894,2.2609,-6.1696,-3.1304,-0.6261,2.2261
2870,-7.8173,2.3759,-6.0929,-2.9913,-0.6261,2.1565
2875,-7.8557,2.3759,-6.6294,-3.1304,-0.4174,2.087
2880,-7.779,2.4142,-6.0546,-3.1304,-0.2783,2.0174
2885,-7.8557,2.4142,-6.1313,-2.9913,-0.2783,1.9478
2890,-7.8173,2.4142,-6.0546,-3.0609,-0.2087,1.8087
2895,-7.9323,2.4142,-6.1696,-2.9913,-0.1391,1.7391
2900,-7.894,2.4142,-6.1313,-2.9217,0.0,1.7391
2905,-7.894,2.4142,-6.0546,-2.9913,0.1391,1.6
2910,-7.7407,2.3375,-6.0546,-2.9913,0.1391,1.4609
2915,-7.8173,2.4525,-6.1313,-2.9913,0.2087,1.2522
2920,-7.894,2.4142,-6.1313,-2.8522,0.1391,1.3217
2925,-7.894,2.4142,-6.0929,-2.9913,0.2087,1.1826
2930,-7.8173,2.4908,-6.0163,-2.9217,0.3478,1.113
2935,-7.9323,2.4525,-6.0546,-2.8522,0.4174,1.0435
2940,-7.9706,2.4525,-6.1313,-2.713,0.3478,0.9043
2945,-7.8557,2.4142,-6.2462,-2.9217,0.4174,0.7652
2950,-7.8173,2.4525,-5.978,-2.9217,0.5565,0.6957
2955,-7.894,2.4525,-6.1696,-2.9913,0.5565,0.5565
2960,-7.8173,2.4142,-6.0546,-3.0609,0.5565,0.3478
2965,-7.8557,2.3759,-6.1313,-3.0609,0.487,0.3478
2970,-7.894,2.4142,-6.1696,-3.2,0.5565,0.2783
2975,-7.9323,2.4525,-6.1696,-3.2,0.6261,0.2783
2980,-7.8557,2.4525,-6.3229,-3.2696,0.7652,0.1391
2985,-7.6641,2.6058,-6.2845,-3.2,0.8348,0.0
2990,-7.9323,2.4142,-6.1696,-3.2696,0.9043,-0.1391
2995,-7.894,2.4525,-6.0546,-3.2,0.8348,-0.1391
