timestamp,accX,accY,accZ,gyroX,gyroY,gyroZ
0,-0.3449,-6.7827,-2.3759,-9.8783,32.9739,44.5913
5,-0.5365,-6.8593,-2.4908,-11.3391,32.0,43.5478
10,-0.6131,-6.8977,-2.4908,-12.7304,31.513,41.4609
15,-0.7281,-6.6677,-2.0693,-13.7043,31.3043,39.3043
20,-0.5748,-7.1276,-2.2226,-13.913,31.4435,36.7304
25,-0.6131,-7.2425,-1.9543,-13.2174,31.5826,33.2522
30,-0.5365,-7.3192,-2.031,-12.3826,31.6522,29.4957
35,-0.6131,-7.5108,-1.9927,-11.4783,31.6522,26.3652
40,-0.843,-7.5491,-1.9927,-10.6435,31.5826,23.2348
45,-0.8047,-7.8557,-2.031,-9.6696,31.4435,20.7304
50,-0.843,-7.9706,-2.1076,-8.7652,31.2348,18.2957
55,-0.9197,-7.9323,-2.031,-8.0696,30.9565,16.487
60,-1.2646,-8.0089,-2.1076,-7.6522,30.6087,15.0261
65,-1.3029,-8.0473,-1.9927,-7.3739,30.1217,14.3304
70,-1.4945,-7.8557,-2.0693,-7.3739,29.4261,13.7043
75,-1.5711,-7.8173,-2.2992,-7.3043,28.5217,13.2174
80,-1.6478,-7.779,-2.2226,-7.3739,27.3391,12.3826
85,-1.5711,-7.6257,-2.2609,-7.5826,26.0174,11.3391
90,-1.6861,-7.6257,-2.1843,-7.7913,24.8348,9.9478
95,-1.5328,-7.6257,-2.2226,-7.8609,23.6522,8.3478
100,-1.5328,-7.3958,-2.2226,-7.7217,22.5391,6.4696
105,-1.4179,-7.6257,-2.1459,-7.2348,21.4261,4.5913
110,-1.2263,-7.5874,-2.031,-6.5391,20.2435,2.5739
115,-1.1879,-7.8173,-1.6478,-5.7043,19.2696,0.487
120,-1.073,-8.0473,-1.916,-4.8696,18.3652,-1.2522
125,-0.8814,-8.1239,-1.6478,-4.0348,18.0174,-2.6435
130,-0.8814,-8.2389,-1.7627,-3.6174,18.0174,-3.8957
135,-0.7664,-8.4305,-2.031,-3.7565,18.3652,-4.5217
140,-0.4982,-8.6221,-2.1843,-4.2435,18.9913,-4.7304
145,-0.4215,-8.6604,-2.2609,-5.0087,19.6174,-4.6609
150,-0.3066,-9.0436,-2.4525,-5.6348,20.4522,-4.2435
155,-0.2682,-9.2352,-2.4142,-5.7739,21.1478,-3.7565
160,-0.0766,-9.4651,-2.3759,-5.1478,21.8435,-2.9913
165,-0.1916,-9.6567,-2.3375,-3.687,22.887,-2.087
170,-0.1533,-9.9633,-2.0693,-1.9478,23.9304,-1.0435
175,0.0383,-10.2315,-2.0693,0.2783,25.1826,-0.0696
180,-0.4215,-10.1549,-2.031,2.4348,26.0174,0.6957
185,-0.5365,-10.3082,-1.8394,3.3391,26.4348,1.6
190,-0.9963,-10.2698,-1.916,3.5478,26.4348,2.5043
195,-1.2263,-10.3082,-1.7627,3.2,25.8087,3.3391
200,-1.5711,-10.3848,-1.7627,2.713,24.8348,4.0348
205,-1.5328,-10.5764,-1.6478,2.4348,24.0696,4.5217
210,-1.7627,-10.653,-1.6095,2.713,23.0957,4.6609
215,-1.8394,-10.8063,-1.2646,3.8261,22.1217,4.4522
220,-1.8394,-11.0746,-0.8814,5.9826,20.9391,4.1043
225,-1.8394,-11.2279,-0.8047,8.2783,20.1043,3.3391
230,-1.8777,-11.4195,-0.5748,10.2261,19.4087,2.713
235,-1.8011,-11.841,-0.3449,11.5478,19.1304,2.4348
240,-1.6478,-12.1859,-0.115,12.313,19.2,2.2261
245,-1.5711,-12.3391,0.0383,12.8,19.4783,1.9478
250,-1.4179,-12.3775,0.3832,13.4261,19.7565,1.8087
255,-1.3029,-12.3775,0.5748,14.4,19.6174,1.5304
260,-1.3029,-12.684,0.9197,15.7217,19.2696,1.5304
265,-1.1496,-12.3775,1.0346,17.6696,18.2957,1.3913
270,-1.2263,-12.3008,1.0346,19.6174,17.4609,1.3217
275,-1.0346,-12.0326,0.6898,21.0087,16.8348,1.2522
280,-0.9197,-11.7643,0.4982,21.9826,16.5565,1.1826
285,-0.2682,-11.4578,0.2682,22.8174,17.3217,1.113
290,0.0383,-11.1895,-0.115,23.513,19.5478,0.5565
295,0.4215,-10.653,-0.8047,24.2783,22.6783,-0.3478
300,0.958,-10.5764,-1.3412,24.7652,25.8087,-1.7391
305,1.1113,-10.2698,-2.031,24.6957,27.4087,-3.9652
310,0.958,-9.8866,-2.9507,24.2087,27.3391,-6.887
315,0.1916,-9.5801,-3.9853,23.0957,25.6,-9.6696
320,-0.6898,-9.4651,-4.905,22.2609,22.1217,-11.4087
325,-1.5711,-9.5418,-5.3648,20.8696,17.1826,-11.687
330,-2.6824,-9.7334,-6.4761,18.713,10.9217,-9.7391
335,-3.6021,-10.0782,-7.4341,15.0261,3.2,-6.1913
340,-4.5984,-10.7297,-7.779,9.9478,-5.7739,-1.7391
345,-5.4798,-11.1129,-8.8137,2.1565,-16.6261,4.0348
350,-6.0929,-11.3811,-9.5034,-8.0696,-28.8,10.6435
355,-6.4761,-11.8027,-10.1932,-20.2435,-41.7391,17.1826
360,-6.1696,-12.2242,-10.8446,-32.6957,-53.913,22.887
365,-5.2116,-12.6074,-11.1129,-43.3391,-63.5826,27.5478
370,-3.832,-13.0672,-11.0363,-49.8783,-70.1217,30.887
375,-2.8357,-13.4888,-11.0746,-50.5043,-73.6,31.7913
380,-1.073,-13.4504,-10.768,-46.7478,-74.1565,30.6087
385,0.3449,-12.8756,-10.5764,-40.8348,-72.6261,27.8957
390,1.916,-12.5691,-10.2315,-33.4609,-69.6348,23.6522
395,3.2189,-11.3045,-9.3118,-25.0435,-65.3217,17.9478
400,4.1386,-10.5381,-8.8137,-15.0261,-59.2696,11.5478
405,5.0583,-9.7717,-7.894,-4.2435,-52.1043,4.6609
410,5.6714,-9.1202,-7.3958,6.6087,-44.3826,-1.9478
415,5.748,-8.5071,-6.8977,16.0,-36.6609,-8.2087
420,5.5948,-8.2772,-6.6294,22.9565,-29.3565,-13.5652
425,5.2116,-8.0856,-6.2845,26.5739,-22.1913,-17.9478
430,4.3302,-7.9706,-6.3612,27.4087,-15.6522,-21.3565
435,3.4871,-7.9323,-6.3229,25.8087,-9.7391,-24.0
440,2.3759,-8.0089,-5.978,22.4696,-4.7304,-26.0174
445,1.4562,-7.8173,-5.863,18.6435,-0.9739,-27.6174
450,0.5365,-7.5874,-5.7864,14.6783,1.6,-28.5217
455,-0.3066,-7.6257,-5.6331,11.1304,3.1304,-29.0087
460,-1.0346,-7.4341,-5.2499,8.6957,3.4087,-29.287
465,-1.7244,-7.5108,-5.2499,6.9565,2.7826,-28.8696
470,-2.1843,-7.6257,-5.1349,5.287,1.3913,-28.1043
475,-2.2609,-7.7407,-4.9433,3.687,-0.9739,-27.1304
480,-2.2992,-7.8557,-4.7134,1.7391,-4.1739,-26.4348
485,-2.031,-7.9706,-4.6368,-0.2087,-7.3043,-26.0174
490,-1.6861,-8.1239,-4.2919,-1.3913,-10.087,-26.0174
495,-1.073,-8.0856,-4.1003,-2.2261,-12.313,-26.2957
500,-0.7664,-8.0089,-4.0236,-3.1304,-13.8435,-26.9217
505,-0.4215,-7.7407,-3.6787,-3.5478,-14.5391,-27.3391
510,-0.1533,-7.3958,-3.5255,-3.3391,-14.6783,-27.9652
515,0.3832,-7.1659,-3.4105,-2.5043,-14.1217,-28.3826
520,0.8814,-7.0126,-3.2572,-1.2522,-13.0087,-28.7304
525,1.073,-6.7444,-3.2189,0.0696,-11.687,-29.1478
530,1.073,-6.4761,-3.1806,1.1826,-10.0174,-29.6348
535,1.073,-6.5145,-3.0656,1.9478,-8.0696,-30.0522
540,1.1113,-6.6294,-3.0273,2.5043,-6.3304,-30.3304
545,1.073,-6.5528,-2.989,2.713,-4.5913,-30.4
550,1.2646,-6.1313,-3.1806,2.6435,-3.4783,-30.6087
555,0.9197,-6.5911,-3.0273,1.8783,-2.713,-30.887
560,0.6514,-6.4378,-3.0656,0.6957,-2.1565,-30.887
565,0.4598,-6.4378,-3.1039,-0.7652,-1.4609,-30.7478
570,0.5365,-6.5911,-3.0656,-2.3652,-0.9043,-30.2609
575,0.2682,-6.5911,-3.2189,-4.1739,0.0,-30.4696
580,0.1916,-6.4378,-3.5255,-5.9826,1.113,-30.8174
585,0.3832,-6.5528,-3.6787,-8.4174,1.5304,-29.6348
590,0.5748,-6.6294,-3.7171,-12.1043,1.2522,-26.2957
595,0.5748,-6.7827,-3.6021,-15.3739,0.6261,-23.2348
600,0.4215,-6.6677,-3.7937,-17.3913,-0.1391,-21.4261
605,0.3449,-6.6294,-3.4105,-18.9913,-1.3217,-20.3826
610,0.6514,-7.0893,-3.4488,-20.5217,-2.3652,-19.4783
615,0.4598,-7.0509,-3.3722,-21.4261,-3.4783,-18.9913
620,0.3832,-7.0893,-3.5255,-22.0522,-4.1739,-18.8522
625,0.4598,-7.0893,-3.6021,-22.3304,-4.7304,-18.9217
630,0.4598,-7.2809,-3.5255,-22.5391,-5.0087,-19.3391
635,0.3066,-6.7444,-3.832,-22.5391,-5.3565,-20.0348
640,0.2682,-6.6294,-3.8704,-22.1217,-5.7739,-20.5913
645,0.3066,-6.4378,-3.832,-21.287,-6.2609,-21.0087
650,0.3832,-6.4761,-3.947,-20.1043,-6.8174,-21.2174
655,0.5365,-6.3229,-4.0236,-18.0174,-7.2348,-21.2174
660,0.3832,-6.5145,-3.947,-15.8609,-7.513,-20.9391
665,0.7281,-6.7444,-3.9853,-13.4957,-7.4435,-20.313
670,0.7281,-6.8593,-3.7171,-11.5478,-6.887,-19.4783
675,0.9197,-7.2425,-3.6404,-10.2261,-6.1217,-18.8522
680,1.1879,-7.3575,-3.4871,-9.6,-5.2174,-18.2957
685,1.3029,-7.6641,-3.5255,-9.8783,-4.6609,-17.9478
690,1.4562,-7.894,-3.4488,-11.0609,-4.2435,-17.8087
695,1.3412,-8.0473,-3.4871,-12.8,-3.8261,-17.4609
700,1.1879,-8.1622,-3.6787,-14.4696,-3.5478,-16.9739
705,0.9963,-8.1239,-3.6404,-16.0696,-3.2,-16.2783
710,0.958,-8.1622,-3.4871,-17.5304,-2.6435,-15.513
715,0.8047,-8.2389,-3.4105,-18.3652,-2.087,-14.4
720,0.7281,-8.3921,-3.0656,-18.5043,-1.6696,-13.4261
725,0.7281,-8.5454,-2.6058,-17.8087,-1.5304,-12.5913
730,0.3832,-8.3538,-2.3759,-16.3478,-1.6,-12.2435
735,0.3449,-8.3921,-2.0693,-14.7478,-2.3652,-11.6174
740,0.4215,-8.3921,-1.9543,-13.2174,-3.5478,-11.3391
745,0.3449,-8.1239,-2.031,-12.4522,-5.1478,-11.1304
750,0.2299,-8.0473,-2.2226,-12.3826,-6.8174,-11.4087
755,-0.0766,-7.779,-2.1076,-12.6609,-8.487,-11.5478
760,-0.2299,-7.7024,-1.9927,-12.6609,-10.5739,-11.1304
765,-0.4598,-7.8557,-1.8777,-11.4087,-12.5913,-11.2696
770,-0.5365,-8.1622,-1.9927,-9.1826,-14.4,-11.4087
775,-0.5748,-8.3538,-1.5328,-6.4,-16.0696,-11.2
780,-0.5365,-8.5838,-1.1879,-3.4087,-17.6696,-11.6174
785,-0.2299,-8.8903,-1.1113,-1.0435,-18.9913,-11.0609
790,-0.0383,-9.2352,-0.8814,1.7391,-20.0348,-9.8087
795,0.1533,-9.5418,-0.8814,4.3826,-20.9391,-9.1826
800,0.3832,-9.8483,-1.1496,6.6087,-21.6348,-9.2522
805,0.4215,-10.0782,-0.958,7.7217,-22.1217,-9.5304
810,0.6131,-10.2698,-0.9197,7.9304,-22.887,-10.1565
815,0.6514,-10.3082,-1.2263,7.6522,-23.8609,-10.9913
820,0.5748,-10.4231,-1.2263,7.0261,-25.0435,-12.1739
825,0.5748,-10.1549,-1.4945,6.0522,-26.2261,-13.287
830,0.9197,-10.0782,-1.6478,4.7304,-27.2,-14.4696
835,0.9963,-9.8483,-1.8777,3.0609,-28.1043,-15.3043
840,0.9197,-9.5418,-2.4142,1.113,-29.6348,-16.1391
845,1.1113,-9.5034,-2.6058,-1.4609,-32.2087,-16.5565
850,0.9963,-9.1969,-2.7974,-4.7304,-35.9652,-16.4174
855,0.958,-9.1586,-2.7591,-8.487,-40.6957,-16.8348
860,0.5365,-9.1969,-2.7591,-12.5217,-45.8435,-17.3217
865,0.0,-9.4268,-2.7591,-16.3478,-50.7826,-17.9478
870,-0.0383,-9.5034,-2.7591,-19.2,-55.2348,-18.5739
875,-0.1916,-9.5418,-2.989,-20.9391,-58.4348,-19.0609
880,-0.3449,-9.4268,-3.3722,-21.7739,-60.1043,-19.2
885,-0.3066,-9.3118,-3.7937,-21.8435,-60.2435,-19.2696
890,-0.5365,-9.1202,-3.832,-21.1478,-59.4087,-18.9217
895,-0.2682,-9.0053,-4.0236,-20.0348,-57.9478,-18.2261
900,-0.0766,-8.737,-4.4835,-18.7826,-56.2087,-17.5304
905,0.6514,-8.6987,-4.9433,-18.2957,-53.5652,-16.6261
910,1.2646,-8.2772,-5.4798,-18.9217,-50.3652,-15.8609
915,1.7244,-8.0473,-5.7097,-20.9391,-46.6087,-14.7478
920,2.1459,-7.6641,-6.2462,-24.0696,-42.3652,-13.3565
925,2.6441,-7.3958,-6.8977,-28.1043,-37.5652,-11.4783
930,2.9123,-7.3958,-7.0893,-32.6261,-32.7652,-9.4609
935,3.0273,-7.3958,-7.0509,-37.6348,-28.1739,-8.2087
940,3.1806,-7.5108,-6.8977,-42.2261,-23.2348,-7.5826
945,3.3339,-8.0089,-6.5911,-46.4,-17.9478,-8.0696
950,3.2572,-8.3921,-6.3229,-50.4348,-12.0348,-9.5304
955,3.3722,-9.0053,-6.1313,-53.9826,-5.5652,-10.8522
960,2.9123,-9.0819,-6.2462,-57.3217,0.9739,-12.313
965,2.6441,-8.8903,-6.1696,-60.8,7.3739,-13.7739
970,1.8777,-9.0819,-5.9396,-65.3217,14.5391,-14.1217
975,1.3795,-8.8137,-6.2079,-67.687,20.5913,-12.5217
980,0.5748,-8.3155,-6.1313,-69.0783,25.7391,-10.1565
985,-0.0766,-7.9323,-6.0929,-70.5391,31.2348,-5.9826
990,-0.2682,-7.5108,-5.9396,-70.8174,36.2435,-0.5565
995,-0.5365,-7.0509,-5.8247,-70.0522,40.2783,5.4957
1000,-0.3449,-6.7827,-5.748,-68.313,43.6174,11.3391
1005,-0.115,-6.4761,-5.7097,-66.087,46.1913,16.9043
1010,0.3832,-6.3995,-5.7864,-63.4435,48.2087,21.6348
1015,0.5748,-6.2845,-5.748,-61.2174,49.6,25.3217
1020,1.0346,-6.2079,-5.7864,-59.5478,50.7826,28.1043
1025,1.2646,-6.0929,-5.6331,-58.6435,52.1739,29.9826
1030,1.6478,-6.3612,-5.4415,-58.3652,53.913,31.0957
1035,1.8777,-6.6677,-5.2116,-58.3652,56.1391,31.3739
1040,2.031,-7.2809,-4.8667,-58.713,58.7826,30.6783
1045,1.9543,-7.5491,-4.5601,-58.8522,61.913,29.5652
1050,2.1076,-7.8173,-4.1003,-58.8522,65.7391,28.1739
1055,2.031,-7.9706,-3.947,-58.9217,70.4,26.713
1060,2.031,-7.9323,-3.8704,-59.1304,75.2696,25.1826
1065,1.8011,-7.8557,-3.9853,-58.7826,80.2783,23.7217
1070,1.4562,-7.5108,-4.0236,-57.4609,84.9391,22.6087
1075,1.3795,-7.3958,-4.062,-55.2348,89.7391,21.9826
1080,1.2646,-7.2809,-4.1003,-52.0348,94.4,21.5652
1085,1.1879,-7.3575,-4.062,-48.6261,98.4348,20.8696
1090,0.9963,-7.3958,-3.832,-44.9391,101.5652,20.1739
1095,1.0346,-7.2425,-3.7171,-41.1826,104.0696,19.4783
1100,0.9197,-7.3958,-3.2955,-37.2174,105.6696,19.0609
1105,0.8047,-7.3958,-3.0273,-32.487,107.1304,18.9217
1110,0.6514,-7.3958,-2.874,-27.8957,108.4522,18.7826
1115,0.3449,-7.3575,-2.874,-24.3478,109.3565,18.5043
1120,-0.3449,-7.2425,-2.6058,-21.6348,109.5652,18.3652
1125,-1.0346,-6.9743,-2.1843,-19.4087,108.8696,18.3652
1130,-1.4945,-6.3995,-1.916,-17.6,107.2696,18.2261
1135,-2.1459,-6.5911,-1.1113,-17.4609,106.3652,17.8783
1140,-2.1459,-6.3995,-0.843,-12.7304,102.8174,18.9217
1145,-2.2226,-6.1696,-0.1916,-6.9565,97.8087,18.5043
1150,-2.1076,-6.1313,0.5748,-0.6261,90.2957,17.3913
1155,-2.031,-6.2462,1.6478,6.2609,80.2783,16.2087
1160,-2.1076,-6.2462,2.1459,13.8435,68.7304,15.4435
1165,-2.4142,-6.2845,2.8357,22.2609,56.2783,14.4
1170,-2.7207,-6.2079,3.3339,30.4696,44.3826,13.4957
1175,-3.3722,-6.1313,3.6021,37.913,32.9043,12.3826
1180,-4.2152,-5.7864,3.6787,44.5217,21.8435,11.4783
1185,-4.7134,-5.4798,3.5638,50.1565,10.9913,10.5739
1190,-5.3648,-5.02,3.3722,55.3043,0.5565,9.6
1195,-5.978,-4.4452,2.989,59.687,-9.5304,9.0435
1200,-6.0929,-3.7554,2.7591,63.8609,-18.9913,8.9043
1205,-6.0546,-3.4105,2.5291,67.687,-28.4522,9.113
1210,-5.4415,-2.8357,2.2609,70.5391,-37.287,10.1565
1215,-4.5218,-2.031,1.9927,69.9826,-44.9391,11.8261
1220,-3.3339,-0.7664,1.6478,62.2609,-51.7565,13.5652
1225,-2.4908,0.6131,0.4215,47.4435,-59.3391,14.8174
1230,-1.2263,2.2609,-3.7171,30.6087,-66.6435,16.7652
1235,0.0383,4.5984,-7.5108,12.2435,-70.1913,19.0609
1240,0.9197,6.0546,-10.4614,-2.7826,-67.9652,17.7391
1245,1.3029,7.1659,-10.2315,-17.3913,-61.7043,16.3478
1250,2.0693,7.8173,-7.0126,-28.8696,-54.6783,16.0
1255,2.6058,6.6294,-5.7097,-25.6,-52.5217,15.0957
1260,3.7171,6.9743,-3.1039,-25.5304,-51.687,12.5217
1265,3.6404,4.5984,-3.3339,-23.4435,-50.2957,8.7652
1270,3.1806,0.4215,-2.1459,-27.4783,-45.6348,6.8174
1275,3.1039,-1.9543,-2.6058,-28.0348,-37.3565,6.6783
1280,3.2955,-2.3759,-3.2955,-26.713,-26.2957,5.287
1285,3.9853,-2.2226,-3.832,-29.9826,-14.0522,3.0609
1290,4.7517,-1.6095,-4.905,-38.2609,-1.3913,1.2522
1295,5.4798,-0.9197,-5.863,-50.7826,10.3652,-0.487
1300,6.0163,-0.4598,-6.6294,-64.0,18.5739,-2.9913
1305,6.2462,-0.4215,-7.1276,-76.6609,22.2609,-6.8174
1310,5.3265,-0.0383,-6.2462,-86.7478,22.1217,-10.713
1315,3.6021,-0.3832,-5.3648,-92.3826,21.0783,-13.4261
1320,1.8011,-0.8047,-4.1769,-92.5913,23.1652,-13.6348
1325,0.115,-1.2263,-2.9507,-88.4174,29.287,-11.5478
1330,-0.8814,-1.5711,-2.5675,-81.9478,38.7478,-8.0
1335,-2.1843,-1.916,-2.1843,-74.7826,48.6261,-3.2696
1340,-3.0273,-2.3375,-1.7244,-67.8957,57.3217,2.5043
1345,-3.5638,-2.6058,-1.6478,-62.5391,63.7913,8.8348
1350,-3.947,-2.6058,-1.6861,-59.8261,68.3826,15.7913
1355,-3.7937,-2.7591,-1.8394,-60.8,70.9565,22.4
1360,-3.2189,-2.7207,-1.8777,-64.9043,71.0957,27.6174
1365,-2.989,-2.2226,-1.9543,-70.5391,68.5913,30.8174
1370,-2.1843,-1.9927,-2.0693,-76.313,63.4435,31.3739
1375,-1.3412,-1.1879,-2.1843,-81.5304,56.4174,29.9826
1380,-0.3449,-0.6514,-1.5328,-86.887,50.2261,26.9217
1385,0.6131,-0.4598,-0.3066,-89.7391,46.6087,22.887
1390,1.3795,-0.0383,-0.6131,-90.3652,44.2435,18.4348
1395,1.916,0.0,-1.5328,-92.1043,41.1826,14.887
1400,2.1843,-0.1533,-1.4179,-95.6522,39.513,12.7304
1405,2.1843,-0.6131,-0.6131,-96.9043,40.9043,11.2696
1410,2.3759,-1.2263,-0.115,-95.3739,43.2,9.9478
1415,3.5255,-1.5711,0.3066,-95.5826,44.7304,7.5826
1420,4.6751,-1.916,0.7281,-97.8087,44.7304,3.2696
1425,5.2116,-1.5711,-0.7281,-101.6348,40.4174,-4.6609
1430,4.8284,-0.4215,-3.7937,-111.3739,28.313,-16.1391
1435,2.2992,1.916,-7.3192,-129.0435,10.7826,-29.1478
1440,-3.2189,3.7171,-9.1202,-151.1652,-4.3826,-42.0174
1445,-10.3848,4.8284,-11.0746,-171.1304,-17.3913,-52.3826
1450,-15.9796,4.4452,-13.757,-185.7391,-32.2783,-58.2957
1455,-17.7806,3.7937,-15.0599,-198.2609,-50.0174,-59.6174
1460,-16.2095,3.7171,-16.4011,-208.9739,-65.5304,-57.5304
1465,-9.9633,5.5181,-17.6657,-220.1043,-73.3217,-54.4
1470,-2.4908,7.5108,-18.2788,-238.2609,-72.4174,-51.4087
1475,4.1003,9.5801,-18.1638,-256.1391,-68.2435,-46.9565
1480,8.3921,11.1129,-19.1218,-266.5043,-68.6609,-43.4087
1485,12.8756,13.5271,-21.8426,-274.5043,-72.0696,-44.4522
1490,16.8226,14.3701,-26.5177,-282.5739,-68.5217,-48.7652
1495,19.5817,15.788,-25.6746,-301.1478,-54.887,-54.4696
1500,89.4779,-102.2003,-73.7666,-513.8087,-143.1652,-57.8087
1505,-32.304,22.8772,-23.2221,-1306.1565,-378.4348,25.113
1510,13.7187,44.8731,-8.5838,-1084.4522,-220.7304,13.0087
1515,7.8173,3.5638,6.9743,-477.0783,-3.3391,-32.487
1520,3.6787,-5.7864,-12.9139,-256.0,35.6174,-31.4435
1525,0.3832,1.7627,-31.1927,-251.3391,11.8261,-21.287
1530,-1.0346,0.9963,-43.6852,-249.6696,26.2957,-13.8435
1535,2.3375,-16.4777,-56.0626,-202.9913,19.9652,0.0696
1540,10.6147,3.4105,-5.5564,-143.9304,28.8,-5.7739
1545,1.0346,5.1732,-29.7366,-166.8174,-10.5043,-8.487
1550,-20.9995,-7.0509,-61.3508,-131.3391,-39.513,-4.8
1555,-4.905,-5.4798,-52.5755,-40.487,8.8348,-0.6957
1560,11.6494,18.2788,-19.3901,-48.2087,0.3478,-7.5826
1565,-1.1879,22.7239,-23.7586,-178.2261,-34.7826,-7.8609
1570,6.1696,3.6404,-30.2347,-255.9304,-37.4957,-3.0609
1575,2.2609,-4.1003,-36.9791,-269.9826,-66.6435,-4.0348
1580,-2.1459,-9.3502,-39.1634,-241.6696,-88.0,-3.8261
1585,4.7517,-12.2625,-32.5723,-205.6348,-92.8696,-4.7304
1590,7.1659,-7.9323,-29.7366,-191.6522,-88.1391,-2.7826
1595,4.5601,-0.5365,-24.7166,-191.7913,-77.5652,0.9739
1600,4.8667,2.9123,-26.2494,-179.687,-69.8435,5.3565
1605,2.8357,3.1806,-26.0578,-165.0087,-51.9652,6.8174
1610,3.0656,1.1879,-23.9502,-159.8609,-36.2435,7.3043
1615,-0.5748,1.4945,-20.7696,-178.6435,-30.9565,7.9304
1620,-1.9543,0.5365,-21.0762,-200.6261,-29.1478,6.5391
1625,-1.3795,-0.4982,-18.3938,-220.4522,-28.3826,4.0348
1630,-2.6441,-4.4452,-17.0525,-235.8261,-30.6783,1.8783
1635,-0.7664,0.7281,-13.3738,-261.1478,-27.2696,-7.3043
1640,-3.6021,-10.7297,-12.3775,-261.0087,-22.4696,-8.6261
1645,0.7281,-6.7444,-14.2168,-234.9913,-25.3217,6.5391
1650,1.3029,-7.2809,-11.3045,-200.9739,-25.2522,16.4174
1655,-0.6514,-12.3008,-11.5344,-159.3739,-23.0957,22.3304
1660,4.0236,-17.7806,-6.7061,-115.9652,-13.9826,15.7217
1665,1.7627,-1.9927,-9.1969,-59.6174,-8.9043,-1.7391
1670,1.0346,-0.6131,-6.2462,-34.2957,-19.1304,0.5565
1675,2.6441,1.1879,-5.3265,-26.713,-26.6435,3.7565
1680,1.7627,3.947,-4.9816,-39.0957,-25.4609,-0.9739
1685,2.3759,-2.7207,-2.031,-55.3739,-28.313,-4.2435
1690,3.0656,-6.7827,-4.0236,-67.0609,-35.1304,-5.5652
1695,4.1386,-5.9013,-4.2152,-91.4087,-35.6174,-9.2522
1700,4.3685,4.1769,-5.8247,-138.2957,-31.7913,-8.6957
1705,1.6478,7.1276,-4.1769,-205.0087,-26.5043,-3.1304
1710,2.6058,7.1659,-7.2042,-251.6174,-21.7043,-2.3652
1715,2.6441,7.9706,-6.2845,-306.1565,-15.1652,-11.3391
1720,1.2646,9.3502,-3.5255,-352.5565,-14.3304,-16.2783
1725,-0.958,11.2279,-2.031,-372.2435,-9.113,4.5913
1730,1.8777,10.3848,-1.1113,-368.2087,-0.3478,22.887
1735,0.3066,15.1365,-3.832,-339.2,14.9565,29.287
1740,1.2263,16.746,-5.5564,-313.8087,24.6261,42.1565
1745,-0.5365,18.1638,-5.7097,-278.1913,27.6174,39.8609
1750,0.3832,14.1019,-7.2425,-232.2783,26.6435,46.6087
1755,0.4982,10.653,-7.1659,-185.4609,32.6957,50.7826
1760,2.2609,3.8704,-5.863,-151.9304,39.3739,58.5739
1765,3.7937,-0.6898,-3.9087,-125.2174,48.2783,51.0609
1770,3.3339,0.2299,-2.4525,-98.0174,54.7478,32.0
1775,3.9853,1.5711,-0.4982,-65.8783,66.7826,25.9478
1780,1.0346,1.9543,0.1533,-19.5478,79.9304,24.5565
1785,2.989,-4.2919,9.0436,53.0783,88.6261,24.7652
1790,15.0982,-20.7313,47.4022,167.2348,76.313,-13.7043
1795,-0.5365,8.4688,11.1895,459.7565,-44.4522,-105.3913
1800,-6.0546,16.2478,-32.8788,535.6522,-103.7217,-85.4261
1805,-9.5801,13.5654,-31.346,340.7304,-37.2174,-45.2174
1810,-10.3082,17.0142,-19.1218,157.8435,23.3043,-30.0522
1815,-5.4798,12.0326,-18.4321,56.6261,38.8174,-11.3391
1820,-3.3339,8.3921,-6.4378,-24.7652,30.8174,-2.713
1825,-2.1843,6.6294,3.1423,-32.6957,16.6261,-3.4087
1830,-1.9927,7.0893,1.4179,-0.6957,6.2609,-2.7826
1835,-3.9853,7.2425,-3.2572,24.9739,8.0696,-4.0348
1840,-2.8357,7.0509,-6.3612,37.2174,14.8174,-2.2957
1845,-2.989,6.7061,-7.2425,42.6435,19.2,1.6
1850,-2.1843,6.3612,-6.7061,42.713,15.0261,2.6435
1855,-1.8011,7.0509,-6.5911,49.1826,6.2609,-0.3478
1860,-2.3759,6.7444,-6.0546,52.5913,-3.3391,-3.1304
1865,-2.1843,5.9013,-6.1696,54.9565,-10.5043,-5.2174
1870,-1.5711,6.0546,-6.5528,55.3043,-14.9565,-6.4696
1875,-2.1076,6.0163,-6.8977,53.3565,-17.1826,-6.9565
1880,-1.7244,6.936,-7.5874,51.8261,-17.5304,-9.2522
1885,-0.958,9.5418,-7.894,50.713,-18.5043,-9.7391
1890,0.0,8.5454,-6.936,51.7565,-18.2261,-6.4696
1895,-0.1533,7.3958,-7.2809,63.4435,-16.5565,-2.9217
1900,0.2682,6.5911,-9.1202,76.2435,-12.313,0.0696
1905,0.2682,6.0546,-10.7297,85.2174,-8.4174,2.3652
1910,0.1916,5.5181,-10.9213,86.6087,-5.4261,3.1304
1915,-0.1533,4.79,-9.6567,86.6783,-2.5739,4.1043
1920,-0.3449,5.02,-9.925,88.7652,-0.5565,5.3565
1925,0.7281,5.1349,-8.967,87.5826,0.9739,6.1217
1930,1.1113,6.0546,-8.5454,87.2348,0.0,4.4522
1935,0.5748,6.9743,-9.1969,91.687,-2.713,1.3217
1940,0.0766,6.5911,-9.4651,96.9043,-3.5478,-1.4609
1945,0.3832,5.5948,-10.6914,95.3043,-5.2174,-1.8783
1950,-0.3449,6.936,-10.2698,86.6087,-7.0957,-0.9739
1955,-0.5365,7.0893,-10.4231,82.5043,-7.7217,-0.487
1960,-0.1533,6.2462,-10.6147,77.7043,-6.7478,0.5565
1965,-0.0766,5.9013,-11.0363,72.4174,-4.8696,1.5304
1970,0.0,6.7444,-11.1895,66.4348,-2.5739,1.6696
1975,-0.115,7.1276,-10.0782,63.513,-0.6261,2.0174
1980,-0.4215,4.8667,-11.6111,68.313,1.5304,1.8783
1985,0.1916,6.1696,-10.5764,52.9391,2.1565,2.6435
1990,-0.0383,5.4032,-10.5764,42.5739,1.4609,1.3913
1995,-0.2299,4.2152,-10.2315,39.6522,-0.7652,1.0435
2000,-0.958,2.5291,-10.0016,40.9043,-2.9913,0.6261
2005,0.0766,5.6331,-10.4231,44.5217,-4.1043,2.7826
2010,0.3832,6.2845,-10.3465,42.087,-4.3826,3.4087
2015,0.1533,4.4452,-9.8866,36.9391,-3.6174,2.5043
2020,-0.3066,3.4488,-9.81,33.8783,-3.3391,1.113
2025,-0.6131,3.0273,-9.7717,33.3913,-3.687,1.3217
2030,0.0766,0.9197,-9.2735,34.6435,-3.7565,2.8522
2035,-0.6514,4.905,-10.0782,41.3913,-2.087,0.9043
2040,0.0,4.8284,-10.1549,40.8348,-2.9913,2.5043
2045,0.3832,3.9853,-9.925,39.513,-3.7565,2.4348
2050,0.5748,3.4871,-9.6567,38.6087,-4.2435,1.6
2055,0.4982,2.9507,-9.6184,39.513,-6.1217,0.5565
2060,0.3449,2.6824,-9.1586,41.4609,-7.513,-0.2783
2065,0.1533,2.7207,-9.1586,43.6174,-8.6957,-1.4609
2070,0.1916,3.0273,-9.1202,44.8696,-11.2696,-1.8783
2075,0.3066,2.7974,-9.2352,43.7565,-13.913,-2.0174
2080,0.4215,3.4488,-9.7334,41.8783,-16.3478,-2.8522
2085,0.3449,3.1806,-10.1166,40.2783,-18.2261,-3.2696
2090,-0.0383,3.3339,-10.1549,36.9391,-17.5304,-2.9217
2095,-0.1533,3.1806,-10.3848,33.113,-15.3043,-2.5739
2100,-0.3066,3.2572,-10.4614,29.0783,-12.2435,-2.2957
2105,-0.3832,3.1039,-10.7297,24.7652,-9.113,-2.1565
2110,-0.5365,3.1039,-10.9979,20.2435,-5.913,-1.7391
2115,-0.4598,3.0656,-10.6914,15.1652,-3.1304,-1.2522
2120,-0.8047,2.7591,-10.4998,11.5478,-0.3478,-0.6261
2125,-0.3449,2.7207,-10.3082,7.8609,1.113,-1.0435
2130,-0.1533,2.874,-9.9633,3.5478,0.6957,-1.6
2135,-0.0766,2.9507,-9.8866,2.3652,-0.2783,-2.2261
2140,-0.0383,3.3339,-9.7334,1.3217,-1.7391,-2.7826
2145,0.2299,3.6021,-9.2735,0.3478,-2.0174,-2.8522
2150,0.115,3.5255,-8.9286,0.7652,-2.5043,-3.0609
2155,0.3449,3.2189,-8.6221,2.2957,-4.4522,-3.7565
2160,-0.0766,2.874,-8.3155,4.4522,-7.3043,-4.9391
2165,0.0383,2.5675,-8.3538,8.0696,-11.1304,-6.0522
2170,-0.1916,2.3375,-8.3538,12.6609,-14.0522,-6.6783
2175,-0.3449,2.2226,-8.5454,17.4609,-16.6261,-7.4435
2180,-0.8814,2.2609,-8.6604,21.8435,-18.5043,-7.7913
2185,-0.843,2.7974,-9.0436,24.8348,-19.3391,-7.3739
2190,-0.9963,2.3759,-9.1586,25.6696,-18.7826,-6.5391
2195,-0.7281,2.7207,-9.3885,24.9739,-17.2522,-5.6348
2200,-0.3832,2.7207,-9.3885,22.1913,-14.2609,-4.313
2205,-0.5365,3.0273,-9.1969,19.3391,-10.4348,-3.1304
2210,-0.4215,2.6441,-9.1202,17.113,-7.3043,-1.8087
2215,-0.1533,2.9123,-9.1586,15.0957,-4.0348,-0.487
2220,-0.3832,2.9507,-9.4268,12.8,-1.113,-0.4174
2225,-0.3066,2.9123,-9.81,10.9913,0.2783,-0.6261
2230,-0.1533,2.5675,-9.9633,9.2522,0.0,-0.9043
2235,-0.2299,2.6824,-10.1166,7.1652,-0.3478,-1.1826
2240,-0.2299,2.7207,-10.2315,4.9391,-1.0435,-1.3217
2245,-0.2682,2.874,-10.8063,2.5739,-2.1565,-1.6696
2250,-0.3449,2.7974,-10.8063,-0.4174,-2.9913,-1.8783
2255,-0.4598,2.9123,-10.7297,-4.1043,-3.2,-1.9478
2260,-0.5748,2.989,-10.6147,-8.2783,-2.713,-1.7391
2265,-0.6514,3.1423,-10.6147,-12.6609,-1.7391,-1.4609
2270,-0.7281,2.989,-10.5764,-16.7652,-0.6261,-0.9043
2275,-0.4982,2.8357,-10.1166,-20.1739,0.4174,-0.3478
2280,-0.3449,2.8357,-9.6567,-22.6783,1.0435,0.1391
2285,-0.2682,2.7591,-9.4268,-24.1391,1.7391,0.3478
2290,-0.115,2.9123,-8.967,-24.2087,1.9478,0.1391
2295,-0.1533,3.0656,-8.6987,-22.8174,1.5304,-0.1391
2300,-0.3832,3.2955,-8.4305,-20.6609,0.2087,-0.6957
2305,-0.4215,3.3339,-8.4305,-17.8783,-1.0435,-1.0435
2310,-0.4982,3.4105,-8.3921,-14.6087,-1.8783,-1.1826
2315,-0.4982,3.5638,-8.8137,-11.4087,-2.2957,-1.1826
2320,-0.6898,3.5255,-9.1586,-9.2522,-2.087,-0.9739
2325,-0.5748,3.4105,-9.5034,-8.1391,-1.3913,-0.6957
2330,-0.5365,3.1806,-9.5801,-8.1391,-0.3478,-0.2783
2335,-0.4215,2.989,-9.695,-8.7652,0.8348,0.0
2340,-0.3449,3.1423,-9.7334,-9.7391,1.8087,0.2783
2345,-0.6131,3.3722,-9.4268,-10.713,2.9913,0.5565
2350,-0.4982,3.3339,-9.5034,-11.2696,3.6174,0.5565
2355,-0.4982,3.4105,-9.4268,-11.1304,4.4522,0.487
2360,-0.2682,3.5255,-9.3502,-10.7826,5.0087,0.6957
2365,-0.4215,3.3722,-8.9286,-10.5739,5.0783,0.8348
2370,-0.5365,3.4105,-8.8903,-9.9478,4.5217,1.0435
2375,-0.3449,3.1806,-8.6987,-8.9043,3.8261,1.0435
2380,-0.1533,3.4105,-8.5838,-7.2348,3.2,0.8348
2385,-0.1533,3.4871,-8.737,-5.0783,2.5043,0.487
2390,-0.115,3.3722,-8.9286,-2.7826,2.2261,0.2087
2395,-0.115,3.4488,-9.0053,-0.6261,2.087,-0.0696
2400,-0.0766,3.3339,-9.1586,1.3217,1.8783,-0.3478
2405,-0.115,3.4488,-9.1586,2.2261,1.6696,-0.5565
2410,-0.2299,3.3722,-9.3502,2.7826,1.2522,-0.6261
2415,-0.3066,3.3722,-9.6184,2.8522,0.6261,-1.0435
2420,-0.2682,3.4105,-9.4268,2.713,0.3478,-1.2522
2425,-0.3832,3.4105,-9.4651,2.5739,0.2087,-1.1826
2430,-0.5365,3.4105,-9.6184,2.5043,0.0696,-1.2522
2435,-0.4598,3.3339,-9.5418,2.5043,0.0696,-1.0435
2440,-0.4598,3.4871,-9.4651,2.8522,0.2783,-1.0435
2445,-0.3832,3.3339,-9.5034,3.2696,0.487,-0.8348
2450,-0.4982,3.4871,-9.3885,3.6174,0.9043,-0.7652
2455,-0.3832,3.3339,-9.4651,3.9652,1.2522,-0.6261
2460,-0.3066,3.4105,-9.5034,4.2435,1.6,-0.4174
2465,-0.3832,3.2572,-9.2352,4.5913,1.8087,-0.4174
2470,-0.3449,3.3339,-9.2352,4.9391,1.9478,-0.3478
2475,-0.4215,3.4488,-9.2735,5.2174,1.8783,-0.487
2480,-0.2682,3.2955,-9.2352,5.7043,1.8783,-0.487
2485,-0.3832,3.4871,-9.1202,5.9826,1.8087,-0.487
2490,-0.3449,3.2955,-9.3118,6.1913,1.8087,-0.6261
2495,-0.2682,3.2955,-9.5801,6.3304,1.7391,-0.6957
2500,-0.3832,3.4488,-9.4651,6.3304,1.6696,-0.6261
2505,-0.2682,3.4105,-9.5418,6.1913,1.7391,-0.6957
2510,-0.1916,3.2955,-9.4651,6.1217,1.7391,-0.7652
2515,-0.2299,3.2189,-9.3885,5.7739,1.8783,-0.6957
2520,-0.2299,3.2572,-9.6184,5.287,1.6696,-0.6957
2525,-0.2682,3.1806,-9.5418,4.9391,1.6,-0.7652
2530,-0.3066,3.3339,-9.695,4.4522,1.3913,-0.9043
2535,-0.2682,3.1423,-9.3502,4.1739,0.9739,-0.9739
2540,-0.3449,3.1423,-9.5418,4.1043,0.6957,-1.113
2545,-0.2299,3.3339,-9.3502,4.1739,0.4174,-1.113
2550,-0.3066,3.2572,-9.2352,4.2435,0.0696,-1.1826
2555,-0.3066,3.2955,-9.2352,4.3826,-0.2087,-1.1826
2560,-0.3066,3.2955,-9.2735,4.313,-0.3478,-1.1826
2565,-0.2299,3.3339,-9.2735,4.2435,-0.4174,-1.1826
2570,-0.3066,3.2955,-9.3118,4.1739,-0.2783,-1.2522
2575,-0.3449,3.2955,-9.1969,4.2435,-0.2783,-1.113
2580,-0.3832,3.3339,-9.3885,4.1739,-0.0696,-1.1826
2585,-0.3066,3.2572,-9.3118,4.313,-0.0696,-1.0435
2590,-0.3449,3.1039,-9.3502,4.1739,0.0,-0.9739
2595,-0.2682,3.2955,-9.4651,4.1043,0.0696,-0.9043
2600,-0.3832,3.1806,-9.3502,3.8957,0.0,-0.9739
2605,-0.2682,3.1806,-9.3885,3.687,0.0,-0.9739
2610,-0.3449,3.2955,-9.3885,3.4087,0.0696,-1.0435
2615,-0.3066,3.2189,-9.4268,3.0609,0.0696,-0.9739
2620,-0.2682,3.2572,-9.3502,2.9913,0.0,-0.9739
2625,-0.3449,3.2572,-9.5418,2.7826,0.0696,-0.8348
2630,-0.3832,3.2572,-9.5418,2.5043,0.2087,-0.9739
2635,-0.3449,3.2955,-9.2735,2.2261,0.2783,-0.9043
2640,-0.2299,3.3339,-9.3885,2.0174,0.3478,-0.8348
2645,-0.3449,3.1806,-9.3118,2.087,0.4174,-0.9043
2650,-0.2682,3.3722,-9.2352,2.3652,0.4174,-0.8348
2655,-0.3449,3.2955,-9.3502,2.5043,0.3478,-0.9739
2660,-0.2682,3.2955,-9.2352,2.5739,0.1391,-0.9043
2665,-0.2682,3.2955,-9.3118,2.6435,0.0696,-0.8348
2670,-0.3832,3.2955,-9.1202,2.7826,0.1391,-0.9043
2675,-0.5365,3.3339,-9.3885,2.8522,0.0696,-0.9043
2680,-0.4598,3.3722,-9.3502,3.0609,0.0696,-0.9739
2685,-0.2299,3.2189,-9.4268,2.9217,0.1391,-0.9043
2690,-0.3832,3.2572,-9.3118,2.713,0.1391,-0.7652
2695,-0.3832,3.2572,-9.5034,2.5043,0.1391,-0.7652
2700,-0.4598,3.2189,-9.3885,2.3652,0.2783,-0.8348
2705,-0.4215,3.2955,-9.3502,2.3652,0.487,-0.9043
2710,-0.3066,3.3339,-9.3885,2.3652,0.6957,-0.6957
2715,-0.4598,3.4871,-9.3885,2.5043,0.8348,-0.6261
2720,-0.3066,3.4105,-9.3118,2.5739,1.1826,-0.5565
2725,-0.4215,3.4871,-9.3885,2.5739,1.3217,-0.6957
2730,-0.4215,3.5638,-9.4268,2.7826,1.5304,-0.6957
2735,-0.3066,3.3722,-9.3502,2.9217,1.5304,-0.6261
2740,-0.1916,3.2955,-9.4651,3.1304,1.5304,-0.6957
2745,-0.2299,3.3722,-9.4268,3.2696,1.4609,-0.5565
2750,-0.3832,3.2189,-9.4268,3.4783,1.3217,-0.6261
2755,-0.4215,3.3339,-9.1586,3.7565,1.113,-0.7652
2760,-0.2299,3.4105,-9.4651,4.1043,0.9739,-0.8348
2765,-0.3066,3.2572,-9.4651,4.4522,0.9043,-0.7652
2770,-0.3449,3.2955,-9.6184,4.7304,0.7652,-0.7652
2775,-0.3066,3.2572,-9.5034,4.8696,0.8348,-0.6957
2780,-0.4598,3.2572,-9.4268,4.8696,0.9043,-0.6957
2785,-0.3449,3.4105,-9.5418,4.8,0.9043,-0.6957
2790,-0.3449,3.2955,-9.4651,4.7304,0.9043,-0.7652
2795,-0.4982,3.2572,-9.3118,4.6609,0.8348,-0.8348
2800,-0.2682,3.2955,-9.2735,4.4522,0.8348,-0.8348
2805,-0.3832,3.2955,-9.4268,4.4522,0.5565,-0.8348
2810,-0.3449,3.3722,-9.3502,4.5913,0.487,-0.9043
2815,-0.1916,3.2572,-9.3118,4.5913,0.3478,-0.8348
2820,-0.3832,3.2189,-9.2735,4.5217,0.3478,-0.8348
2825,-0.2299,3.4105,-9.3502,4.313,0.1391,-0.9043
2830,-0.1916,3.2189,-9.3118,4.4522,0.0,-0.9739
2835,-0.3066,3.3339,-9.4651,4.5913,-0.0696,-1.0435
2840,-0.2299,3.3339,-9.5418,4.6609,-0.1391,-1.0435
2845,-0.4598,3.3722,-9.5418,4.5217,-0.0696,-0.9739
2850,-0.2299,3.2572,-9.5034,4.313,0.0,-0.9043
2855,-0.3449,3.2955,-9.4268,4.0348,0.1391,-0.9739
2860,-0.2299,3.1423,-9.3502,3.7565,0.2087,-0.9739
2865,-0.3066,3.1806,-9.3118,3.5478,0.3478,-0.9043
2870,-0.3449,3.2955,-9.2735,3.2,0.3478,-0.8348
2875,-0.1916,3.2955,-9.3502,2.9913,0.3478,-0.8348
2880,-0.4215,3.2189,-9.3502,2.7826,0.2783,-0.9739
2885,-0.2682,3.2572,-9.2735,2.6435,0.2087,-0.9043
2890,-0.3066,3.2572,-9.3118,2.6435,0.0696,-1.0435
2895,-0.3449,3.1806,-9.3502,2.7826,0.0,-1.0435
2900,-0.3832,3.2572,-9.2735,2.9217,0.0,-0.9739
2905,-0.1916,3.2189,-9.3885,3.1304,-0.0696,-0.9739
2910,-0.1916,3.1423,-9.4268,3.2,0.0,-1.0435
2915,-0.3066,3.1423,-9.2352,3.2696,0.1391,-0.9739
2920,-0.3832,3.2189,-9.4651,3.2696,0.2087,-0.9739
2925,-0.3832,3.4105,-9.5801,3.2,0.2783,-0.9043
2930,-0.2682,3.2189,-9.4651,2.9913,0.2783,-0.9043
2935,-0.2682,3.3339,-9.5034,2.7826,0.2087,-0.9043
2940,-0.3066,3.2189,-9.4268,2.5739,0.2087,-0.9043
2945,-0.3066,3.2955,-9.5034,2.5739,0.2087,-0.7652
2950,-0.3832,3.3339,-9.3885,2.5739,0.4174,-0.8348
2955,-0.4598,3.3722,-9.4268,2.5043,0.4174,-0.7652
2960,-0.2299,3.2572,-9.3502,2.3652,0.3478,-0.6957
2965,-0.3066,2.9507,-9.2352,2.2957,0.4174,-0.6957
2970,-0.4215,3.3339,-9.3118,2.1565,0.2783,-0.8348
2975,-0.3066,3.1806,-9.4268,2.1565,0.3478,-0.8348
2980,-0.3832,3.3339,-9.4268,2.2261,0.2087,-0.8348
2985,-0.2682,3.3339,-9.1969,2.3652,0.1391,-0.9043
2990,-0.3449,3.3722,-9.3885,2.5043,0.2087,-0.8348
2995,-0.2682,3.2572,-9.3118,2.5739,0.3478,-0.7652
