timestamp,accX,accY,accZ,gyroX,gyroY,gyroZ
0,0.4215,-8.967,-2.6441,-15.5826,12.5217,2.3652
5,0.5365,-9.2735,-2.6441,-13.4261,13.2174,0.4174
10,0.6131,-9.6567,-2.7591,-10.8522,14.4,-1.2522
15,0.6514,-9.8866,-2.6441,-7.9304,15.7913,-2.7826
20,0.6514,-10.0016,-2.4525,-4.3826,17.113,-4.3826
25,0.6514,-10.1166,-2.5675,-0.4174,18.2261,-5.9826
30,0.6131,-10.1932,-2.5291,3.4087,19.2,-7.6522
35,0.4982,-10.1549,-2.5291,7.3043,19.687,-9.3913
40,0.4598,-10.1932,-2.6058,10.9913,19.5478,-11.0609
45,0.2682,-10.1932,-2.7591,14.1913,19.2,-12.7304
50,0.1916,-9.9633,-2.6824,17.0435,18.5739,-13.9826
55,0.3449,-9.8483,-2.6824,18.9913,17.9478,-14.887
60,0.2299,-9.6567,-2.8357,20.313,17.4609,-14.9565
65,0.0,-9.3502,-2.8357,21.7043,16.8348,-15.0261
70,-0.1533,-9.2352,-3.1423,22.6087,15.9304,-14.9565
75,-0.3832,-9.1202,-3.6404,23.1652,14.7478,-14.887
80,-0.5365,-8.8903,-3.947,22.4,13.4261,-14.2609
85,-0.5365,-8.7754,-4.5601,19.8957,12.5217,-13.2174
90,-0.6131,-8.6604,-4.6368,15.7913,12.313,-12.0348
95,-0.2682,-8.852,-4.5601,10.6435,13.5652,-10.2261
100,-0.115,-9.1202,-4.062,4.8696,16.4174,-8.4174
105,0.0766,-9.7717,-3.2955,0.6261,19.4087,-6.8174
110,0.2682,-10.4231,-2.7591,-1.113,21.8435,-5.6348
115,0.3066,-10.9213,-2.7591,-0.6957,23.0261,-4.313
120,0.2299,-11.2662,-2.9507,1.113,22.8174,-3.0609
125,0.2682,-11.4578,-2.989,3.1304,21.8435,-2.0174
130,0.3066,-11.4578,-3.1806,4.7304,20.7304,-1.1826
135,0.5365,-11.3428,-3.3722,6.2609,20.4522,-1.0435
140,0.4215,-10.9979,-3.1806,7.3739,21.0087,-1.4609
145,0.5748,-10.6914,-3.2189,8.4174,21.8435,-2.4348
150,0.4598,-10.2698,-3.1039,9.1826,22.7478,-3.3391
155,0.4982,-10.0399,-2.989,9.6696,23.1652,-3.8261
160,0.4215,-9.9633,-3.1423,9.4609,23.513,-3.2696
165,0.3832,-10.1166,-2.989,8.6261,24.0,-1.7391
170,0.2299,-10.1549,-3.1423,7.513,24.487,0.487
175,0.1533,-10.4231,-3.4105,6.4,24.8348,2.9913
180,0.0766,-10.4614,-3.5638,5.0087,25.1826,5.6348
185,0.0383,-10.768,-4.1003,3.5478,25.3217,7.8609
190,-0.0766,-10.883,-4.2919,1.113,24.7652,9.3217
195,-0.4982,-11.2279,-4.9816,-2.8522,23.6522,9.9478
200,-0.9197,-11.2662,-5.4415,-7.2348,21.913,9.7391
205,-1.1879,-11.6111,-5.863,-11.6174,20.1043,8.6261
210,-1.6861,-11.726,-6.2462,-15.0957,18.2261,6.6087
215,-2.3759,-11.9943,-6.3995,-17.3217,16.5565,3.7565
220,-2.989,-12.1092,-6.5145,-18.2957,14.6087,0.6261
225,-3.6021,-12.0709,-6.5145,-17.7391,12.0348,-2.713
230,-4.1769,-12.2242,-6.7827,-16.6261,8.9739,-5.4261
235,-4.3685,-12.2242,-6.4378,-15.7217,5.4957,-7.4435
240,-4.5218,-12.2242,-6.6677,-15.0957,1.6,-8.8348
245,-4.5601,-12.2625,-6.7444,-15.0957,-2.5739,-9.3913
250,-4.3302,-12.2242,-6.8977,-15.7913,-6.8174,-9.113
255,-3.7171,-12.1859,-7.1276,-17.2522,-10.713,-8.5565
260,-3.3339,-12.1475,-7.0893,-18.7826,-13.8435,-7.7217
265,-2.6824,-12.1475,-6.936,-20.1739,-15.8609,-6.8174
270,-2.2226,-12.3008,-6.936,-20.8696,-17.113,-5.6348
275,-1.6478,-12.3008,-6.7827,-20.5913,-17.2522,-4.3826
280,-1.1113,-12.2625,-6.7444,-19.8957,-16.3478,-3.2696
285,-0.3066,-12.1092,-6.5528,-18.3652,-14.4696,-2.6435
290,0.5365,-11.8793,-6.3995,-15.513,-12.2435,-2.5739
295,1.3412,-11.3811,-6.2079,-10.6435,-10.1565,-3.2696
300,2.2609,-10.768,-6.0546,-3.7565,-8.0696,-4.4522
305,2.5675,-9.9633,-6.0929,4.5913,-5.4957,-6.0522
310,3.5255,-9.0819,-5.978,13.3565,-1.8783,-7.8609
315,4.1003,-7.894,-5.863,21.3565,2.5739,-9.7391
320,3.9087,-7.3192,-6.4378,28.0348,7.6522,-11.7565
325,3.9853,-6.821,-6.7444,29.0783,13.9826,-13.3565
330,3.7554,-6.2845,-6.8593,27.1304,19.8957,-15.3739
335,3.2955,-6.3995,-7.2809,23.1652,24.8348,-17.3217
340,3.1039,-6.2845,-7.2425,17.8783,29.3565,-18.5043
345,2.7974,-6.1696,-7.0893,13.3565,32.6261,-19.1304
350,2.3759,-6.0546,-6.7827,9.8783,34.8522,-18.8522
355,1.8011,-6.2079,-6.6294,6.8174,36.6609,-17.113
360,1.1113,-6.4378,-6.3612,3.9652,38.1217,-14.9565
365,0.6131,-6.6294,-5.978,0.9043,39.0957,-12.5217
370,-0.0766,-6.8593,-5.8247,-2.713,39.1652,-10.1565
375,-0.5748,-7.3575,-5.7097,-6.9565,38.6783,-7.3043
380,-0.958,-7.5874,-5.5948,-11.3391,37.0087,-5.287
385,-1.1113,-8.0089,-5.5181,-15.1652,34.1565,-4.0348
390,-1.4179,-8.2772,-5.3265,-18.5739,30.887,-3.2
395,-1.2263,-8.6604,-5.3648,-21.287,27.2696,-2.9913
400,-0.958,-9.0436,-5.2499,-23.3739,23.8609,-3.6174
405,-0.7281,-9.1969,-5.0966,-24.2783,20.7304,-4.8
410,-0.4598,-9.4268,-5.2116,-23.8609,17.6,-6.4696
415,-0.115,-9.4651,-5.4415,-23.1652,14.3304,-8.487
420,0.1916,-9.7334,-5.748,-21.9826,11.2696,-10.5739
425,0.2682,-9.7334,-6.0163,-20.5913,8.7652,-12.1739
430,0.6898,-9.7334,-5.863,-19.5478,7.1652,-13.3565
435,0.6898,-9.5418,-6.0929,-18.2957,6.4,-14.4
440,0.843,-9.7334,-6.0163,-16.9739,6.6087,-15.2348
445,0.7664,-9.5801,-5.8247,-15.2348,7.3043,-15.9304
450,0.7664,-9.5034,-5.5564,-13.287,8.6957,-16.3478
455,0.9197,-9.1586,-5.5948,-11.7565,10.0174,-17.113
460,1.1496,-9.0436,-5.3265,-10.5739,11.6174,-18.3652
465,1.0346,-8.737,-5.4415,-10.087,12.9391,-19.687
470,0.843,-8.737,-5.2499,-10.1565,14.0522,-21.0087
475,0.6131,-8.6604,-5.1349,-9.7391,14.6783,-21.9826
480,0.3832,-8.5838,-5.1349,-9.0435,14.5391,-23.1652
485,0.0383,-8.5838,-5.1732,-8.8348,14.4,-24.0696
490,-0.0383,-8.4305,-5.1349,-8.487,14.3304,-25.113
495,-0.0383,-8.2005,-5.0583,-9.113,14.1913,-26.5043
500,0.0,-8.0473,-5.0583,-10.2957,13.7043,-27.5478
505,-0.3832,-7.894,-4.8667,-11.4087,12.8696,-28.313
510,-0.1533,-7.8173,-4.9433,-12.3826,11.687,-29.0783
515,0.0766,-7.4725,-4.9433,-14.1217,10.5043,-29.7739
520,0.1916,-7.3575,-4.8284,-15.9304,9.5304,-30.4696
525,0.2299,-7.3958,-4.79,-17.5304,8.6261,-30.9565
530,0.4215,-7.4725,-4.6368,-18.713,7.2348,-31.0261
535,0.6514,-7.5874,-4.5984,-20.1739,5.5652,-31.0957
540,0.6898,-7.779,-4.5601,-22.1913,3.8957,-30.9565
545,0.7281,-7.8173,-4.2536,-23.8609,2.0174,-30.7478
550,0.8047,-8.2005,-4.2919,-25.0435,-0.0696,-30.6783
555,0.7281,-8.2772,-4.2919,-25.8783,-2.2261,-30.9565
560,0.6898,-8.2389,-4.3302,-26.2261,-4.313,-31.3043
565,0.843,-8.3538,-4.2536,-26.9217,-6.3304,-31.8609
570,0.7281,-8.3155,-4.3685,-27.5478,-8.3478,-32.5565
575,0.7281,-8.1239,-4.3685,-28.1739,-10.087,-32.9043
580,0.6131,-8.0856,-4.4068,-28.8696,-11.4783,-32.6957
585,0.6514,-7.9323,-4.3685,-29.2174,-12.9391,-32.2783
590,0.5748,-7.894,-4.1769,-29.8435,-14.2609,-31.9304
595,0.7281,-7.7024,-4.2536,-30.7478,-15.8609,-31.513
600,0.8047,-7.894,-3.9853,-31.513,-17.0435,-30.7478
605,0.7281,-7.894,-3.7554,-31.513,-18.087,-29.4957
610,0.6898,-8.0089,-3.9087,-30.2609,-19.0609,-28.1043
615,0.958,-7.7024,-3.7937,-28.7304,-19.8261,-26.713
620,1.073,-7.5491,-3.7554,-28.4522,-19.9652,-25.1826
625,1.1113,-7.5491,-3.5638,-28.8,-20.3826,-24.0696
630,1.2263,-7.6257,-3.947,-29.2174,-21.3565,-23.2348
635,1.3029,-7.7024,-3.947,-29.7739,-22.5391,-22.7478
640,1.3412,-7.894,-4.0236,-30.4696,-24.0,-22.2609
645,1.4562,-8.1239,-4.1769,-31.0261,-25.5304,-21.7739
650,1.4945,-8.3155,-4.1769,-31.4435,-26.7826,-21.2174
655,1.7244,-8.5071,-4.1769,-31.6522,-27.4783,-20.6609
660,1.7244,-8.7754,-4.3685,-31.3043,-27.6174,-19.9652
665,1.8777,-9.0436,-4.4068,-31.0957,-27.4087,-19.687
670,1.916,-9.3502,-4.2919,-30.2609,-26.6435,-19.1304
675,2.0693,-9.7334,-4.1769,-28.8,-25.6696,-18.713
680,2.1459,-9.925,-4.2919,-26.8522,-25.0435,-18.9217
685,2.2226,-10.2315,-4.2152,-24.6261,-24.5565,-18.9217
690,2.1076,-10.1549,-4.4068,-21.913,-24.6957,-18.9217
695,2.0693,-10.3465,-4.4452,-19.1304,-25.5304,-18.9913
700,2.031,-10.2315,-4.4452,-16.2087,-26.2957,-18.4348
705,1.9927,-10.3465,-4.2919,-13.0783,-26.6435,-17.3913
710,1.916,-10.1166,-4.4452,-9.6696,-26.6435,-16.7652
715,1.8394,-9.8483,-4.4068,-6.7478,-26.3652,-15.9304
720,1.916,-9.8483,-4.5601,-4.8696,-25.3913,-15.513
725,2.2992,-9.8483,-4.5218,-4.0348,-24.3478,-15.5826
730,2.5291,-9.7717,-4.5601,-4.5217,-23.2348,-15.8609
735,2.8357,-9.7717,-4.5984,-5.9826,-22.2609,-16.6261
740,3.2189,-10.0016,-4.8284,-8.9043,-21.287,-17.6
745,3.2572,-10.1166,-4.9433,-12.6609,-20.4522,-18.5043
750,3.2189,-10.2698,-4.8284,-16.0696,-19.6174,-18.9217
755,2.989,-10.4614,-4.8284,-18.2261,-19.1304,-18.9913
760,2.5675,-10.653,-4.8284,-18.8522,-19.2696,-18.5739
765,2.4142,-10.883,-4.6751,-18.2261,-20.1043,-18.1565
770,1.8011,-10.8446,-4.4835,-16.1391,-21.6348,-17.4609
775,1.4945,-10.883,-4.062,-13.8435,-23.7217,-16.4174
780,1.0346,-10.5381,-3.947,-12.0348,-26.6435,-15.0957
785,0.843,-10.1932,-3.8704,-10.9217,-30.2609,-13.3565
790,0.9197,-9.7334,-4.0236,-10.9913,-33.9478,-11.2696
795,0.9197,-9.2352,-4.4452,-11.9652,-37.0783,-9.113
800,0.9963,-8.8137,-4.79,-14.1913,-39.7913,-7.0957
805,0.8814,-8.4688,-4.905,-17.3913,-42.3652,-5.4957
810,0.958,-8.3538,-5.0966,-21.913,-44.8,-4.0348
815,1.1113,-8.2005,-5.2116,-26.9217,-47.5826,-3.0609
820,1.2646,-8.3538,-5.3265,-30.7478,-50.2261,-2.6435
825,1.6861,-8.6604,-5.1732,-35.4087,-52.313,-2.3652
830,2.031,-8.967,-5.0966,-39.7217,-53.5652,-2.2957
835,2.3375,-9.2352,-5.2499,-43.5478,-54.1913,-2.2957
840,2.4525,-9.4268,-5.1732,-46.9565,-54.1913,-2.0174
845,2.7974,-9.5418,-5.0966,-49.7391,-53.6348,-1.6696
850,2.7207,-9.6567,-5.1349,-51.0609,-52.6609,-1.3217
855,2.6824,-9.8866,-5.2499,-51.4087,-51.5478,-0.9739
860,2.7207,-9.7717,-5.1732,-51.1304,-50.1565,-0.3478
865,2.6824,-9.5801,-5.4798,-50.5739,-48.3478,0.5565
870,2.8357,-9.1969,-5.7097,-50.4348,-46.6783,1.8783
875,2.9123,-8.8137,-6.0929,-51.4087,-45.2174,3.687
880,3.1806,-8.4305,-6.3995,-53.0087,-43.5478,5.4261
885,3.2189,-8.0856,-6.7444,-55.1652,-41.4609,7.3043
890,3.2572,-8.2005,-6.8593,-57.4609,-38.6783,8.9043
895,3.3722,-8.0473,-6.8593,-59.7565,-35.2,10.2957
900,3.2955,-8.1239,-6.5145,-61.6348,-31.4435,11.1304
905,3.1806,-8.2772,-6.3612,-63.3043,-27.6174,11.9652
910,3.2189,-8.4305,-6.1696,-64.7652,-24.1391,12.7304
915,3.0656,-8.6604,-5.7097,-65.7391,-20.9391,13.0783
920,3.0273,-8.852,-5.5181,-66.0174,-18.2261,13.2174
925,2.874,-8.967,-5.2116,-64.9043,-15.513,13.0087
930,2.6058,-8.9286,-4.8284,-62.887,-12.8696,12.5913
935,2.5675,-8.7754,-4.6751,-60.313,-11.5478,12.1043
940,2.4908,-8.5071,-4.6751,-58.087,-11.4087,11.0609
945,2.3759,-8.3538,-4.4068,-56.6957,-12.6609,9.8783
950,2.3759,-8.0473,-4.2536,-55.5826,-15.0261,8.9739
955,2.2226,-7.8173,-4.0236,-54.3304,-18.2261,8.2087
960,2.2226,-8.0856,-3.4488,-52.8696,-21.1478,7.2348
965,2.031,-8.2389,-2.7591,-51.2696,-23.0261,6.0522
970,1.916,-8.6987,-2.031,-49.8087,-23.9304,4.5217
975,1.6478,-9.0053,-1.073,-48.2087,-24.4174,2.5043
980,1.5328,-9.3502,-0.5748,-46.3304,-26.1565,0.6261
985,1.1113,-9.1586,-0.2682,-43.687,-29.4957,-0.9043
990,0.6898,-8.6604,-0.3449,-40.3478,-34.6435,-1.8783
995,0.4215,-8.1239,-0.6898,-37.4261,-41.5304,-2.087
1000,0.115,-7.5874,-1.1113,-35.2696,-50.4348,-1.2522
1005,-0.0383,-7.2425,-1.5711,-33.2522,-60.5913,0.2087
1010,-0.6514,-7.3192,-1.6095,-29.7043,-70.8174,2.087
1015,-1.3795,-7.3958,-1.6095,-23.7913,-81.0435,3.4087
1020,-1.8394,-7.9323,-1.5328,-15.9304,-90.9913,3.8261
1025,-2.4908,-7.7024,-1.5328,-7.1652,-100.8696,3.6174
1030,-2.8357,-7.3575,-1.6478,0.5565,-112.0,3.4783
1035,-2.7591,-6.821,-1.8011,4.5913,-123.1304,4.3826
1040,-2.7591,-6.5528,-1.9543,5.0783,-134.6783,6.0522
1045,-3.1806,-6.1313,-1.9927,3.8957,-146.9913,7.7217
1050,-3.7937,-5.7864,-2.4142,3.6174,-161.5304,9.3913
1055,-4.1386,-5.4032,-2.989,3.8957,-177.6696,11.7565
1060,-4.2919,-4.8284,-3.3339,3.2,-193.3913,14.1913
1065,-4.4452,-4.6751,-3.1806,1.5304,-207.1652,15.8609
1070,-4.7134,-3.947,-3.4105,3.4087,-218.713,16.8348
1075,-4.6368,-2.8357,-3.4105,5.8435,-228.0348,17.0435
1080,-3.9853,-2.874,-3.1806,7.2348,-234.9913,16.4174
1085,-3.4488,-1.5711,-2.6441,9.8783,-237.3565,13.287
1090,-3.4488,-1.4562,-2.1843,10.2261,-237.0087,9.8783
1095,-3.9853,-0.9963,-3.2189,10.9913,-239.8609,4.8
1100,-4.2536,-0.3449,-4.4068,9.9478,-247.7217,-0.6261
1105,-3.5638,0.0383,-5.1732,8.6957,-253.913,-3.687
1110,-2.6441,0.2299,-5.0583,7.5826,-253.5652,-4.4522
1115,-2.1843,0.4982,-4.79,7.0957,-249.3217,-3.0609
1120,-1.7627,0.5748,-4.3302,9.3217,-245.5652,0.9043
1125,-1.3029,0.8814,-4.5984,12.6609,-244.4522,5.7043
1130,-1.2646,1.8777,-4.905,12.5217,-244.5913,10.0174
1135,-1.073,2.7207,-5.748,9.7391,-243.4087,14.9565
1140,-1.1113,4.2152,-6.6294,4.8,-238.4,20.1043
1145,-0.8047,5.5564,-7.9323,-2.713,-230.3304,25.8783
1150,-0.0383,6.8593,-9.7334,-13.4261,-219.2,31.513
1155,1.1879,8.5454,-11.0746,-24.9043,-204.7304,36.6609
1160,2.9123,9.7334,-11.726,-35.2,-189.1478,42.087
1165,4.9816,10.1932,-12.3775,-43.3391,-172.313,46.1217
1170,6.1696,9.925,-11.8027,-52.3826,-155.5478,47.4435
1175,6.6677,9.4268,-11.2279,-64.8348,-142.9565,44.6609
1180,5.9013,8.2005,-9.8483,-78.4,-135.1652,38.6087
1185,4.1769,6.3612,-8.2389,-89.6696,-129.9478,31.6522
1190,2.5291,4.79,-6.7827,-96.0,-124.313,26.0174
1195,1.3412,3.5638,-6.2079,-96.6957,-117.4261,22.6087
1200,0.6898,2.6824,-7.1276,-94.4,-112.7652,20.5913
1205,-0.1533,2.2609,-7.1659,-94.0522,-109.8435,18.9913
1210,-0.7281,1.3795,-7.8173,-92.2435,-108.9391,18.4348
1215,-1.5328,1.2263,-8.5071,-86.887,-107.4087,18.7826
1220,-2.2609,0.8814,-9.4651,-79.5826,-105.9478,19.7565
1225,-2.9507,0.843,-9.4651,-74.2957,-105.113,21.0087
1230,-3.9853,0.4215,-8.737,-70.6087,-105.7391,22.1913
1235,-4.79,0.0,-8.0089,-66.4348,-107.8957,22.6783
1240,-4.905,-0.4215,-7.3958,-61.4957,-109.9826,23.7217
1245,-4.9433,-0.5748,-7.2425,-56.2783,-111.6522,25.0435
1250,-4.4068,-0.7664,-6.8593,-51.8261,-112.9043,26.2261
1255,-3.4105,-1.1496,-6.3995,-49.2522,-112.7652,28.1043
1260,-3.7171,-0.8047,-6.3612,-48.5565,-110.4,29.8435
1265,-3.3339,-0.6514,-6.936,-49.3913,-110.8174,32.0
1270,-2.2609,-0.9197,-7.7024,-51.3391,-113.2522,35.687
1275,-1.3029,-1.6095,-7.2042,-54.8174,-115.1304,38.1913
1280,-0.4215,-3.5638,-6.0546,-58.9913,-116.4522,39.0957
1285,0.0766,-5.7097,-4.4068,-61.2174,-118.7478,39.5826
1290,-0.0766,-7.8557,-2.4908,-60.8,-121.4609,39.7217
1295,-0.7281,-9.4651,-1.6478,-58.5043,-121.4609,40.9739
1300,-1.1496,-10.9213,-2.1076,-55.8609,-117.4957,45.0783
1305,-1.4945,-11.2662,-2.9507,-55.7217,-108.1739,49.7391
1310,-2.7207,-11.1512,-3.947,-59.5478,-97.6696,56.0696
1315,-3.7937,-10.653,-5.9396,-67.5478,-90.4348,63.513
1320,-2.6824,-9.0819,-8.9286,-77.2174,-80.9739,74.5043
1325,-1.2263,-7.3192,-11.7643,-92.2435,-69.0087,88.0
1330,-0.5748,-6.5145,-13.6804,-114.4348,-60.313,102.8174
1335,-0.958,-7.4725,-14.3318,-135.3043,-54.7478,121.4609
1340,-1.3412,-9.6567,-13.6804,-144.487,-48.0696,144.0
1345,-1.6095,-11.6111,-12.8756,-144.7652,-39.5826,164.8
1350,-3.0656,-12.4924,-12.4924,-144.487,-29.5652,182.6783
1355,-4.5984,-12.9906,-12.4541,-145.1826,-16.6261,198.4696
1360,-5.7097,-14.2552,-10.4614,-147.8261,-0.9739,210.8522
1365,-7.0893,-16.1329,-7.4341,-151.0957,11.3391,218.7826
1370,-8.5838,-17.0142,-4.4068,-151.6522,20.1043,222.6087
1375,-9.7717,-16.1329,-3.6021,-145.8783,27.5478,225.113
1380,-11.1512,-14.2552,-2.4525,-139.3391,32.9043,227.3391
1385,-11.4578,-12.1475,-1.2263,-133.3565,36.4522,229.2174
1390,-11.5344,-10.4614,-0.5365,-129.6,37.6348,229.287
1395,-10.9596,-8.6987,0.2682,-130.0174,35.2,227.687
1400,-10.8063,-7.1659,1.4945,-131.2696,28.5913,225.2522
1405,-10.1932,-6.2462,2.2992,-132.1739,17.0435,222.6783
1410,-9.8483,-5.7864,2.4142,-135.2348,2.3652,217.6
1415,-10.1166,-5.2499,2.3759,-139.7565,-12.8696,211.1304
1420,-11.6494,-4.5601,1.4179,-140.9391,-27.6174,204.1043
1425,-14.0636,-3.4488,0.4598,-135.9304,-42.1565,196.8696
1430,-17.0909,-2.3375,-2.6441,-124.4522,-58.087,190.9565
1435,-15.8263,-0.4598,-8.6221,-113.113,-77.7739,189.9826
1440,-13.872,2.4142,-14.7533,-122.0174,-77.7739,185.3913
1445,-15.9796,2.2609,-11.9943,-154.713,-78.887,177.8087
1450,-18.0872,0.9197,-9.5418,-165.4261,-99.5478,173.4261
1455,-26.556,-1.0346,-6.4378,-149.8435,-129.8783,175.5826
1460,-24.6783,2.2992,-13.0672,-118.6783,-174.1217,190.1913
1465,-28.5103,9.3885,-19.4667,-97.4609,-175.1652,212.3826
1470,-29.545,11.3045,-17.4357,-114.5739,-162.087,235.8957
1475,-24.7932,14.1019,-18.2021,-144.9739,-161.8783,242.4348
1480,-17.2441,15.4431,-15.3281,-168.4174,-158.8174,255.7217
1485,-13.872,15.9029,-11.6494,-186.5739,-152.2087,269.0783
1490,-19.62,16.0945,-12.1092,-201.6696,-137.0435,283.687
1495,-44.2216,16.1712,-14.715,-198.1217,-115.687,307.4087
1500,-48.092,20.0032,-26.5943,-176.6261,-82.6435,291.5478
1505,-32.3807,9.5034,-25.9045,-151.0957,-32.487,276.5913
1510,-32.7255,8.8903,-20.7696,-148.2435,-29.1478,245.4261
1515,-35.1014,8.737,-16.631,-163.2696,-73.3217,219.8957
1520,-39.7765,10.883,-16.0562,-175.0261,-110.3304,218.1565
1525,-35.178,10.4998,-14.8683,-200.6261,-133.1478,229.0783
1530,-29.6599,9.5418,-16.8993,-213.1478,-137.7391,243.1304
1535,-22.2258,4.5218,-15.9029,-221.0783,-134.2609,252.1043
1540,-20.9995,2.7974,-14.4851,-208.9043,-120.8348,259.6174
1545,-16.3245,-1.7244,-11.9943,-202.2261,-116.1739,273.113
1550,-12.3775,-3.9087,-9.925,-185.0435,-109.3565,278.5391
1555,-11.9943,-1.3029,-8.3921,-154.2957,-99.9652,277.287
1560,-10.3848,1.5328,-7.4341,-133.287,-101.1478,267.7565
1565,-5.5181,2.7591,-6.8593,-125.0087,-100.9391,243.7565
1570,-2.2609,2.3375,-5.5181,-114.713,-80.487,199.7217
1575,-2.4908,4.1386,-3.2572,-70.6783,-29.4261,153.6
1580,-2.9123,7.2425,-2.6824,-11.8957,19.2696,118.887
1585,-2.874,10.5381,-1.9927,14.887,54.4,94.5391
1590,-4.905,12.6074,-1.8394,6.3304,78.3304,72.2087
1595,-6.3612,13.1439,-1.9543,-11.5478,90.2261,53.3565
1600,-8.6604,13.9869,-2.1459,-18.5043,96.2087,41.9478
1605,-9.3885,14.5234,-2.989,-19.687,96.6957,37.7043
1610,-9.695,14.0252,-2.3759,-24.5565,94.2609,33.113
1615,-9.5801,13.0289,-1.1879,-33.3913,90.6435,25.8783
1620,-9.3885,11.4578,-0.6131,-44.1739,86.7478,18.087
1625,-9.3118,9.5034,-0.0766,-52.2435,83.2,12.5217
1630,-9.7334,7.779,-0.5748,-55.9304,79.6522,9.3913
1635,-10.0399,6.2079,-1.6478,-57.4609,73.5304,7.7913
1640,-9.8483,4.79,-2.4142,-58.2957,67.3391,8.1391
1645,-9.5801,3.6787,-2.7207,-55.7217,63.1652,10.5739
1650,-9.4268,2.6058,-2.7591,-49.3913,59.9652,13.6348
1655,-9.5418,2.5675,-2.6058,-40.8348,56.0,16.2087
1660,-8.8903,2.6824,-2.5291,-33.6696,50.4348,18.4348
1665,-7.7024,3.2572,-2.4908,-31.7217,42.8522,20.5217
1670,-7.1276,3.832,-2.3759,-34.713,34.9913,22.5391
1675,-7.0126,4.3685,-1.9543,-37.3565,28.5217,24.7652
1680,-6.3612,4.1003,-1.3029,-38.8174,22.5391,27.5478
1685,-6.0929,3.6787,-1.2263,-36.9391,15.7217,28.8696
1690,-6.0163,4.4835,-1.6095,-33.5304,7.7913,29.913
1695,-5.4415,4.79,-1.4945,-34.0174,0.0696,32.8348
1700,-5.3265,4.905,-1.4945,-36.2435,-8.3478,33.0435
1705,-5.6714,4.905,-1.6861,-38.0522,-17.0435,31.3043
1710,-5.3265,4.8667,-1.6095,-39.0261,-24.4174,28.5913
1715,-5.3648,4.6368,-1.4562,-39.0261,-28.8,24.9739
1720,-5.5181,4.4068,-1.3795,-37.5652,-30.8174,21.3565
1725,-5.3265,4.2536,-1.5711,-34.5043,-30.6087,18.6435
1730,-5.2499,3.832,-1.4945,-32.6957,-30.2609,17.6
1735,-5.2116,3.1423,-1.3795,-31.1652,-29.913,17.6696
1740,-4.9816,2.7207,-1.3029,-29.7043,-29.9826,17.6
1745,-4.7134,2.4525,-1.6478,-28.5217,-28.9391,17.1826
1750,-4.3685,2.1843,-1.8394,-27.2696,-26.713,16.0696
1755,-4.1769,2.3375,-1.916,-25.6,-25.2522,14.4
1760,-3.7171,2.5291,-1.916,-22.6087,-24.1391,11.4783
1765,-3.1806,2.7207,-2.031,-19.1304,-21.9826,8.1391
1770,-2.7207,3.2572,-2.2226,-13.4957,-19.2,4.8696
1775,-2.989,4.0236,-2.2226,-5.6348,-16.487,2.087
1780,-3.0656,4.8667,-2.3759,3.4783,-14.1217,-0.7652
1785,-2.9507,6.1313,-2.5291,11.4087,-10.8522,-3.4087
1790,-2.874,6.8593,-2.4525,15.513,-7.0261,-3.8261
1795,-2.9507,7.4341,-2.4908,16.4174,-3.8261,-4.0348
1800,-2.9123,7.8173,-2.5675,15.0957,-1.3217,-4.2435
1805,-3.0273,7.8557,-2.8357,12.7304,2.0174,-3.687
1810,-2.5675,7.5108,-3.3339,10.713,5.913,-2.713
1815,-1.8777,7.5108,-3.8704,8.8348,11.3391,-1.113
1820,-3.6021,7.0126,-3.4105,8.2087,17.9478,1.3217
1825,-4.905,6.2462,-3.3339,9.6696,22.0522,3.1304
1830,-5.4415,5.5948,-3.3722,10.713,23.1652,3.4087
1835,-5.6331,4.9816,-3.6787,11.9652,22.887,2.5739
1840,-5.7864,4.8667,-4.1003,14.4696,23.4435,0.6957
1845,-5.978,4.905,-4.4068,17.0435,25.3217,-0.6261
1850,-6.2845,4.9816,-4.5984,20.4522,27.9652,-1.7391
1855,-6.821,5.2499,-4.8667,24.0696,30.4,-2.713
1860,-6.6677,5.3648,-4.8667,26.6435,31.9304,-2.8522
1865,-6.6677,5.4032,-4.7517,28.5217,33.3217,-2.713
1870,-6.5911,5.2882,-4.79,31.513,34.2261,-2.5043
1875,-6.4378,5.2882,-4.7517,35.4087,34.9913,-2.5043
1880,-6.3612,5.4032,-4.8284,38.7478,35.8261,-3.1304
1885,-6.4761,5.4032,-4.7517,42.087,37.0087,-3.7565
1890,-6.6677,5.3265,-4.6368,46.0522,38.6087,-3.8261
1895,-6.9743,5.1349,-4.7517,49.6696,40.4174,-3.7565
1900,-7.0893,5.2882,-4.79,52.5217,42.713,-3.2
1905,-6.936,5.1732,-4.9433,55.1652,46.2609,-2.0174
1910,-6.5911,5.3648,-5.0583,57.8087,51.8261,-0.487
1915,-6.7061,6.2462,-5.5564,59.3391,58.5739,1.2522
1920,-6.4761,7.4725,-5.8247,60.6609,68.1043,5.287
1925,-6.0163,7.5108,-5.4798,59.1304,76.3826,9.4609
1930,-6.2462,7.1659,-5.4415,56.2783,82.1565,12.2435
1935,-6.8593,5.4798,-5.5181,54.9565,87.7913,16.0696
1940,-7.0893,4.6751,-6.0929,56.487,91.9652,18.9217
1945,-7.3192,4.4835,-6.0163,58.4348,95.9304,20.9391
1950,-7.4725,4.1003,-6.1313,61.913,100.2435,24.9043
1955,-7.779,4.1769,-6.0163,66.2957,103.0261,28.7304
1960,-7.5108,4.7517,-6.3229,69.7739,104.2783,31.0957
1965,-7.9323,5.0966,-6.0163,70.1217,105.5304,33.6
1970,-10.9979,6.0163,-6.0546,67.687,105.3217,36.8696
1975,-12.684,9.695,-6.936,69.6348,105.8087,35.8957
1980,-12.4924,10.3848,-6.2462,75.2,111.5826,36.2435
1985,-8.8903,10.5381,-7.8557,82.9217,116.5217,34.087
1990,-7.6257,11.4961,-8.6604,101.8435,133.5652,31.6522
1995,-2.9123,6.2845,-8.0856,128.3478,157.1478,24.7652
2000,-0.1533,3.1039,-8.2389,135.2348,156.1739,2.4348
2005,-1.6861,0.6514,-6.8593,105.3913,135.6522,-18.6435
2010,-8.5454,3.1039,-6.5528,62.887,109.7043,-27.2
2015,-8.967,6.1313,-7.9706,39.4435,86.6087,-24.487
2020,-8.1622,6.1696,-10.7297,40.8348,73.6696,-23.0261
2025,-9.925,8.1239,-11.4961,47.2348,66.8522,-29.1478
2030,-9.1586,7.3192,-10.768,50.2261,59.3391,-34.5043
2035,-5.9396,4.9433,-10.768,51.3391,52.5217,-40.9739
2040,-4.5218,3.4105,-10.9213,58.5043,51.687,-46.887
2045,-4.9433,1.1496,-10.3465,63.1652,57.3217,-48.2783
2050,-5.7864,0.4982,-9.7717,62.4,62.8174,-49.3217
2055,-8.2005,0.958,-8.5071,51.2696,64.2783,-47.7913
2060,-7.8557,2.989,-7.9323,34.5739,63.8609,-44.6609
2065,-9.8866,5.8247,-7.0893,22.4696,63.7913,-39.7913
2070,-10.6914,8.5071,-7.0893,16.9043,62.0522,-34.2261
2075,-10.2698,9.7334,-7.5491,12.8696,59.0609,-29.0783
2080,-11.4195,11.5727,-8.1239,7.3739,56.3478,-26.1565
2085,-10.1932,11.0363,-8.0089,-7.3043,44.7304,-23.3043
2090,-9.1586,9.2735,-7.8557,-21.8435,30.7478,-20.1739
2095,-7.0893,7.3192,-7.9706,-29.7043,19.3391,-15.7217
2100,-4.5984,5.1349,-8.1622,-31.9304,11.8957,-10.7826
2105,-2.7974,3.3339,-8.2389,-25.6,11.687,-7.0261
2110,-1.8394,2.3375,-8.0856,-14.8174,12.5913,-6.4
2115,-1.6478,2.2609,-8.3155,-9.8087,9.8783,-9.0435
2120,-1.916,0.9963,-7.4341,-6.4696,11.0609,-11.6174
2125,-2.1843,0.4215,-8.4688,-8.3478,6.4,-18.9913
2130,-2.1459,-0.115,-9.1202,-11.4087,-0.9043,-32.9043
2135,-2.2226,0.4982,-9.3118,-5.9826,3.4783,-33.5304
2140,-3.1039,0.6131,-9.6567,5.0087,14.4,-23.0957
2145,-3.5255,0.7664,-9.5418,14.4696,18.713,-19.1304
2150,-4.2919,1.4562,-9.4268,20.6609,19.4087,-18.6435
2155,-4.79,2.2226,-9.1202,23.513,21.3565,-18.6435
2160,-4.4068,3.3339,-9.2352,24.0696,22.7478,-18.6435
2165,-4.5218,4.1769,-9.0819,20.6609,23.7913,-18.5739
2170,-4.7134,4.9433,-8.5454,16.7652,24.487,-18.5739
2175,-4.4835,5.0966,-8.0856,10.6435,25.4609,-14.8174
2180,-3.6404,3.9087,-7.4341,5.8435,27.7565,-13.0087
2185,-3.5638,3.1423,-7.3575,5.2174,28.5913,-13.7739
2190,-4.3685,2.4908,-7.2425,5.5652,28.1739,-14.887
2195,-4.905,2.0693,-7.0509,7.2348,27.4783,-15.1652
2200,-5.3265,2.031,-6.9743,11.4087,26.9217,-14.3304
2205,-5.2882,2.2609,-7.3575,16.5565,27.2,-11.9652
2210,-5.02,2.4908,-7.7407,19.7565,28.1043,-8.9043
2215,-4.8284,2.874,-8.3155,21.0783,29.1478,-6.3304
2220,-4.2919,3.0656,-8.5838,20.313,28.9391,-5.3565
2225,-4.5218,2.9507,-8.8137,18.087,28.313,-5.7739
2230,-4.7134,2.874,-8.5071,16.2783,26.9913,-5.913
2235,-4.5218,2.6824,-8.5838,16.487,26.3652,-5.2174
2240,-4.4452,2.8357,-8.6987,17.0435,25.8087,-4.1739
2245,-4.5218,2.9123,-8.6221,16.7652,25.2522,-3.2696
2250,-4.8284,3.1039,-8.7754,14.887,24.5565,-2.4348
2255,-5.5564,3.3722,-8.5454,12.2435,23.4435,-0.9739
2260,-4.9433,3.4871,-8.8137,10.4348,22.1913,1.3913
2265,-4.7134,3.7171,-8.8903,7.7217,20.5913,2.1565
2270,-4.8284,3.4488,-9.0053,4.8696,18.8522,2.713
2275,-5.2499,3.2955,-9.0053,3.6174,16.6957,3.7565
2280,-4.5984,3.1806,-9.5801,4.3826,14.6783,5.7739
2285,-4.6368,3.3339,-9.8866,3.1304,13.0783,5.4261
2290,-4.8667,3.4105,-9.5801,0.1391,11.687,4.9391
2295,-4.79,3.4871,-9.6567,-1.9478,10.3652,4.8
2300,-5.1732,3.5255,-9.5418,-3.6174,8.9043,5.0087
2305,-5.1349,3.6404,-9.4651,-5.2174,7.1652,5.0087
2310,-5.2882,3.6021,-9.4651,-6.4696,4.2435,4.9391
2315,-5.5181,3.6404,-9.3502,-7.6522,0.8348,4.7304
2320,-5.5181,3.5255,-9.4268,-8.7652,-2.7826,4.5217
2325,-5.748,3.7171,-9.5034,-9.8087,-6.1217,4.3826
2330,-5.6714,3.7171,-9.7717,-10.5739,-9.0435,4.8
2335,-5.6331,3.9087,-9.925,-11.8957,-11.6174,5.3565
2340,-5.6714,3.9853,-9.8483,-13.6348,-13.8435,5.8435
2345,-5.6331,3.9853,-9.695,-15.5826,-15.7913,6.5391
2350,-5.5181,3.947,-9.695,-17.3913,-17.7391,7.1652
2355,-5.5181,3.832,-9.3118,-19.2696,-19.4087,7.7217
2360,-5.4415,3.8704,-9.2735,-20.8,-20.8696,8.2783
2365,-5.4032,4.0236,-9.1586,-21.9826,-22.0522,8.6957
2370,-5.5181,3.9853,-8.967,-22.8174,-23.2348,9.113
2375,-5.5181,4.0236,-8.7754,-23.3739,-24.487,9.3913
2380,-5.5181,3.9087,-8.6604,-23.4435,-25.7391,9.6
2385,-5.5564,4.0236,-8.6221,-23.4435,-26.8522,9.8783
2390,-5.5564,3.9853,-8.5071,-23.3739,-27.4087,10.1565
2395,-5.5181,3.9853,-8.4688,-23.1652,-27.8261,10.3652
2400,-5.5181,3.947,-8.2389,-23.0261,-27.8261,10.4348
2405,-5.4032,3.832,-8.3155,-23.0957,-27.4783,10.5043
2410,-5.5181,3.947,-8.1622,-23.0261,-26.713,10.6435
2415,-5.4032,4.0236,-8.2389,-22.6783,-25.4609,10.713
2420,-5.4032,4.062,-8.0089,-22.6087,-24.0696,10.9217
2425,-5.5948,4.2152,-8.0089,-22.7478,-22.4,10.9217
2430,-5.4798,4.1003,-7.9706,-22.6783,-20.4522,10.7826
2435,-5.4415,4.1003,-7.8173,-22.5391,-18.5739,10.6435
2440,-5.3648,4.062,-7.6641,-22.0522,-16.9739,10.4348
2445,-5.2499,3.9853,-7.3958,-21.4261,-15.2348,10.0174
2450,-5.0966,4.062,-7.5491,-20.5217,-13.287,9.4609
2455,-5.2116,4.2152,-7.4725,-19.5478,-11.0609,8.6261
2460,-5.0583,4.1386,-7.4341,-18.087,-8.9043,7.7217
2465,-4.9816,4.1003,-7.3192,-16.6957,-6.6087,6.887
2470,-5.0583,4.2152,-7.2809,-15.6522,-4.5913,5.8435
2475,-5.0583,4.2536,-7.4725,-14.8174,-2.8522,4.8696
2480,-5.2116,4.3302,-7.3575,-13.7739,-1.2522,4.1043
2485,-5.1732,4.2536,-7.3958,-12.7304,0.1391,3.4783
2490,-5.2499,4.2536,-7.4725,-11.5478,1.4609,2.9913
2495,-5.4032,4.2536,-7.5108,-10.2957,2.6435,2.713
2500,-5.2499,4.1769,-7.5874,-9.113,3.7565,2.4348
2505,-5.4032,4.1769,-7.779,-8.2087,4.6609,2.2957
2510,-5.2882,4.1386,-7.7407,-7.513,5.3565,2.2957
2515,-5.3265,4.2536,-7.7024,-6.887,6.1217,2.1565
2520,-5.4415,4.1769,-7.894,-6.2609,6.6783,2.1565
2525,-5.4798,4.2152,-7.8173,-5.4261,7.2348,1.9478
2530,-5.4032,4.2152,-7.8557,-4.7304,7.7217,1.8783
2535,-5.3265,4.2919,-7.9323,-4.1043,8.0696,1.6696
2540,-5.4415,4.2536,-7.8557,-3.4087,8.487,1.6
2545,-5.2882,4.2919,-7.9706,-2.7826,9.0435,1.6
2550,-5.4415,4.3302,-7.9323,-2.1565,9.7391,1.4609
2555,-5.4798,4.3302,-8.0089,-1.4609,10.5043,1.3217
2560,-5.4415,4.3302,-8.0856,-0.9043,11.2,1.1826
2565,-5.2882,4.2536,-8.0856,-0.4174,11.8261,0.9739
2570,-5.3648,4.2919,-7.9706,0.3478,12.313,0.7652
2575,-5.3265,4.1003,-8.1239,0.8348,12.8696,0.6261
2580,-5.2499,4.2536,-8.0473,1.3913,13.4261,0.4174
2585,-5.3265,4.3302,-8.1239,1.9478,13.8435,0.3478
2590,-5.3265,4.2536,-8.0473,2.2261,14.1217,0.2087
2595,-5.2116,4.1769,-8.1622,2.4348,14.4,0.0696
2600,-5.3265,4.2919,-8.2389,2.6435,14.4696,-0.0696
2605,-5.2882,4.1769,-8.2772,2.9913,14.4696,-0.1391
2610,-5.1732,4.2536,-8.2772,3.0609,14.3304,-0.3478
2615,-5.0966,4.1386,-8.2389,3.1304,14.1913,-0.4174
2620,-5.2499,4.2152,-8.1239,3.2696,14.1913,-0.4174
2625,-5.1732,4.2919,-8.3155,3.1304,14.1217,-0.3478
2630,-5.1732,4.1769,-8.3538,3.1304,14.0522,-0.4174
2635,-5.1349,4.2536,-8.3538,2.7826,13.913,-0.3478
2640,-5.0583,4.1769,-8.3538,2.6435,13.5652,-0.3478
2645,-5.02,4.1386,-8.3538,2.5739,13.2174,-0.487
2650,-5.0583,4.1769,-8.3538,2.2957,12.5913,-0.6261
2655,-5.02,4.2536,-8.4688,2.087,12.1043,-0.6957
2660,-5.0583,4.1769,-8.5454,1.9478,11.687,-0.8348
2665,-4.9816,3.9853,-8.3538,1.8783,11.1304,-0.8348
2670,-5.02,4.1769,-8.3538,1.6696,10.713,-0.9043
2675,-5.02,4.1769,-8.3921,1.5304,10.2957,-1.0435
2680,-4.9433,4.1003,-8.3538,1.4609,10.087,-1.113
2685,-4.9433,4.1386,-8.4305,1.3913,9.7391,-1.0435
2690,-4.9433,4.1003,-8.4305,1.3913,9.3913,-1.2522
2695,-4.9816,4.1003,-8.4688,1.3217,8.9043,-1.3913
2700,-4.9816,4.1386,-8.5071,1.2522,8.2783,-1.5304
2705,-4.9816,4.0236,-8.5454,0.9739,7.4435,-1.4609
2710,-4.9816,4.0236,-8.3155,0.6957,6.5391,-1.4609
2715,-5.0966,4.062,-8.5454,0.2783,5.7043,-1.3913
2720,-5.0966,4.062,-8.5071,-0.1391,5.0783,-1.2522
2725,-5.0966,4.0236,-8.5071,-0.487,4.313,-0.9739
2730,-5.0966,4.1769,-8.6604,-0.9043,3.7565,-0.7652
2735,-5.02,4.1769,-8.6221,-1.3913,3.3391,-0.487
2740,-5.0966,4.1003,-8.6604,-1.8087,2.9913,-0.487
2745,-5.1349,4.1386,-8.5454,-2.1565,2.5739,-0.2783
2750,-5.1349,4.1003,-8.5838,-2.5739,2.2261,-0.2087
2755,-5.02,4.1386,-8.5071,-2.9913,1.8783,-0.1391
2760,-5.1349,4.1769,-8.3921,-3.2,1.5304,-0.1391
2765,-5.0966,4.2152,-8.4688,-3.4087,1.113,-0.0696
2770,-5.0966,4.2152,-8.4688,-3.4087,0.6957,-0.1391
2775,-4.9816,4.0236,-8.4305,-3.687,0.2783,-0.2087
2780,-4.9816,4.0236,-8.5071,-3.8957,-0.0696,-0.0696
2785,-5.0966,4.1003,-8.3921,-4.1043,-0.487,-0.1391
2790,-5.0583,4.1003,-8.3155,-4.3826,-0.6957,0.0
2795,-5.02,4.062,-8.5838,-4.6609,-0.9043,0.0696
2800,-5.1349,4.1386,-8.4305,-4.8,-1.0435,0.2087
2805,-5.0966,4.1769,-8.3921,-4.8696,-1.1826,0.2087
2810,-5.02,4.2152,-8.4688,-4.9391,-1.4609,0.1391
2815,-5.02,3.9853,-8.3155,-4.8,-1.6,-0.0696
2820,-5.0583,4.1003,-8.2389,-4.8696,-1.7391,-0.2087
2825,-5.0966,4.1003,-8.4688,-4.8696,-1.7391,-0.2783
2830,-5.0966,4.1003,-8.5454,-5.0087,-1.6696,-0.2087
2835,-5.1349,4.1003,-8.3155,-5.287,-1.6696,-0.1391
2840,-5.0966,4.1386,-8.2772,-5.3565,-1.7391,-0.0696
2845,-4.9433,4.2536,-7.894,-5.4957,-1.7391,0.0696
2850,-5.1349,4.062,-8.3155,-5.6348,-1.7391,0.2087
2855,-5.7864,4.2536,-8.1622,-5.6348,-1.5304,0.3478
2860,-5.1732,4.062,-8.1622,-5.7739,-1.3913,0.3478
2865,-5.0966,4.1386,-7.7407,-5.7043,-1.2522,0.487
2870,-5.0966,4.1003,-8.2389,-5.6348,-1.113,0.5565
2875,-5.1349,4.1003,-8.1622,-5.5652,-1.113,0.6261
2880,-5.02,4.062,-8.1239,-5.3565,-1.0435,0.6261
2885,-5.0966,4.1769,-8.3921,-5.0087,-0.9043,0.4174
2890,-5.1732,4.2536,-8.3155,-4.3826,-0.5565,0.3478
2895,-5.3265,4.1386,-8.3538,-4.1739,-0.2087,0.2087
2900,-5.0966,4.1386,-8.4688,-4.1043,-0.1391,0.1391
2905,-5.2499,4.1003,-8.3921,-4.2435,0.1391,0.2087
2910,-5.0966,4.0236,-8.3155,-4.7304,0.3478,0.5565
2915,-5.1349,4.2536,-8.4688,-5.2174,0.6261,0.8348
2920,-5.1349,4.2536,-8.3155,-5.4957,0.9739,0.9739
2925,-5.1349,4.2536,-8.3538,-5.4957,1.3217,0.9043
2930,-5.1349,4.2152,-8.2005,-5.4261,1.6696,0.7652
2935,-5.0966,4.2919,-8.2772,-5.1478,1.8783,0.6957
2940,-5.2116,4.2536,-8.2389,-5.0087,2.0174,0.6957
2945,-4.9816,4.062,-8.1239,-4.8,2.087,0.4174
2950,-5.1732,4.2152,-8.3155,-4.5913,2.0174,0.2783
2955,-5.0966,4.062,-8.2005,-4.1739,1.9478,0.2087
2960,-5.2882,4.1769,-8.2389,-3.8957,1.9478,0.1391
2965,-5.1349,4.062,-8.3538,-3.7565,2.0174,0.1391
2970,-5.1732,4.1769,-8.2005,-3.5478,1.9478,0.2087
2975,-5.2116,4.2919,-8.3538,-3.5478,2.087,0.3478
2980,-5.0583,4.1003,-8.3155,-3.687,2.2957,0.4174
2985,-5.0966,4.1769,-8.4688,-3.687,2.5043,0.5565
2990,-5.0966,4.2152,-8.4305,-3.7565,2.6435,0.5565
2995,-5.02,4.2152,-8.3538,-3.6174,2.6435,0.487
