timestamp,accX,accY,accZ,gyroX,gyroY,gyroZ
0,0.4982,-8.852,-3.4105,-6.2609,-31.7217,0.0696
5,0.8047,-8.8137,-3.3339,-7.0261,-30.2609,-1.3913
10,1.073,-8.6604,-3.3339,-7.4435,-28.8696,-3.0609
15,1.3412,-8.4688,-3.3722,-8.0,-27.9652,-4.4522
20,1.5711,-8.2772,-3.3722,-8.9043,-26.9913,-5.7739
25,1.7244,-8.1622,-3.3722,-9.8783,-26.1565,-6.9565
30,1.6861,-8.3155,-3.1039,-11.0609,-25.2522,-7.513
35,1.7244,-8.0856,-3.0273,-12.2435,-24.7652,-7.4435
40,1.4562,-8.0856,-3.0656,-13.4957,-24.9739,-7.3043
45,1.2263,-8.0856,-3.1806,-14.4696,-25.8087,-6.8174
50,1.0346,-8.0856,-3.1806,-15.3739,-26.9217,-6.1913
55,0.7281,-8.2005,-3.2955,-16.6261,-27.9652,-5.3565
60,0.4598,-8.2389,-3.4488,-18.4348,-28.7304,-4.4522
65,0.115,-8.2772,-3.6021,-20.4522,-28.7304,-3.6174
70,0.0383,-8.5071,-3.7554,-22.8174,-28.4522,-2.713
75,-0.3066,-8.3921,-3.7171,-25.3913,-28.0348,-2.0174
80,-0.5748,-8.4305,-3.9087,-27.7565,-27.8261,-1.3913
85,-0.843,-8.4688,-4.0236,-29.6348,-27.9652,-0.9043
90,-0.958,-8.3538,-3.9853,-30.8174,-28.313,-0.9043
95,-1.2646,-8.1622,-4.0236,-31.2348,-28.8696,-0.7652
100,-1.3412,-8.1622,-4.1003,-30.887,-29.7043,-0.7652
105,-1.7244,-8.0089,-4.0236,-30.2609,-30.7478,-0.9043
110,-1.8777,-8.0089,-4.3302,-29.8435,-32.0,-1.113
115,-1.8777,-8.0856,-4.5218,-29.0087,-33.6,-1.5304
120,-1.9543,-7.8557,-4.4068,-28.0348,-35.7565,-2.2957
125,-2.1076,-7.8173,-4.3302,-26.5739,-38.0522,-2.9217
130,-2.3759,-7.7024,-4.4068,-24.6261,-40.1391,-3.5478
135,-2.3375,-7.5491,-4.2919,-22.6783,-41.6696,-4.2435
140,-2.3759,-7.6257,-4.0236,-21.0783,-42.1565,-4.8696
145,-2.4908,-7.6641,-3.947,-19.8261,-41.4609,-5.6348
150,-2.5291,-7.5874,-4.0236,-19.0609,-40.1391,-6.5391
155,-2.3375,-7.5874,-3.6787,-18.5739,-38.2609,-7.6522
160,-2.1459,-7.6641,-3.4105,-18.1565,-36.4522,-8.8348
165,-2.1843,-7.7024,-3.3722,-17.8087,-34.3652,-10.087
170,-1.7627,-7.894,-3.2189,-17.6,-32.0,-10.9913
175,-1.3795,-7.779,-3.0273,-17.5304,-29.7739,-11.4087
180,-1.2263,-7.9323,-2.874,-17.8783,-27.2,-11.1304
185,-0.9197,-8.0856,-3.1039,-18.713,-24.1391,-10.3652
190,-0.6514,-7.894,-2.9123,-19.6174,-21.3565,-9.3913
195,-0.3449,-7.9323,-2.8357,-21.287,-18.5739,-7.7913
200,-0.115,-8.0856,-2.8357,-23.7913,-15.7913,-5.9826
205,0.0,-8.0473,-2.7591,-26.4348,-13.2174,-4.313
210,0.2682,-8.1622,-2.8357,-29.5652,-10.5739,-2.4348
215,0.1916,-8.1622,-2.7591,-32.6261,-7.9304,-0.8348
220,0.2682,-8.2005,-2.9123,-35.7565,-4.8696,0.6957
225,0.2682,-8.3538,-3.0273,-38.4,-1.4609,2.2261
230,0.0383,-8.5454,-3.0656,-40.5565,1.8783,3.2696
235,-0.2299,-8.6221,-3.1039,-42.5043,5.1478,4.1739
240,-0.7281,-8.6987,-3.3722,-43.9652,8.6957,4.7304
245,-1.3412,-8.5838,-3.4105,-44.8696,11.0609,5.3565
250,-1.3029,-8.6604,-3.2955,-45.0087,13.0783,5.7739
255,-1.6095,-8.6604,-3.2955,-44.0348,14.7478,6.2609
260,-1.9927,-8.3921,-3.5255,-42.5739,15.8609,6.6087
265,-2.2226,-8.3921,-3.5638,-40.487,16.7652,6.887
270,-2.3375,-8.0473,-3.6021,-37.913,17.2522,6.9565
275,-2.5291,-7.894,-3.7171,-35.3391,17.5304,7.1652
280,-2.4525,-7.7407,-3.7937,-32.9043,18.0174,7.0261
285,-2.3375,-7.4725,-3.7937,-30.9565,18.5739,6.6783
290,-2.2226,-7.3958,-3.947,-29.4957,19.4087,6.1913
295,-2.0693,-7.4341,-3.7937,-28.8696,20.0348,5.5652
300,-1.8777,-7.4341,-3.8704,-28.8696,20.6609,4.9391
305,-1.6861,-7.1659,-3.9853,-29.3565,21.0087,4.5913
310,-1.4179,-7.2425,-3.832,-30.5391,20.8696,4.2435
315,-1.1113,-7.2042,-3.947,-33.0435,19.9652,4.1043
320,-1.0346,-7.3958,-4.062,-36.313,18.6435,4.0348
325,-0.9197,-7.6641,-4.1769,-40.2783,16.9043,4.1739
330,-0.958,-7.894,-4.5218,-44.5217,15.3739,4.313
335,-0.9963,-8.0089,-4.6751,-48.5565,13.913,4.2435
340,-0.958,-8.2772,-4.9433,-52.6609,12.1739,4.0348
345,-1.2646,-8.3155,-5.3265,-56.7652,10.087,3.4783
350,-1.3412,-8.3155,-5.5948,-60.8,7.513,2.713
355,-1.5711,-8.2005,-5.6331,-64.2783,4.3826,1.7391
360,-1.4945,-8.2005,-5.6331,-66.4348,1.0435,0.3478
365,-1.6095,-8.0089,-5.6331,-66.9217,-2.5739,-1.113
370,-1.7627,-7.8173,-5.3265,-65.2522,-6.1217,-2.7826
375,-1.6095,-7.5108,-5.1349,-61.4261,-9.3913,-4.2435
380,-1.3795,-7.4725,-4.79,-56.4174,-12.1043,-5.4957
385,-1.2646,-7.2809,-4.6751,-51.4783,-14.3304,-6.1217
390,-0.958,-7.0893,-4.4452,-47.5826,-16.4174,-6.4
395,-0.6514,-7.1659,-4.4452,-45.2174,-18.087,-6.0522
400,-0.3832,-7.0893,-4.4835,-44.1043,-19.4087,-5.2174
405,-0.2682,-7.1276,-4.3302,-43.7565,-20.1043,-4.1043
410,-0.4215,-6.9743,-4.79,-43.9652,-20.1739,-2.7826
415,0.0,-7.1276,-4.3302,-44.5217,-19.9652,-1.3217
420,0.115,-7.3192,-4.5601,-45.4957,-19.2696,0.0
425,0.1533,-7.3958,-4.6368,-46.7478,-18.5043,1.2522
430,0.2682,-7.2809,-4.5218,-48.487,-17.1826,2.2957
435,0.2682,-7.4725,-4.7517,-50.5043,-15.5826,3.3391
440,0.1916,-7.7024,-4.8284,-52.6609,-13.8435,4.1043
445,0.0,-7.6641,-4.9433,-54.5391,-12.1739,4.4522
450,-0.1916,-7.7024,-5.1349,-55.8609,-10.713,4.6609
455,-0.3066,-7.7024,-5.0583,-56.7652,-9.4609,4.6609
460,-0.5365,-7.7024,-5.3265,-57.6,-7.9304,4.6609
465,-0.6131,-7.7407,-5.5564,-58.2261,-6.6087,4.5217
470,-0.8814,-7.6257,-5.3265,-58.6435,-5.4261,4.1739
475,-0.8047,-7.4341,-5.3648,-58.8522,-4.6609,3.687
480,-0.8047,-7.4341,-5.2499,-58.6435,-4.4522,3.1304
485,-0.7664,-7.2425,-5.3648,-58.087,-4.5913,2.3652
490,-0.6898,-7.2809,-5.3648,-57.2522,-5.287,1.7391
495,-0.8047,-7.1659,-5.0583,-55.8609,-6.6783,1.113
500,-0.5365,-7.2042,-5.0583,-54.2609,-8.2087,0.4174
505,-0.6514,-7.0893,-5.1349,-52.6609,-9.8783,0.0
510,-0.4982,-7.0509,-5.3265,-50.8522,-11.4087,-0.2783
515,-0.6898,-7.1276,-5.0583,-49.4609,-12.5217,-0.2087
520,-0.5365,-7.2042,-5.5181,-48.487,-13.4957,-0.2087
525,-0.4598,-7.0893,-5.5181,-48.1391,-14.1913,-0.1391
530,-0.4598,-7.1276,-5.3648,-48.2783,-14.9565,0.0
535,-0.4598,-6.936,-5.6331,-48.5565,-15.513,0.4174
540,-0.5365,-6.9743,-5.5564,-48.9739,-15.8609,0.7652
545,-0.5365,-6.8977,-5.4415,-49.0435,-15.7913,1.113
550,-0.6131,-6.8977,-5.5181,-49.113,-15.3739,1.8087
555,-0.5748,-7.2042,-5.4032,-49.0435,-14.4,2.4348
560,-0.3832,-7.0509,-5.3648,-48.6957,-13.287,3.2696
565,-0.3449,-7.2042,-5.2499,-48.1391,-11.9652,4.2435
570,-0.3832,-7.0509,-5.4415,-47.3043,-10.2957,5.0783
575,-0.3449,-7.1276,-5.2499,-46.4696,-8.6261,5.9826
580,-0.2682,-7.1659,-5.1732,-45.4957,-7.0261,6.8174
585,-0.115,-7.0509,-5.4032,-44.5913,-5.1478,7.6522
590,0.0,-7.0126,-5.2882,-43.687,-3.5478,8.2783
595,0.0,-7.0509,-5.4032,-43.1304,-2.1565,8.487
600,0.0,-6.936,-5.4415,-42.6435,-1.1826,8.5565
605,0.0,-7.0126,-5.5181,-42.0174,-0.2087,8.6261
610,-0.0766,-7.0509,-5.5181,-41.4609,0.5565,8.6957
615,-0.5365,-6.8977,-5.5948,-40.9739,1.113,8.6261
620,-0.5365,-7.0126,-5.6331,-40.4174,1.3913,8.5565
625,-0.7281,-7.0509,-5.7097,-39.9304,1.4609,8.6261
630,-1.1496,-7.0509,-5.9013,-39.513,1.113,8.6957
635,-1.1496,-6.9743,-5.9013,-39.0957,0.2783,8.6957
640,-1.3029,-7.0893,-5.9396,-38.7478,-0.5565,8.8348
645,-1.5711,-7.1276,-6.0163,-38.2609,-1.4609,8.7652
650,-1.916,-7.0509,-6.2079,-37.7739,-2.2957,8.7652
655,-1.9927,-6.9743,-6.1313,-37.1478,-2.6435,8.6957
660,-2.1076,-6.936,-6.2079,-36.313,-2.713,8.6261
665,-2.1459,-6.7827,-5.978,-35.2,-2.5043,8.6261
670,-1.9543,-7.0509,-6.2845,-33.8783,-2.2957,8.5565
675,-2.0693,-6.7444,-6.2462,-32.2783,-1.8783,8.4174
680,-1.916,-6.936,-6.2845,-30.887,-1.3913,8.3478
685,-1.4945,-6.9743,-6.2845,-29.5652,-1.0435,8.2087
690,-1.4179,-6.8593,-6.3612,-28.313,-1.0435,7.7913
695,-1.1879,-6.821,-6.3995,-27.0609,-1.2522,7.4435
700,-0.9963,-6.821,-6.4761,-25.8783,-1.9478,7.3043
705,-0.8814,-6.7827,-6.7827,-24.8348,-2.7826,6.7478
710,-0.8814,-6.7444,-6.6677,-23.7217,-3.8957,6.2609
715,-0.958,-6.6677,-6.821,-22.7478,-4.7304,5.6348
720,-0.958,-6.6294,-6.8593,-22.0522,-5.3565,4.8696
725,-1.0346,-6.5145,-6.821,-21.7739,-5.4957,4.1739
730,-1.2646,-6.5145,-6.821,-21.7043,-5.3565,3.4783
735,-1.3412,-6.5145,-6.8977,-21.9826,-4.8696,2.713
740,-1.4179,-6.2462,-6.7827,-22.2609,-3.8957,2.2957
745,-1.5711,-6.0929,-6.5911,-22.4696,-2.5739,1.6
750,-1.5711,-6.0163,-6.6294,-22.6783,-1.5304,1.0435
755,-1.7244,-5.978,-6.4378,-22.887,-0.6957,0.6261
760,-1.8394,-5.9396,-6.5145,-23.3043,0.2087,0.6261
765,-1.916,-5.863,-6.3995,-24.0,0.9043,0.6957
770,-1.916,-5.9396,-6.6294,-24.6261,1.0435,0.6957
775,-1.8394,-5.9396,-6.6294,-25.4609,1.113,1.113
780,-1.6861,-6.2079,-6.7444,-26.2957,1.0435,1.4609
785,-1.6861,-6.2462,-6.7444,-26.9913,0.5565,1.7391
790,-1.8011,-6.1313,-6.821,-27.6174,-0.2087,1.7391
795,-1.6861,-6.2079,-7.0509,-28.0348,-0.9739,2.2261
800,-1.8011,-6.1696,-7.1276,-28.7304,-1.8087,2.5739
805,-1.6861,-6.1696,-7.2042,-28.7304,-2.9913,2.4348
810,-1.7244,-6.2079,-7.1659,-28.313,-4.0348,2.087
815,-1.7627,-6.2462,-7.1276,-27.7565,-5.0087,1.9478
820,-1.916,-6.2462,-7.2042,-27.6174,-5.7043,1.8087
825,-1.8777,-6.0546,-7.1276,-27.2696,-5.9826,1.4609
830,-2.031,-5.978,-7.2042,-26.9913,-6.1217,1.1826
835,-1.8394,-5.978,-7.1659,-26.9913,-6.1217,0.6261
840,-1.8394,-5.9396,-7.2425,-26.9913,-5.4957,0.2087
845,-1.8394,-5.8247,-7.3575,-27.4087,-4.6609,0.1391
850,-1.8394,-5.863,-7.2809,-28.0348,-4.0348,-0.1391
855,-1.8777,-5.9013,-7.4725,-28.8696,-3.687,-0.2783
860,-1.8011,-5.7097,-7.4341,-29.7739,-3.5478,-0.487
865,-1.8777,-5.6714,-7.3575,-30.7478,-3.6174,-0.487
870,-1.5711,-5.7864,-7.4341,-32.2087,-2.9913,1.3913
875,-1.8011,-5.5564,-7.3192,-33.1826,-2.4348,1.3913
880,-1.6478,-5.6714,-7.2809,-33.1826,-1.8087,0.9739
885,-1.6095,-5.6714,-7.3958,-32.2783,-0.5565,0.9043
890,-1.5328,-5.5181,-7.4341,-31.0957,0.8348,0.7652
895,-1.3029,-5.748,-7.0893,-29.6348,2.3652,0.6957
900,-1.3412,-5.6331,-7.0126,-27.8261,3.7565,0.6957
905,-1.1879,-5.6331,-7.0509,-25.4609,4.3826,0.6261
910,-1.2263,-5.5564,-7.0509,-23.1652,4.2435,0.3478
915,-1.073,-5.5948,-6.9743,-20.8696,3.2,-0.4174
920,-0.9197,-5.3648,-6.936,-18.5739,1.5304,-1.5304
925,-1.073,-5.3648,-7.0126,-16.5565,-0.6261,-2.9217
930,-1.2263,-5.2882,-7.0893,-14.887,-2.9217,-4.1739
935,-1.6095,-5.0966,-7.0126,-14.1217,-4.8696,-4.8
940,-1.6861,-5.0966,-7.2425,-14.4,-6.4696,-4.9391
945,-1.916,-4.8667,-7.4341,-15.3043,-7.9304,-4.6609
950,-1.9927,-4.905,-7.2809,-17.1826,-9.0435,-4.1043
955,-1.8777,-4.79,-7.3575,-19.8957,-9.8783,-3.1304
960,-2.1076,-5.02,-7.5491,-23.0957,-10.6435,-1.6
965,-1.8777,-4.5601,-7.5874,-27.4087,-10.7826,-0.6261
970,-1.6861,-4.3302,-7.5108,-31.1652,-10.8522,-2.087
975,-1.7627,-4.1003,-7.4725,-34.9217,-10.3652,-3.8957
980,-1.8777,-4.2152,-7.4725,-37.913,-9.1826,-5.4261
985,-1.6861,-4.3302,-7.5108,-40.9043,-6.9565,-6.0522
990,-1.4945,-4.3685,-7.6257,-43.6174,-3.7565,-6.0522
995,-1.3795,-4.5218,-7.2809,-46.4696,0.0696,-6.4696
1000,-1.0346,-4.4452,-7.0509,-48.0,3.8957,-7.0957
1005,-1.1879,-3.7937,-7.3575,-49.8783,6.1913,-8.6261
1010,-1.5711,-3.1039,-7.4341,-50.2261,6.5391,-13.8435
1015,-2.5675,-1.4945,-7.0126,-48.9739,6.5391,-20.7304
1020,-4.0236,-1.3029,-7.1659,-47.6522,4.2435,-23.9304
1025,-4.79,-2.2992,-6.7827,-50.9913,0.6957,-22.1913
1030,-4.9433,-2.7591,-5.4415,-56.6957,-0.0696,-16.0696
1035,-5.1732,-2.7591,-4.4835,-56.4174,4.8696,-10.7826
1040,-4.3302,-3.832,-4.2919,-52.9391,12.1043,-6.1913
1045,-4.2536,-4.062,-3.9853,-51.8261,14.1217,-5.1478
1050,-4.3302,-4.1769,-3.5638,-49.8087,14.6087,-4.8696
1055,-4.3685,-4.1003,-3.4105,-45.287,17.0435,-5.0087
1060,-4.062,-4.2919,-3.1806,-42.1565,20.4522,-4.0348
1065,-4.1003,-4.5218,-3.5638,-41.4609,22.9565,-3.9652
1070,-3.832,-4.6751,-3.0656,-41.4609,25.4609,-4.0348
1075,-3.832,-4.5601,-2.6058,-39.3043,29.5652,-4.1739
1080,-3.2955,-4.3302,-2.4142,-34.5739,34.7826,-3.687
1085,-3.1423,-4.1769,-2.4142,-29.0087,40.2087,-3.0609
1090,-2.8357,-4.2152,-2.3759,-23.7913,45.8435,-1.4609
1095,-2.4908,-4.2152,-2.4142,-19.2696,51.8957,0.6261
1100,-1.8011,-4.4068,-2.2992,-14.6783,58.3652,2.4348
1105,-1.1496,-4.7134,-2.1843,-8.9043,65.9478,5.1478
1110,-0.3832,-4.9816,-2.1459,-1.7391,73.8783,7.9304
1115,-0.3449,-5.0966,-2.2992,5.6348,81.4609,10.3652
1120,-0.4215,-5.5564,-2.4525,13.2174,88.2783,12.4522
1125,-0.4215,-5.4415,-2.4908,21.0087,93.9826,15.3739
1130,-0.4215,-5.5181,-2.6058,28.1739,99.2,18.7826
1135,-0.0383,-5.748,-2.8357,33.8087,104.6261,22.3304
1140,0.3449,-5.4032,-3.2189,38.2609,111.3043,26.2957
1145,0.5365,-5.2116,-3.7554,41.7391,118.887,30.6783
1150,1.0346,-4.905,-4.8284,44.3826,125.913,34.7826
1155,1.3795,-4.6368,-5.4415,45.0087,131.8261,38.4696
1160,1.5328,-3.6021,-6.7827,47.3739,134.0522,38.1913
1165,1.5711,-3.4488,-7.4341,50.5739,130.5043,35.8261
1170,1.2646,-2.7974,-8.3921,54.6783,120.487,28.8
1175,0.843,-2.4525,-8.7754,58.713,105.6696,18.9217
1180,0.0383,-2.0693,-8.737,60.7304,89.6696,7.5826
1185,-0.5748,-1.916,-8.2772,60.3826,76.3826,-1.8087
1190,-0.958,-1.8011,-7.3575,58.3652,68.1739,-8.6957
1195,-1.1496,-1.6095,-6.4761,56.0696,65.4609,-12.0348
1200,-1.1113,-1.5711,-6.0929,54.6783,67.4783,-12.5913
1205,-0.958,-1.7627,-5.7097,54.1217,73.6696,-10.2957
1210,-0.843,-1.6861,-5.6714,53.1478,80.6957,-7.3043
1215,-0.843,-1.4179,-5.748,51.4783,87.6522,-3.4087
1220,-0.7281,-1.1879,-6.2079,48.487,94.1217,1.0435
1225,-0.8047,-1.3029,-6.4761,43.4783,100.5217,5.0087
1230,-0.4982,-1.1879,-6.7444,36.0348,106.713,8.2783
1235,-0.9963,-1.1113,-6.8593,27.8957,111.3739,9.2522
1240,-1.4179,-1.1496,-7.5108,20.313,114.2957,8.8348
1245,-1.8394,-1.8011,-7.8557,12.5913,115.7565,8.4174
1250,-2.4142,-2.2609,-8.2005,6.4696,116.9391,8.4174
1255,-3.2572,-2.7974,-8.3538,2.4348,117.7739,7.9304
1260,-4.3302,-3.4488,-8.2772,0.6261,117.4261,6.3304
1265,-5.3648,-3.8704,-8.2005,1.6696,115.3391,4.1739
1270,-5.748,-4.3685,-8.4688,5.2174,112.2087,3.2
1275,-5.7864,-4.4835,-8.0856,10.3652,109.7739,3.5478
1280,-5.4798,-4.905,-8.0089,16.4174,109.7739,4.1043
1285,-5.1349,-4.6751,-7.7024,20.9391,113.113,4.5913
1290,-4.6751,-4.5984,-7.2425,24.5565,117.2174,4.1043
1295,-4.2536,-4.4068,-6.6677,27.2,120.9739,2.9217
1300,-3.6787,-4.0236,-6.3229,27.7565,124.5217,2.087
1305,-3.2572,-3.2189,-5.5948,25.9478,128.2783,1.6696
1310,-2.6824,-2.7591,-5.1732,22.1217,131.6174,1.0435
1315,-2.1076,-2.5291,-4.5218,17.3913,134.4696,-0.6957
1320,-1.7244,-2.3759,-4.3302,12.3826,137.4609,-4.2435
1325,-1.4179,-2.3375,-4.2919,8.0,141.287,-10.087
1330,-0.8047,-2.2992,-4.3302,4.5217,146.0174,-16.4174
1335,-0.6131,-2.9123,-4.7517,2.7826,151.1652,-23.513
1340,-0.1916,-3.6021,-5.1732,3.4783,157.7739,-32.1391
1345,-0.1533,-3.9853,-5.6331,6.1217,163.0609,-40.8348
1350,0.2682,-4.4068,-6.2462,9.0435,168.0696,-48.5565
1355,0.6898,-4.8667,-6.7444,12.4522,172.5913,-55.2348
1360,1.3029,-5.3648,-6.7827,16.3478,175.8609,-60.8
1365,2.0693,-6.2079,-6.7061,22.887,178.2261,-66.9217
1370,2.7207,-6.7444,-6.7827,32.6957,181.3565,-73.2522
1375,4.1003,-7.2425,-7.2425,42.2261,186.0174,-77.9826
1380,4.8667,-6.4761,-7.3958,51.2696,191.513,-81.6
1385,6.2845,-5.6714,-8.2772,62.2609,197.5652,-84.6609
1390,7.8557,-4.4835,-9.81,70.887,203.9652,-87.2348
1395,9.0436,-4.4452,-10.6914,76.313,212.9391,-89.0435
1400,11.2662,-4.8667,-11.1895,80.7652,224.5565,-87.8609
1405,13.3355,-6.2079,-10.6914,88.0,235.4087,-81.2522
1410,15.0982,-8.5838,-10.1932,95.7913,242.2261,-76.313
1415,16.0179,-10.9979,-9.6184,101.7739,245.4261,-75.0609
1420,16.0945,-12.1092,-8.9286,105.6696,245.5652,-78.4
1425,15.1365,-12.7607,-8.6221,108.7304,244.7304,-85.2174
1430,13.4121,-12.5691,-7.9706,111.7217,243.1304,-92.5217
1435,13.1822,-11.841,-7.7407,113.3217,241.8087,-94.4696
1440,12.1859,-10.0782,-8.1622,108.9391,242.9913,-94.4
1445,11.4578,-8.8903,-8.852,98.7826,248.0,-95.0261
1450,10.9213,-7.8173,-8.967,85.1478,259.1304,-95.3739
1455,11.1895,-8.1622,-9.0819,70.0522,277.3565,-93.287
1460,12.4541,-9.4268,-8.8903,55.513,302.0522,-88.1391
1465,13.8336,-11.4578,-9.1202,42.9913,327.6522,-84.5913
1470,14.7533,-13.872,-9.695,34.2261,347.4087,-84.1043
1475,17.6273,-17.0525,-9.925,29.7043,357.6348,-90.2957
1480,20.1182,-19.4284,-10.3848,32.6261,356.4522,-105.8087
1485,23.1838,-20.9229,-11.0746,45.0087,346.9913,-124.6609
1490,25.7896,-21.0379,-11.8027,64.3478,338.5043,-139.8957
1495,29.5833,-20.8846,-12.6074,85.2174,331.1304,-153.113
1500,31.8825,-18.8153,-13.1055,105.9478,325.9826,-164.3826
1505,30.1198,-16.7077,-12.4541,125.287,321.0435,-173.913
1510,26.4793,-14.83,-10.7297,144.2087,317.0783,-180.1043
1515,23.6053,-14.0636,-8.3155,162.8522,311.7217,-185.7391
1520,16.9376,-13.1439,-5.748,182.0522,301.2174,-191.4435
1525,12.1859,-12.1859,-3.7554,197.0087,284.7304,-192.2087
1530,9.2352,-10.9213,-2.031,205.3565,266.087,-191.0261
1535,6.0546,-9.7717,-0.843,208.8348,245.9826,-189.0087
1540,4.3302,-8.967,0.0,210.2261,225.3913,-183.7913
1545,2.2226,-8.0473,0.8047,209.7391,206.2609,-177.8087
1550,0.115,-6.4378,1.1879,206.6783,190.3304,-174.0522
1555,-0.115,-4.2152,1.1113,201.1826,178.713,-170.3652
1560,1.0346,-1.6861,1.0346,190.4,172.5913,-165.3565
1565,1.9927,0.0,0.8047,179.2696,167.7217,-159.3043
1570,4.6751,2.4908,0.6898,169.1826,164.1043,-150.5391
1575,7.2042,4.1386,1.2646,159.3739,163.8261,-142.6087
1580,9.3885,5.0966,1.916,151.7913,166.887,-135.6522
1585,11.3428,5.4415,2.4908,145.8087,171.8261,-130.1565
1590,11.841,5.4415,2.9123,140.1739,178.6435,-124.3826
1595,11.9943,5.02,3.2572,133.0087,184.6957,-117.287
1600,11.4578,4.4835,3.3722,121.7391,187.4087,-109.0783
1605,10.0782,3.6404,3.1806,106.087,188.2435,-100.1043
1610,9.5418,3.2572,3.2955,88.0696,188.7304,-94.4
1615,8.2389,2.031,3.832,72.0,192.0696,-85.287
1620,7.2809,0.9963,4.5218,60.2435,192.4174,-77.913
1625,7.0893,0.115,4.9433,52.8,190.6783,-74.1565
1630,6.6294,-0.4215,5.1732,49.7391,189.0783,-73.7391
1635,6.5145,-0.6898,5.0966,52.3826,187.1304,-76.0348
1640,6.6677,-0.9963,5.3648,58.9913,184.7652,-79.1652
1645,6.8593,-0.9197,5.4798,68.313,182.9565,-82.6435
1650,7.3958,-0.3066,6.0163,80.4174,182.6087,-86.4
1655,8.3155,0.3066,6.6677,92.2435,184.487,-86.4
1660,8.5454,0.4215,7.779,101.2174,185.6,-84.8
1665,9.9633,2.3375,7.8557,106.5043,183.9304,-85.913
1670,10.4614,3.2189,8.737,105.0435,186.713,-81.4609
1675,10.9596,3.8704,9.3118,98.4348,189.4261,-73.2522
1680,11.1895,3.9087,9.925,90.8522,189.287,-64.487
1685,11.8027,3.6404,10.653,84.9391,185.4609,-58.2957
1690,12.0709,2.874,11.1129,79.8609,179.5478,-53.1478
1695,12.5691,2.6058,10.6914,74.713,169.8783,-51.7565
1700,12.6074,2.1459,9.8483,67.0609,157.6348,-49.4609
1705,12.1859,1.2646,9.0053,59.5478,146.4348,-42.087
1710,12.1475,0.2682,8.6221,53.7043,135.1652,-31.7913
1715,11.841,-1.1879,7.4725,51.687,118.1913,-24.2783
1720,11.2662,-2.3759,6.2845,54.6087,102.9565,-20.6609
1725,10.2698,-2.6058,5.6331,60.3826,89.9478,-18.4348
1730,9.7334,-2.9123,5.2882,69.7739,81.1826,-20.0348
1735,8.9286,-2.8357,5.4415,79.0957,77.6348,-24.0
1740,8.5071,-2.4525,5.2116,87.6522,78.6087,-26.9913
1745,8.0473,-2.4908,6.2462,89.7391,82.4348,-29.0783
1750,8.5071,-1.6861,6.7827,84.8,84.2435,-39.5826
1755,8.4305,-1.073,7.1659,74.713,85.3565,-51.2696
1760,8.5071,-0.1533,7.3192,71.7217,91.7565,-47.1652
1765,8.3538,0.1916,7.7024,70.3304,98.9913,-42.5739
1770,8.967,0.4598,7.4341,66.2261,105.1826,-41.0435
1775,7.894,0.843,7.2425,57.7391,110.3304,-43.7565
1780,8.3921,0.958,7.2042,49.2522,118.4696,-40.2087
1785,7.8557,1.0346,7.0893,46.1217,129.3217,-33.6696
1790,6.9743,1.0346,6.7061,45.913,139.5478,-29.5652
1795,7.0126,1.073,6.5528,44.9391,148.313,-29.1478
1800,6.1313,1.5711,6.1313,42.087,157.6348,-30.1217
1805,6.3995,1.5711,6.0546,38.6783,166.887,-26.8522
1810,5.8247,1.6861,5.7864,35.3391,174.1913,-22.4
1815,5.5948,1.5711,5.863,31.2348,178.2261,-18.2957
1820,4.8667,1.4945,5.5948,27.9652,180.2435,-14.6783
1825,4.8284,1.4945,5.4798,26.5739,179.8261,-10.713
1830,4.5601,1.3412,5.7097,25.113,177.9478,-8.0
1835,4.4068,1.0346,5.5181,24.6261,174.4,-6.3304
1840,4.1386,1.1496,5.4798,26.087,169.8087,-5.287
1845,4.062,1.2263,5.4798,30.6783,163.8957,-5.6348
1850,3.9853,1.7627,5.748,34.9217,157.2174,-6.887
1855,3.9853,1.2263,6.4378,36.1739,151.1652,-7.7217
1860,3.947,0.8814,7.1659,37.0087,145.4609,-8.9739
1865,4.062,0.8814,7.3958,37.4957,140.1739,-10.3652
1870,4.062,0.843,7.5874,36.9391,133.7043,-10.8522
1875,4.2536,1.2646,7.5491,34.2261,127.0261,-9.1826
1880,4.1769,1.5328,7.3958,31.6522,120.1391,-8.6957
1885,4.3302,2.031,7.3192,28.5913,113.6696,-6.5391
1890,4.8284,2.0693,6.9743,25.6696,108.2435,-2.7826
1895,4.2919,2.6824,6.6677,22.0522,104.9043,0.487
1900,4.4835,2.6441,6.5528,20.2435,102.8174,2.0174
1905,4.2919,2.989,6.4761,19.2,102.4,3.4783
1910,3.947,2.9123,7.0509,18.1565,102.8174,4.0348
1915,3.832,2.7207,7.2809,17.6,103.8609,4.5217
1920,3.4105,2.6824,7.6257,16.8348,105.4609,5.2174
1925,3.0656,2.6824,7.9323,15.1652,107.5478,5.7043
1930,3.0273,2.2609,8.5838,12.5913,109.4261,5.9826
1935,2.9123,1.6478,9.4268,10.3652,111.0957,7.3043
1940,2.7591,0.958,10.0399,10.3652,111.7913,8.8348
1945,2.5291,0.8047,10.3848,11.4087,111.2348,10.3652
1950,2.4908,0.3449,10.3465,14.1217,108.5913,11.8957
1955,2.7591,0.1533,10.1166,16.9043,104.2087,12.4522
1960,2.7207,0.2299,9.6184,19.0609,99.1304,12.5913
1965,2.989,0.3066,9.3502,20.3826,93.913,12.8
1970,3.0273,0.4982,8.8137,20.8696,88.9043,13.6348
1975,3.0656,0.6898,8.5071,19.9652,83.8957,14.3304
1980,2.7207,0.958,7.5874,17.4609,78.5391,14.7478
1985,3.3339,2.1459,7.7407,12.9391,72.9739,14.5391
1990,3.1423,2.3375,7.779,10.7826,66.2957,15.2348
1995,3.1806,2.3375,7.894,9.6,59.7565,14.6087
2000,2.7207,2.4525,8.3921,8.2783,54.2609,14.0522
2005,2.0693,2.989,8.6221,6.1913,50.8522,13.5652
2010,1.5328,3.1806,8.8137,6.3304,48.4174,11.1304
2015,1.3412,3.2955,9.1586,5.9826,47.3739,9.8087
2020,1.2646,3.4871,8.967,4.8,47.1652,9.3913
2025,1.3795,3.4871,9.0819,3.8957,47.0957,9.5304
2030,1.1879,3.3339,9.0053,1.9478,46.887,9.4609
2035,1.1496,3.0656,9.1586,-0.4174,46.5391,9.7391
2040,1.0346,2.989,8.967,-2.9217,46.1913,10.087
2045,1.1879,2.989,9.1586,-5.287,45.7043,10.713
2050,1.1496,2.6441,9.1586,-7.4435,44.8696,11.4087
2055,1.1879,2.2609,9.0436,-9.1826,43.7565,12.3826
2060,1.2263,2.2609,8.9286,-10.6435,42.2957,13.0783
2065,1.2263,2.1843,8.8137,-12.1739,40.3478,13.7043
2070,1.2263,2.1459,8.6604,-13.9826,37.913,13.9826
2075,1.4179,2.1076,8.6221,-15.4435,35.2696,15.0261
2080,0.7664,2.1459,8.1622,-16.5565,32.1391,16.0
2085,1.0346,2.4142,8.4305,-17.9478,29.0087,16.2783
2090,0.9197,2.4525,8.3538,-18.9217,25.3217,17.3913
2095,0.4982,2.7591,8.4688,-19.2696,22.6087,18.1565
2100,0.3066,2.7591,8.6987,-19.4783,20.1043,18.0174
2105,0.1916,2.6058,9.0819,-19.7565,18.2957,17.3913
2110,0.0383,2.7207,8.9286,-20.1043,17.0435,16.6957
2115,0.115,2.7974,9.0436,-21.9826,15.513,16.487
2120,-0.1916,2.7207,9.0436,-24.9739,13.5652,16.4174
2125,-0.0383,3.3722,9.2735,-30.6783,10.5043,19.1304
2130,-0.1916,3.2189,9.2735,-34.713,6.6783,16.3478
2135,-0.1916,3.0656,9.1586,-37.0087,4.2435,14.0522
2140,-0.4215,3.1806,9.3885,-39.7217,2.0174,12.7304
2145,-0.2299,2.989,9.1586,-42.6435,-0.2783,12.2435
2150,-0.5365,2.8357,8.9286,-45.9826,-2.2957,11.7565
2155,-0.4598,2.6441,8.9286,-49.0435,-4.1739,11.2
2160,-0.3449,2.2992,8.7754,-51.6174,-6.1913,11.6174
2165,-0.2299,1.6478,9.1969,-53.1478,-7.3739,11.7565
2170,-0.1916,1.0346,9.2352,-53.5652,-8.0,12.1043
2175,0.0383,0.8047,9.2352,-52.8696,-8.6957,12.8
2180,0.3066,0.4982,9.0053,-52.0348,-11.4087,13.913
2185,0.8814,0.7281,8.2772,-51.5478,-15.7217,15.3043
2190,1.0346,0.5365,8.3155,-51.6174,-20.1043,16.6957
2195,0.958,0.6514,7.894,-52.0348,-24.3478,17.8783
2200,1.3029,0.3832,8.1622,-51.8957,-27.8261,18.8522
2205,1.3795,0.5748,8.2005,-51.0609,-31.0957,19.7565
2210,1.8011,0.6514,8.4688,-50.5739,-34.3652,20.5217
2215,1.6861,0.7281,8.6221,-50.4348,-37.287,20.4522
2220,1.916,0.3832,9.0436,-50.7826,-40.7652,20.313
2225,2.2609,0.2299,9.81,-51.0609,-44.0348,19.8261
2230,2.1843,0.0,10.1549,-50.713,-46.2609,19.6174
2235,2.2609,-0.2299,9.9633,-50.4348,-48.6957,19.4087
2240,2.6441,-0.5365,10.0016,-53.4261,-51.6174,22.6087
2245,2.5675,-0.6514,9.0819,-57.113,-55.7913,21.4261
2250,2.3375,-0.7281,8.737,-60.5217,-60.8,20.1739
2255,2.4525,-0.9963,8.3921,-63.2348,-64.7652,19.8957
2260,2.2226,-1.2263,8.5838,-63.513,-67.8261,19.5478
2265,2.5675,-1.3029,9.0053,-60.1739,-69.7043,20.1739
2270,2.874,-2.1459,9.695,-54.7478,-71.6522,19.2696
2275,2.7974,-2.7207,9.5801,-49.9478,-73.8783,15.7913
2280,2.874,-2.2992,9.695,-48.5565,-74.713,12.7304
2285,3.3722,-1.5328,10.1166,-45.2174,-72.9043,14.4
2290,4.1386,-1.3795,9.695,-38.8174,-71.7217,17.113
2295,4.1769,-0.7664,9.2735,-34.2957,-71.7913,18.0174
2300,4.8667,0.0383,9.1969,-34.5739,-72.3478,20.1043
2305,4.6751,0.0766,9.6184,-36.3826,-71.0261,23.1652
2310,4.5601,-0.2682,9.6567,-37.3565,-68.8696,25.5304
2315,4.5984,-0.7664,9.81,-38.1913,-67.2,25.1826
2320,4.2536,-0.9963,9.8866,-38.4,-66.8522,23.3043
2325,4.4835,-1.4179,9.3885,-37.5652,-67.3391,22.0522
2330,4.8667,-1.9927,9.3502,-34.9913,-67.1304,21.6348
2335,4.4452,-2.1076,9.1586,-29.4261,-65.7391,20.7304
2340,3.8704,-2.2226,8.5838,-24.2087,-65.3217,20.7304
2345,3.9087,-2.3375,8.1622,-21.4957,-66.713,21.0087
2350,4.4835,-2.4142,8.2389,-19.2,-68.313,20.4522
2355,5.2116,-2.6824,8.8903,-14.9565,-68.8696,19.4087
2360,4.6368,-2.6441,9.1969,-8.0696,-68.4522,18.6435
2365,4.3302,-2.6824,9.2735,-2.087,-69.2174,19.5478
2370,4.8284,-2.6441,8.6987,1.0435,-70.6783,21.913
2375,5.2882,-2.7974,8.737,1.6696,-72.0696,22.6087
2380,5.2882,-2.4525,8.6987,1.6696,-72.5565,21.913
2385,5.2882,-2.5291,8.6221,2.087,-72.487,21.4957
2390,4.4452,-2.3375,8.5454,1.3913,-72.7652,21.287
2395,4.5218,-2.2609,8.4688,-0.2087,-74.087,22.1217
2400,5.2116,-2.7207,8.7754,-1.4609,-75.2696,22.4696
2405,5.0583,-2.4525,8.852,-0.2087,-74.4348,21.4261
2410,5.3648,-2.3375,8.6987,0.9043,-72.3478,20.1739
2415,4.7134,-2.4908,8.737,0.487,-71.3739,18.6435
2420,5.7864,-2.6058,8.6987,0.3478,-71.2348,18.713
2425,5.978,-2.4525,8.4688,1.2522,-70.6087,16.8348
2430,5.7097,-2.3759,7.9323,2.6435,-69.5652,14.9565
2435,5.6714,-2.1843,7.5108,3.7565,-69.1478,13.8435
2440,5.9013,-2.3375,7.5874,3.7565,-69.0087,12.8696
2445,5.978,-2.4908,7.7407,3.687,-67.9652,11.0609
2450,5.3648,-2.4142,7.5108,4.1739,-66.6435,8.9043
2455,4.905,-2.2226,7.6257,4.313,-65.8087,7.5826
2460,5.2116,-2.4142,7.7024,3.0609,-65.9478,6.6783
2465,5.3265,-2.4142,7.6641,2.0174,-65.113,5.4261
2470,5.0583,-2.4142,7.6641,1.5304,-64.1391,3.4783
2475,5.0583,-2.4525,7.779,0.9043,-64.2783,2.0174
2480,5.1732,-2.4142,7.7407,-0.3478,-64.9043,1.0435
2485,5.0966,-2.4525,7.5874,-2.3652,-66.0174,-0.2087
2490,5.5181,-2.7207,7.6257,-3.8957,-67.8957,-1.3217
2495,5.5181,-2.7207,7.5874,-3.4783,-69.913,-2.1565
2500,5.7864,-2.8357,7.4341,-2.6435,-71.0957,-2.4348
2505,5.6331,-2.9123,7.4725,-0.3478,-71.2348,-1.4609
2510,5.748,-3.1039,7.4725,1.7391,-71.1652,-0.9739
2515,5.8247,-2.9123,7.3192,3.0609,-70.6087,-0.0696
2520,5.5564,-2.9507,7.2425,3.3391,-69.913,1.3913
2525,5.5181,-2.874,7.0893,2.3652,-70.7478,2.5739
2530,5.6714,-2.7974,7.2809,1.2522,-72.6261,3.4087
2535,5.5948,-2.7591,7.3575,1.3913,-74.2261,3.7565
2540,5.8247,-2.874,7.5108,1.9478,-75.9652,3.4087
2545,5.6714,-2.7974,7.5108,2.4348,-77.8435,2.9217
2550,5.863,-2.7207,7.3958,2.3652,-79.7913,2.9217
2555,5.6331,-2.7207,7.3575,2.087,-81.7391,3.1304
2560,5.9013,-2.9507,7.2042,1.8087,-83.8957,2.6435
2565,6.0929,-2.874,7.0126,1.3217,-86.4,0.6261
2570,6.0546,-2.7974,6.8977,-0.2087,-88.9043,-2.3652
2575,5.978,-3.1039,6.6294,-1.3217,-90.6435,-5.7739
2580,6.0929,-2.6824,6.3995,-1.113,-91.0609,-8.0
2585,6.3612,-2.6824,6.1696,-1.6,-89.9478,-7.7913
2590,6.4761,-2.9123,6.1313,-2.3652,-88.2783,-6.7478
2595,6.3995,-3.0273,6.1313,-2.4348,-87.513,-6.5391
2600,6.5528,-3.1039,5.8247,-1.3217,-88.1391,-9.5304
2605,6.8977,-3.3339,6.0929,-0.8348,-89.3217,-12.1739
2610,7.2425,-3.2572,5.748,0.4174,-90.5043,-14.8174
2615,7.3958,-3.2955,5.748,1.8783,-91.5478,-16.6261
2620,7.5108,-3.1423,5.7097,4.2435,-92.5913,-17.6
2625,7.779,-3.3339,5.7097,6.1217,-93.7739,-17.9478
2630,7.8173,-2.989,5.6714,7.6522,-94.5391,-16.9739
2635,7.7024,-2.9123,5.6331,8.487,-95.3739,-14.887
2640,7.779,-3.0273,5.8247,8.9043,-95.4435,-12.0348
2645,7.7024,-2.7974,5.4415,9.9478,-96.6261,-10.8522
2650,7.3192,-3.0273,5.6331,11.3391,-98.713,-10.2957
2655,7.4341,-2.9123,5.4798,10.9913,-100.4522,-8.3478
2660,7.4725,-3.1806,5.5948,8.9739,-102.0522,-7.2348
2665,7.7407,-3.2189,5.0966,6.9565,-104.1391,-7.7913
2670,7.779,-3.4871,5.3648,5.1478,-105.6,-9.6
2675,8.0856,-3.1806,4.8284,3.8261,-105.3913,-12.8696
2680,8.737,-2.874,5.02,2.1565,-102.887,-15.3043
2685,8.4688,-3.0273,4.5218,2.3652,-99.7565,-18.8522
2690,8.6604,-3.0656,4.2536,1.9478,-96.1391,-18.9217
2695,8.8137,-3.1039,4.3685,2.3652,-92.6609,-19.0609
2700,8.7754,-3.0656,4.3302,4.5217,-89.7391,-19.8261
2705,8.967,-2.989,4.3685,6.887,-87.5826,-20.6609
2710,8.8137,-3.0273,4.8284,9.1826,-86.8174,-20.7304
2715,8.6221,-3.2189,4.6751,11.5478,-86.9565,-19.7565
2720,8.4305,-2.9507,4.5984,14.9565,-88.5565,-18.713
2725,8.4688,-2.9507,4.5218,18.3652,-90.7826,-16.5565
2730,8.4688,-2.9507,4.4452,21.913,-92.3826,-13.3565
2735,8.2005,-2.5675,4.3685,24.8348,-92.5217,-10.2261
2740,8.5454,-2.7591,4.1386,26.713,-91.5478,-8.487
2745,8.6604,-2.1843,3.7937,28.0348,-90.1565,-8.2783
2750,8.8137,-2.3759,3.6404,27.6174,-88.6261,-8.8348
2755,8.852,-2.1843,3.4871,25.8087,-87.8609,-10.9217
2760,9.0819,-2.2226,3.4105,24.2087,-87.6522,-14.0522
2765,9.1586,-2.4908,3.2572,23.513,-87.6522,-17.3913
2770,9.3885,-2.2609,2.8357,23.6522,-87.513,-21.1478
2775,9.5418,-2.2226,2.874,24.2783,-87.4435,-27.1304
2780,9.7717,-2.031,2.8357,24.5565,-86.6087,-30.3304
2785,9.7717,-2.031,2.9123,24.0696,-85.0783,-31.0957
2790,9.6184,-1.916,3.2955,23.5826,-83.3391,-30.7478
2795,9.5034,-1.5328,2.9123,22.7478,-81.4609,-29.2174
2800,9.1586,-1.1879,2.8357,21.287,-79.7217,-26.7826
2805,8.967,-0.9963,2.8357,19.4783,-78.5391,-23.513
2810,8.852,-0.7281,2.9123,17.3913,-78.1913,-20.7304
2815,8.8903,-0.6898,2.6441,15.2348,-78.3304,-17.7391
2820,8.8903,-0.7281,2.6441,12.6609,-78.3304,-15.3739
2825,8.852,-0.8814,2.6441,10.7826,-78.4,-13.0783
2830,9.0053,-0.9197,2.6824,10.3652,-78.6783,-11.7565
2835,9.4268,-0.958,2.6058,9.6696,-78.8174,-10.9217
2840,9.7334,-1.2646,2.3375,8.487,-78.1217,-10.6435
2845,9.8483,-1.5328,2.2226,7.3043,-76.5913,-11.1304
2850,10.0016,-1.6095,1.9543,6.6087,-73.9478,-11.7565
2855,10.2698,-1.6478,1.7627,6.887,-70.3304,-12.3826
2860,10.2315,-1.7627,1.5328,6.4696,-66.5739,-13.5652
2865,10.1932,-1.8777,1.3412,6.0522,-63.4435,-15.2348
2870,10.3848,-1.8394,1.2263,5.287,-60.0348,-16.9043
2875,10.2698,-1.7627,1.0346,4.4522,-56.2087,-18.3652
2880,10.0782,-1.6478,0.7664,3.6174,-52.1043,-19.3391
2885,9.81,-1.3795,0.9197,3.2696,-48.1391,-20.0348
2890,9.8866,-1.3412,0.6514,3.0609,-44.4522,-20.5913
2895,9.6567,-0.6514,0.4982,3.2,-41.0435,-21.0783
2900,9.4268,-0.4598,0.8047,3.4783,-37.5652,-21.2174
2905,9.2735,-0.3066,0.6514,3.6174,-34.2261,-21.287
2910,9.2735,-0.1533,0.7281,3.3391,-30.9565,-21.1478
2915,9.1202,0.0,0.7664,2.3652,-27.687,-21.1478
2920,8.967,0.0383,0.7664,0.6261,-24.487,-21.1478
2925,9.0436,0.0,0.9197,-1.8783,-21.287,-21.2174
2930,9.0053,-0.1916,1.1879,-4.7304,-18.0174,-21.4957
2935,9.2735,-0.3832,1.073,-7.3043,-15.1652,-21.7739
2940,9.6567,-0.6131,1.2646,-9.7391,-12.8696,-22.4
2945,9.81,-0.6898,1.6095,-11.6174,-11.2,-23.7913
2950,9.925,-1.0346,1.6095,-13.0783,-10.5043,-24.9739
2955,10.3082,-1.4179,2.1076,-14.4,-10.9913,-26.5043
2960,10.5381,-1.6478,2.1843,-15.7217,-13.0087,-27.8957
2965,10.6914,-1.8777,2.3375,-17.4609,-16.2087,-28.9391
2970,10.6147,-2.0693,2.3375,-19.4783,-19.9652,-29.8435
2975,10.768,-2.1459,2.4525,-21.5652,-24.0696,-30.4
2980,10.4998,-1.9927,2.3375,-23.3739,-28.1043,-30.4696
2985,10.3848,-1.7627,2.3375,-24.9739,-31.9304,-29.9826
2990,10.2698,-1.6095,2.4525,-25.8783,-35.4087,-28.9391
2995,10.2315,-1.4945,2.4142,-25.3217,-37.8435,-27.7565
