timestamp,accX,accY,accZ,gyroX,gyroY,gyroZ
0,0.3832,-9.3885,-2.3375,-8.7652,8.6957,-1.1826
5,0.2682,-9.1969,-2.2992,-9.8783,8.5565,-1.113
10,0.115,-9.1586,-2.3759,-11.3391,8.487,-0.6957
15,0.115,-9.0819,-2.5675,-13.0087,8.487,-0.3478
20,0.115,-9.0053,-2.5291,-14.7478,8.4174,0.0696
25,0.115,-8.9286,-2.3759,-16.2783,8.2087,0.2087
30,0.0766,-8.967,-2.4142,-17.9478,8.0,0.3478
35,0.1916,-9.0053,-2.4908,-19.5478,8.0,0.2783
40,0.1533,-8.9286,-2.3759,-20.9391,7.9304,0.2087
45,0.115,-8.8903,-2.4525,-21.9826,7.7913,0.1391
50,0.1916,-8.9286,-2.5291,-23.2348,7.7913,0.0696
55,0.0766,-8.737,-2.4142,-24.2783,8.0,-0.2087
60,0.2299,-8.852,-2.5291,-25.6696,8.0696,-0.4174
65,0.2299,-8.9286,-2.3759,-26.7826,8.1391,-0.7652
70,0.3066,-9.0053,-2.4525,-27.8261,8.2087,-0.9739
75,0.2682,-9.0436,-2.6441,-28.5913,8.3478,-1.2522
80,0.2299,-8.967,-2.7591,-29.5652,8.487,-1.3913
85,0.3832,-9.1202,-2.6441,-30.4696,8.487,-1.6
90,0.3832,-9.1969,-2.6824,-31.3043,8.487,-1.6696
95,0.3449,-9.1202,-2.8357,-32.0696,8.7652,-1.8087
100,0.4982,-9.1969,-2.874,-32.6261,8.8348,-1.9478
105,0.5365,-9.3885,-2.7591,-33.1826,9.1826,-2.0174
110,0.4982,-9.1969,-2.9507,-33.8087,9.113,-2.0174
115,0.5748,-9.2735,-2.874,-34.5739,9.113,-2.087
120,0.6131,-9.0819,-2.989,-35.4783,8.9043,-1.8087
125,0.6898,-9.1202,-3.1039,-36.5217,8.9739,-1.7391
130,0.5365,-9.0053,-3.0273,-37.287,8.9739,-1.6696
135,0.5365,-9.0053,-2.989,-38.4,8.7652,-1.4609
140,0.4982,-8.7754,-3.1423,-39.3043,8.6261,-1.3913
145,0.4598,-8.8137,-3.2189,-40.0696,8.487,-1.5304
150,0.3832,-8.8137,-3.1039,-40.6957,8.3478,-1.3217
155,0.2299,-8.6987,-3.1806,-41.4609,8.4174,-1.3217
160,0.3832,-8.7754,-3.1039,-42.2957,8.3478,-1.4609
165,0.4598,-8.7754,-3.2189,-42.6435,8.4174,-1.6
170,0.4215,-8.7754,-3.1039,-43.3391,8.8348,-1.6
175,0.4598,-8.852,-2.8357,-43.9652,9.113,-1.5304
180,0.4982,-8.852,-3.1423,-44.4522,9.113,-1.5304
185,0.3832,-8.8137,-3.1423,-44.5913,9.3217,-1.5304
190,0.5365,-8.8903,-3.1423,-44.6609,9.3913,-1.6696
195,0.6898,-9.0436,-3.1039,-44.8,9.4609,-1.7391
200,0.4982,-8.9286,-3.2955,-45.2174,9.4609,-1.9478
205,0.5748,-9.0053,-3.3722,-45.913,9.3217,-2.087
210,0.5365,-9.0053,-3.3339,-46.6783,9.1826,-2.2261
215,0.4215,-8.8137,-3.4488,-47.4435,9.0435,-2.4348
220,0.5365,-8.737,-3.5255,-48.3478,8.8348,-2.5043
225,0.5748,-8.8137,-3.4488,-49.2522,8.5565,-2.5043
230,0.6131,-8.6987,-3.4488,-50.3652,8.4174,-2.5043
235,0.5748,-8.6987,-3.3722,-51.2696,8.3478,-2.6435
240,0.4215,-8.6987,-3.4871,-52.2435,8.2783,-2.6435
245,0.4982,-8.6221,-3.3722,-53.2174,8.0696,-2.8522
250,0.4598,-8.6221,-3.4105,-54.0522,8.2087,-2.8522
255,0.4215,-8.5071,-3.5255,-54.5391,8.4174,-2.8522
260,0.4598,-8.4688,-3.4105,-55.0261,8.7652,-2.8522
265,0.5365,-8.5454,-3.2955,-55.1652,9.0435,-2.7826
270,0.6514,-8.5838,-3.4488,-55.0957,9.3913,-2.7826
275,0.6514,-8.5838,-3.3722,-55.0261,9.5304,-2.9913
280,0.6131,-8.3538,-3.4488,-55.0261,9.8783,-3.2
285,0.6898,-8.5454,-3.2572,-54.9565,10.0174,-3.3391
290,0.6898,-8.5454,-3.4488,-54.4696,9.9478,-3.4783
295,0.6898,-8.6604,-3.5255,-53.7043,10.0174,-3.8261
300,0.7281,-8.5838,-3.6787,-53.0783,10.1565,-4.0348
305,0.6898,-8.6987,-3.6787,-53.1478,10.2261,-4.313
310,0.7664,-8.6987,-3.6787,-53.5652,10.2957,-4.5913
315,0.8047,-8.6604,-3.8704,-54.0522,10.2261,-4.8696
320,0.9197,-8.6221,-3.8704,-54.6087,10.2957,-5.2174
325,1.0346,-8.852,-3.7171,-55.0261,10.6435,-5.8435
330,0.958,-8.5838,-3.7554,-54.6087,11.4783,-7.3739
335,0.843,-8.3155,-3.8704,-54.0522,12.2435,-7.7913
340,0.9197,-8.2772,-3.832,-53.4261,13.0087,-7.8609
345,0.7664,-8.3921,-3.9087,-53.7739,13.4957,-7.9304
350,0.843,-8.3538,-3.6787,-54.0522,13.7739,-7.6522
355,0.9197,-8.4688,-3.6787,-53.7739,13.7043,-6.887
360,0.958,-8.6987,-3.6787,-52.8696,13.5652,-6.1217
365,1.073,-8.8137,-3.6021,-51.9652,14.1217,-5.7739
370,0.8047,-8.8137,-3.6021,-50.5739,14.7478,-5.4957
375,0.958,-8.6987,-3.6404,-49.113,15.2348,-5.0087
380,0.8047,-8.6604,-3.6404,-47.9304,15.3043,-4.8696
385,0.9197,-8.6221,-3.7171,-47.2348,15.4435,-4.9391
390,0.7281,-8.5071,-3.9087,-46.6783,15.3739,-4.8696
395,0.4598,-8.6221,-4.1003,-46.4696,15.513,-4.5217
400,0.7664,-8.4688,-3.7171,-46.2609,15.0957,-4.4522
405,0.5365,-8.3538,-3.9853,-46.0522,15.0957,-4.5217
410,0.4598,-8.1622,-4.2152,-46.0522,15.3043,-4.3826
415,0.4598,-8.2772,-4.1769,-46.3304,15.513,-4.1739
420,0.4598,-8.0856,-4.0236,-46.7478,15.513,-3.8957
425,0.3832,-8.0089,-4.2536,-46.887,15.2348,-3.4087
430,0.3449,-8.0089,-4.2536,-47.513,14.9565,-2.9217
435,0.1916,-7.894,-4.3302,-47.7217,14.4,-2.5043
440,0.3449,-8.0473,-4.2919,-47.8609,13.6348,-2.0174
445,0.3449,-7.8557,-4.2152,-48.0696,12.3826,-1.4609
450,0.3066,-7.9323,-4.3302,-48.4174,11.2696,-1.113
455,0.2682,-8.0089,-4.4068,-49.3217,9.8783,-1.113
460,0.3066,-8.2005,-4.5984,-50.0174,8.6261,-0.9043
465,0.115,-8.5454,-4.4068,-50.1565,7.0957,-0.487
470,0.3066,-8.3155,-4.79,-47.7913,4.4522,0.6261
475,0.843,-8.3538,-4.9433,-47.3043,2.4348,0.2783
480,0.5748,-8.3921,-4.8667,-49.9478,2.9217,-0.4174
485,0.5365,-8.5454,-4.7517,-52.9391,3.3391,-1.113
490,0.6898,-8.6221,-4.8667,-54.6783,3.4783,-2.0174
495,0.6514,-8.5071,-4.79,-55.0957,3.6174,-2.5739
500,0.6131,-8.5838,-4.905,-54.8174,3.687,-3.2
505,0.6898,-8.4688,-4.8284,-54.3304,3.9652,-3.8957
510,0.843,-8.4688,-5.02,-53.8435,4.313,-4.4522
515,0.9197,-8.3921,-5.1349,-53.3565,4.5913,-4.7304
520,0.843,-8.2389,-5.02,-53.0783,4.8696,-4.9391
525,0.9963,-8.1622,-4.9816,-52.6609,5.0087,-5.1478
530,1.073,-8.2005,-5.2882,-52.1739,4.8696,-5.3565
535,1.073,-8.1239,-5.2116,-52.3826,4.8696,-5.5652
540,1.0346,-8.2389,-5.0966,-53.0783,4.9391,-5.7739
545,1.2263,-8.4688,-4.9433,-53.0783,4.8696,-5.8435
550,1.1113,-8.4305,-5.0583,-53.0087,4.9391,-6.1217
555,1.073,-8.6221,-5.02,-52.5217,4.8,-6.0522
560,1.073,-8.7754,-5.02,-51.8957,4.8696,-5.913
565,0.9197,-8.6987,-5.2882,-51.2,5.0087,-5.6348
570,1.073,-8.9286,-5.2499,-50.4348,5.5652,-5.4261
575,0.9197,-8.8137,-5.2882,-49.3217,6.4,-5.4957
580,0.9963,-8.6604,-5.2116,-47.7913,7.2348,-5.287
585,0.6898,-8.6987,-5.2882,-45.8435,8.2783,-5.2174
590,0.6514,-8.4305,-5.2499,-43.5478,8.5565,-4.4522
595,1.1879,-8.3538,-5.6331,-41.3217,8.1391,-3.1304
600,1.073,-8.2389,-5.5564,-40.0,9.1826,-3.6174
605,0.958,-8.1622,-5.4415,-38.5391,10.4348,-4.1043
610,0.9197,-7.894,-5.5564,-36.9391,11.0609,-4.5217
615,0.9197,-7.8557,-5.5181,-35.3391,10.9913,-4.5913
620,0.9197,-7.7024,-5.2882,-33.5304,10.6435,-4.2435
625,0.8047,-7.6641,-5.2116,-32.1391,10.2957,-4.2435
630,0.8814,-7.3958,-5.5181,-31.3739,9.8783,-4.1043
635,0.5748,-7.6641,-5.4798,-31.1652,9.3913,-3.9652
640,0.7664,-7.4341,-5.2499,-31.8609,9.0435,-3.2
645,0.6898,-7.5108,-5.3648,-31.7913,8.2087,-3.5478
650,0.7281,-7.4341,-5.5564,-31.5826,7.9304,-3.687
655,0.7281,-7.4725,-5.5564,-31.8609,7.6522,-3.6174
660,0.7281,-7.3958,-5.4032,-32.1391,7.5826,-3.2
665,0.7281,-7.3958,-5.8247,-32.6957,7.3739,-2.7826
670,0.8047,-7.5108,-5.748,-33.5304,7.5826,-2.5739
675,0.9197,-7.3192,-5.8247,-34.2261,7.9304,-2.2957
680,0.9963,-7.4341,-5.8247,-34.8522,8.2783,-2.1565
685,0.958,-7.2042,-5.7864,-35.4783,8.5565,-2.0174
690,0.9963,-7.2809,-6.0546,-35.6174,8.6261,-1.8087
695,1.073,-7.1276,-5.9013,-35.8261,8.6957,-1.8087
700,0.9963,-7.0126,-5.978,-35.7565,8.7652,-2.087
705,1.0346,-7.0893,-5.863,-35.687,8.8348,-2.2957
710,1.1496,-6.9743,-5.978,-35.8261,8.6957,-2.2957
715,1.073,-7.0126,-5.863,-35.8957,8.6957,-2.1565
720,1.2263,-7.0893,-5.9013,-36.313,8.6261,-1.6
725,0.7664,-7.0509,-5.9013,-37.4957,8.5565,-1.8087
730,0.9197,-6.9743,-6.0546,-37.1478,8.0,-2.713
735,0.8047,-6.8593,-6.2462,-36.5913,8.0,-2.7826
740,0.7664,-6.8977,-6.2845,-36.0348,8.0,-2.4348
745,0.8814,-7.0126,-6.3229,-35.687,7.8609,-2.2261
750,0.7664,-6.936,-6.3612,-35.9652,7.7217,-2.1565
755,0.7664,-6.8977,-6.5528,-36.2435,7.3739,-2.087
760,0.9197,-6.9743,-6.4378,-36.4522,6.8174,-2.1565
765,0.9197,-6.936,-6.5528,-36.7304,6.1913,-2.2957
770,0.8814,-7.0126,-6.6294,-37.0783,5.8435,-2.1565
775,1.1496,-6.9743,-6.5145,-38.1217,5.9826,-0.2783
780,1.2263,-6.9743,-6.5528,-38.6783,5.6348,-0.5565
785,1.3029,-6.936,-6.4761,-37.2174,5.4261,-1.5304
790,1.2646,-6.936,-6.3612,-34.9913,5.7739,-2.1565
795,1.5328,-6.821,-6.2845,-32.2783,6.2609,-2.5739
800,1.4945,-6.7061,-6.4378,-29.7043,6.9565,-2.7826
805,1.5328,-6.5528,-6.1313,-27.7565,7.9304,-2.7826
810,1.5711,-6.3995,-6.3229,-26.2957,8.6957,-2.8522
815,1.4945,-6.2845,-6.1696,-25.8087,9.4609,-3.4783
820,1.4945,-6.2845,-6.3612,-25.3913,9.9478,-3.1304
825,1.5711,-6.1696,-6.3229,-25.8087,10.6435,-1.6
830,1.2646,-6.0163,-6.4378,-25.8087,10.5739,-2.3652
835,1.2646,-6.0163,-6.3229,-25.3913,10.713,-3.2
840,1.1879,-5.978,-6.4378,-25.0435,10.6435,-3.687
845,0.9963,-5.6714,-6.5145,-25.1826,10.2957,-4.0348
850,0.9963,-5.8247,-6.4378,-25.3217,10.3652,-3.687
855,1.0346,-6.0546,-6.4761,-26.087,10.4348,-2.713
860,0.843,-5.7864,-6.3995,-28.313,10.4348,-1.9478
865,0.6898,-6.0929,-6.5145,-28.9391,9.9478,-3.1304
870,0.7281,-5.748,-6.5528,-29.8435,9.8087,-3.4783
875,0.6898,-5.9396,-6.6294,-30.0522,9.4609,-2.087
880,0.6898,-6.2462,-7.0893,-30.0522,9.113,-1.3217
885,0.7664,-6.0929,-6.5911,-31.3043,9.1826,1.5304
890,0.7281,-6.6294,-6.8593,-31.2348,8.5565,1.3913
895,0.7281,-5.9013,-6.6294,-30.0522,8.0,0.0696
900,0.8047,-6.3229,-6.9743,-27.5478,7.5826,1.4609
905,0.7664,-6.4761,-7.3575,-24.9043,8.0696,2.0174
910,1.1496,-6.5911,-7.1276,-24.0696,9.6696,4.1739
915,0.8814,-5.9013,-7.0509,-22.6783,10.5739,2.2957
920,1.3412,-5.978,-7.1276,-19.687,10.5043,3.5478
925,0.8814,-6.1313,-7.5874,-16.1391,10.2957,5.0087
930,1.4562,-5.863,-7.1659,-15.8609,10.2957,8.6261
935,1.4562,-5.978,-7.3958,-14.2609,9.3217,7.1652
940,1.4562,-5.1732,-7.5108,-12.6609,8.5565,5.1478
945,1.6095,-5.5948,-7.5108,-11.2696,7.8609,6.4696
950,1.5711,-5.6331,-7.5874,-10.9217,7.3043,8.8348
955,1.4562,-5.6714,-7.4341,-10.3652,6.887,8.2783
960,1.4179,-5.748,-7.5491,-9.3913,6.4696,7.8609
965,1.1113,-5.863,-7.779,-8.9739,6.1217,7.1652
970,1.5711,-5.6714,-7.3958,-10.0174,6.3304,9.8087
975,0.9197,-5.6331,-7.3958,-9.4609,6.2609,10.713
980,1.0346,-5.8247,-7.3575,-6.6087,5.9826,9.9478
985,0.843,-6.0929,-7.6257,-3.8957,5.913,10.0174
990,0.958,-5.9396,-7.4341,-3.2696,6.0522,11.5478
995,0.7281,-5.9396,-7.5491,-2.2957,5.9826,8.6957
1000,0.9963,-5.7097,-7.3192,-1.0435,6.1913,7.9304
1005,0.9963,-6.0929,-7.779,2.2957,6.0522,9.4609
1010,1.1496,-5.9013,-7.3192,3.2,6.4,12.5913
1015,0.8814,-5.8247,-7.3958,6.4,6.0522,10.7826
1020,0.8047,-5.5181,-7.4341,9.113,6.0522,8.6957
1025,1.3029,-5.1732,-7.3958,11.687,5.8435,9.6
1030,1.3029,-5.4798,-7.5108,14.4,5.5652,11.687
1035,1.1879,-5.2882,-7.5108,15.7913,5.7043,12.4522
1040,1.3029,-5.3648,-7.4725,17.6,5.913,11.8957
1045,1.4179,-5.9013,-7.779,18.9913,5.7043,11.6174
1050,1.2263,-5.1349,-7.5491,19.2696,5.7043,9.6696
1055,1.1496,-5.5948,-7.8557,20.3826,5.2174,10.9913
1060,1.3029,-5.3648,-7.6641,20.2435,5.0087,14.5391
1065,1.0346,-5.2499,-7.8557,21.7043,4.7304,13.5652
1070,1.073,-5.2499,-8.0089,24.487,4.7304,12.1043
1075,0.9963,-5.6331,-8.3155,26.2261,4.9391,11.1304
1080,1.3795,-5.0966,-7.894,27.1304,5.1478,9.8783
1085,1.1879,-5.4032,-7.8557,31.0261,4.5913,12.2435
1090,0.8814,-5.2116,-7.7407,35.6174,4.0348,12.9391
1095,1.1113,-5.1732,-7.8557,40.8348,2.9913,13.0783
1100,1.3029,-5.2116,-7.7407,45.5652,2.0174,13.3565
1105,1.1879,-5.1732,-7.7024,49.6,1.113,13.6348
1110,1.3795,-5.3265,-7.6641,53.4261,0.3478,14.1913
1115,1.3029,-5.2499,-7.5491,57.1826,-0.2783,14.6783
1120,1.3029,-5.2116,-7.4725,60.0348,-0.6957,15.0957
1125,1.4179,-5.2882,-7.3192,62.1913,-0.9043,15.3739
1130,1.5328,-5.2882,-7.1659,64.3478,-0.8348,15.7217
1135,1.3029,-5.0583,-7.0893,66.2261,-0.6957,16.1391
1140,1.4945,-4.8284,-7.0509,68.0348,-0.487,16.8348
1145,1.3029,-4.7517,-6.9743,69.7043,-0.4174,17.6
1150,1.2646,-4.79,-6.7061,71.2348,-0.2087,18.3652
1155,1.3029,-4.79,-6.6677,72.4174,-0.2087,19.2696
1160,1.2263,-4.7134,-6.5528,73.4609,-0.1391,19.9652
1165,1.3795,-4.9433,-6.4378,74.6435,-0.2783,20.8696
1170,1.1879,-4.8284,-6.5145,75.8957,-0.4174,21.3565
1175,1.0346,-4.905,-6.3995,77.1478,-0.7652,21.7043
1180,0.9197,-4.79,-6.3995,78.4,-1.5304,21.7739
1185,0.843,-4.8284,-6.2845,80.0,-2.3652,21.7739
1190,0.843,-4.905,-6.3229,81.6696,-3.1304,21.7043
1195,0.843,-4.79,-6.2079,83.4783,-3.8957,21.4957
1200,0.7664,-4.79,-6.2079,85.4957,-4.3826,21.3565
1205,0.7664,-4.6751,-6.0163,87.6522,-5.1478,21.3565
1210,0.6131,-4.5601,-6.1313,89.8783,-5.9826,21.4957
1215,0.7281,-4.79,-5.8247,92.4522,-6.887,21.6348
1220,0.843,-4.905,-5.863,95.9304,-7.5826,21.5652
1225,0.843,-4.8667,-5.5564,99.5478,-8.1391,21.913
1230,0.7664,-4.8284,-5.5564,103.2348,-8.7652,22.3304
1235,0.8047,-4.7517,-5.3265,107.2696,-9.3217,23.0261
1240,0.6131,-4.6751,-5.1349,111.4435,-9.7391,23.5826
1245,0.6514,-4.5218,-4.905,115.7565,-10.4348,24.2783
1250,0.6898,-4.6751,-4.7517,120.1391,-11.0609,24.6261
1255,0.6131,-4.6751,-4.4452,124.2435,-11.7565,24.6957
1260,0.3066,-4.79,-4.3302,128.3478,-12.313,24.8348
1265,0.1533,-4.905,-4.4068,132.6609,-13.2174,25.0435
1270,0.2682,-4.9433,-4.1003,137.3913,-13.9826,25.2522
1275,0.115,-4.8667,-4.0236,142.887,-14.887,25.3913
1280,0.1533,-4.9433,-4.0236,148.9391,-15.8609,25.6
1285,0.0766,-5.02,-3.832,155.4783,-16.6957,25.8087
1290,0.0,-4.7517,-3.6404,161.8087,-17.7391,25.8783
1295,0.0766,-4.8284,-3.5638,168.0,-18.713,26.2957
1300,0.0383,-4.905,-3.2189,174.3304,-19.7565,26.7826
1305,0.0,-4.905,-3.1806,180.6609,-21.0087,27.2
1310,0.0,-4.8284,-2.989,187.4087,-22.2609,27.687
1315,0.0,-5.0583,-2.5291,194.0174,-23.5826,27.9652
1320,-0.0383,-5.0583,-1.7627,201.0435,-24.6957,27.9652
1325,0.1916,-5.2882,-1.1496,207.7913,-25.3913,27.2
1330,0.115,-5.6714,-0.3832,214.1913,-25.2522,25.3217
1335,0.0383,-5.863,0.2682,220.8,-24.1391,22.8174
1340,-0.115,-6.1696,0.4982,227.5478,-22.1217,20.1739
1345,-0.4598,-6.2845,0.7281,233.3913,-19.8957,18.4348
1350,-0.4598,-5.9396,0.3832,239.0957,-18.713,19.1304
1355,-0.4598,-5.5564,-0.3832,246.1217,-17.5304,21.9826
1360,-0.4215,-5.1349,-1.5328,253.3565,-16.8348,25.6696
1365,-0.6898,-5.0583,-2.6441,256.8348,-17.6,29.3565
1370,-0.843,-5.3265,-3.2189,256.4174,-20.313,32.0
1375,-0.8814,-6.0929,-3.0273,252.5913,-23.7217,34.7826
1380,-1.2263,-7.0509,-2.4525,248.7652,-25.6696,38.5391
1385,-1.1879,-8.0856,-2.031,246.887,-24.7652,43.0609
1390,-1.0346,-8.9286,-2.031,249.6,-21.9826,48.0
1395,-0.9197,-9.4268,-1.916,256.9739,-19.4783,53.1478
1400,-0.4598,-9.5418,-1.4562,267.8957,-17.113,58.6435
1405,-0.0383,-9.3118,-1.073,280.9739,-15.513,63.0957
1410,0.115,-8.1239,-1.1113,294.7478,-14.1913,65.7391
1415,0.2682,-6.5911,-1.7244,305.3913,-13.287,66.9913
1420,0.4215,-4.6751,-2.031,310.4,-12.7304,67.2
1425,0.3449,-2.8357,-1.916,310.1913,-12.4522,66.6435
1430,0.2299,-1.3029,-1.6478,307.4087,-13.8435,65.7391
1435,0.0766,-0.0383,-0.8814,302.6087,-15.7913,65.0435
1440,0.0,0.4215,-0.3449,296.1391,-16.7652,64.6261
1445,-0.0383,0.3449,-0.0766,288.9739,-16.6957,64.0696
1450,0.2682,0.0,0.7664,281.7391,-15.9304,63.5826
1455,0.4598,-1.073,1.8011,275.2696,-14.8174,62.2609
1460,0.3832,-2.6824,2.6824,273.7391,-13.9826,59.4783
1465,0.2682,-5.2116,4.3302,277.4261,-13.7043,55.7217
1470,-0.3066,-9.0819,7.4725,287.0261,-14.4696,51.3391
1475,-0.958,-14.715,12.4158,305.9478,-16.5565,46.9565
1480,-2.1459,-22.6856,20.5397,338.4348,-20.0348,42.713
1485,-4.1386,-35.7145,34.7948,391.7217,-27.4087,38.2609
1490,-6.9743,-56.4075,58.86,475.5478,-40.9043,32.1391
1495,-9.3502,-91.3939,82.8485,595.0609,-54.9565,19.5478
1500,-21.0379,-121.0155,57.3272,694.5391,-56.3478,-3.8261
1505,-40.2363,-109.1363,-4.905,565.0783,-35.1304,21.913
1510,-23.6053,-73.0002,-8.2005,237.4957,-7.7913,115.2696
1515,-4.2152,-52.2689,-6.5911,164.7304,-10.5739,143.7913
1520,5.4032,-36.5959,-7.3575,367.3043,-11.8957,118.6087
1525,11.1895,-23.6436,-7.3575,554.0174,-12.5913,103.0261
1530,13.1439,-10.9596,-5.0583,635.4783,-7.8609,108.1739
1535,10.5381,2.874,1.6478,616.0,5.7739,108.6609
1540,4.4835,16.5544,8.4688,534.1217,27.9652,96.2783
1545,3.7171,26.556,10.2698,439.4435,50.5043,83.4783
1550,1.916,30.6179,5.748,367.0957,55.3043,62.1217
1555,2.7974,30.0048,-1.2263,322.713,43.9652,47.7217
1560,2.4525,26.9392,-5.978,303.5826,31.2348,42.4348
1565,0.7281,23.2604,-8.5071,310.4,11.9652,44.5913
1570,1.2263,18.4704,-7.779,336.5565,-15.8609,56.6957
1575,1.073,14.1785,-5.5181,365.0087,-33.4609,69.2174
1580,1.3029,10.1932,-3.8704,388.1043,-38.3304,71.8609
1585,0.4598,7.0509,-1.5711,400.4174,-33.0435,68.6609
1590,-1.6095,3.4488,2.1459,398.3304,-22.4696,62.9565
1595,-1.916,-0.2682,6.5145,383.9304,-11.7565,58.2261
1600,-2.3375,-4.5218,10.9213,365.4261,-5.0783,55.4435
1605,-4.7134,-8.6221,14.2935,352.0,-4.5217,56.3478
1610,-6.821,-11.6877,12.9906,338.1565,-14.6783,58.713
1615,-7.2042,-14.1785,10.9979,308.1043,-29.1478,58.6435
1620,-7.1659,-16.5161,10.0782,268.6609,-36.9391,59.4783
1625,-5.863,-17.5507,9.925,235.0609,-37.0087,61.7739
1630,-3.4488,-15.673,9.925,215.513,-30.2609,61.5652
1635,-0.8814,-10.6147,9.9633,207.6522,-23.513,55.7913
1640,0.8047,-3.7937,10.4231,202.9913,-23.3739,48.9043
1645,1.8394,3.7171,11.8793,194.087,-29.5652,44.1043
1650,1.8011,10.8446,14.1019,178.9913,-34.7826,40.6957
1655,2.4142,16.9376,17.3974,157.7043,-35.1304,39.8609
1660,2.989,22.1108,20.9612,132.1043,-29.0087,40.5565
1665,1.1496,27.3607,25.9812,102.2609,-16.3478,41.8783
1670,1.7627,30.6946,26.8625,73.1826,-2.6435,43.6174
1675,3.6021,33.1471,25.3297,46.4696,17.6696,38.1913
1680,2.7207,33.6836,21.4594,23.8609,48.0696,19.7565
1685,1.3795,31.9975,17.3591,9.9478,75.1304,-4.7304
1690,-0.4215,27.6289,13.5654,1.3217,85.5652,-28.9391
1695,-1.1879,21.9192,9.0819,-2.0174,79.9304,-44.2435
1700,-1.2263,16.5161,6.1313,-6.2609,67.8957,-49.3913
1705,-1.5711,11.5344,4.1386,-13.1478,55.0957,-48.2783
1710,-1.916,6.8593,3.1806,-20.5913,43.9652,-44.1043
1715,-2.3375,2.2992,3.0656,-24.2087,34.4348,-37.3565
1720,-2.031,-1.5328,2.9507,-20.6609,25.8783,-28.1043
1725,-2.7207,-4.905,3.6021,-9.6696,17.8783,-19.1304
1730,-2.6441,-7.5108,4.1386,6.4696,9.6696,-11.5478
1735,-2.6441,-9.3118,4.1003,26.2957,-0.487,-4.8696
1740,-2.7207,-9.8866,4.2536,43.7565,-9.3913,-0.6261
1745,-2.4908,-10.0782,4.062,56.4174,-15.7217,2.7826
1750,-2.4908,-9.3885,3.9853,63.3043,-18.1565,4.9391
1755,-1.8011,-8.1239,4.062,63.5826,-17.3217,6.3304
1760,-1.4945,-6.0546,3.9087,56.8348,-12.8696,6.6087
1765,-1.7627,-3.3339,3.7171,43.5478,-5.6348,5.8435
1770,-1.6095,-0.843,4.1386,25.9478,0.3478,5.287
1775,-0.7664,1.5711,4.1003,9.113,3.1304,4.1739
1780,0.1916,3.5638,4.4068,-8.2783,6.4696,1.1826
1785,0.0383,5.0966,5.0583,-25.0435,11.8957,-1.9478
1790,-0.0383,6.5911,5.4798,-36.6609,14.6783,-2.5043
1795,0.9197,7.8557,5.9013,-44.9391,15.3739,-1.4609
1800,1.2646,8.852,6.3229,-48.8348,15.3739,-2.2261
1805,0.6131,9.8866,6.7061,-47.3739,13.913,-4.6609
1810,0.6514,10.4614,6.7444,-40.8348,12.4522,-6.1913
1815,0.1916,10.8063,6.6677,-31.3043,11.0609,-6.5391
1820,-0.6898,10.8446,6.3995,-21.6348,9.7391,-6.4696
1825,-1.8777,10.7297,7.0509,-15.6522,7.4435,-7.4435
1830,-2.1459,10.1932,7.3192,-11.7565,3.2696,-7.4435
1835,-2.3375,9.5034,7.8173,-10.2261,-1.8087,-8.0696
1840,-2.3375,8.2389,8.3921,-10.9217,-6.3304,-9.8783
1845,-2.7591,6.821,9.0053,-13.7043,-9.8783,-12.313
1850,-3.1039,5.4415,9.5418,-18.1565,-13.3565,-14.0522
1855,-3.1423,4.1003,10.3465,-23.4435,-16.4174,-14.3304
1860,-3.3339,2.7974,10.9979,-28.8696,-18.3652,-13.7739
1865,-3.3339,1.7627,11.7643,-33.9478,-20.313,-13.0783
1870,-3.4871,0.9197,12.5691,-38.1913,-21.8435,-12.8696
1875,-3.6787,0.3066,13.0672,-41.2522,-22.7478,-12.8
1880,-3.4488,-0.2299,13.5271,-42.5739,-22.5391,-12.6609
1885,-3.832,-0.3449,13.7187,-42.1565,-21.0087,-12.3826
1890,-3.6787,-0.4215,13.9486,-40.2087,-19.0609,-12.1043
1895,-3.6404,-0.0383,13.8336,-37.0087,-17.2522,-11.0609
1900,-3.7937,0.5748,13.4888,-32.7652,-15.513,-9.0435
1905,-3.7937,1.6478,13.0289,-28.5217,-13.6348,-6.0522
1910,-4.1769,2.4525,12.6457,-24.9043,-11.5478,-2.5739
1915,-4.1003,3.3722,12.1092,-21.1478,-9.9478,1.113
1920,-4.2536,4.1769,12.0709,-17.7391,-9.3217,4.313
1925,-3.947,4.6368,11.6111,-14.4696,-9.6,7.1652
1930,-4.1003,5.0583,11.1895,-11.6174,-10.9217,8.8348
1935,-3.9087,5.1349,10.4998,-10.0174,-13.287,9.3913
1940,-3.7554,5.2116,10.0016,-9.113,-16.1391,8.6261
1945,-3.6021,5.02,9.3885,-9.0435,-17.9478,8.3478
1950,-3.6787,4.7134,8.737,-10.4348,-18.6435,6.9565
1955,-3.4105,4.2919,8.2389,-12.9391,-19.0609,4.9391
1960,-3.1806,3.7554,7.779,-14.7478,-19.0609,2.8522
1965,-2.4908,3.2955,7.5108,-14.5391,-17.9478,0.9043
1970,-2.0693,2.3759,7.0893,-13.287,-15.3739,0.3478
1975,-1.8394,1.4562,7.1276,-10.7826,-12.3826,-0.2087
1980,-1.3029,0.6131,6.8593,-8.3478,-9.3217,-1.3217
1985,-0.8047,-0.0766,6.936,-6.0522,-6.2609,-3.3391
1990,-0.8814,-0.4982,7.0893,-3.2,-3.2696,-4.9391
1995,-0.6514,-0.843,7.2425,0.0,-0.8348,-6.6087
2000,-0.3832,-1.1879,7.3958,2.7826,0.5565,-8.5565
2005,-0.3066,-1.3412,7.6257,3.9652,1.0435,-10.5739
2010,-0.2299,-1.3412,8.0089,3.8957,0.8348,-12.313
2015,-0.1533,-1.2646,8.4688,3.9652,0.3478,-13.7739
2020,-0.1533,-1.3412,8.9286,4.7304,-0.3478,-14.4696
2025,-0.2299,-1.0346,9.2735,6.4,-1.3217,-14.8174
2030,-0.2682,-0.6514,9.7334,8.9043,-2.6435,-14.4696
2035,-0.3832,-0.4598,10.0016,12.5913,-3.9652,-13.4957
2040,-0.4215,-0.2682,10.4231,16.487,-5.4957,-12.2435
2045,-0.6514,0.0,10.8063,20.4522,-7.6522,-10.713
2050,-0.958,0.2682,10.9979,24.2087,-10.087,-9.113
2055,-1.073,0.4598,11.1895,27.1304,-12.6609,-7.3043
2060,-1.1879,0.6131,11.2279,28.7304,-15.2348,-5.4957
2065,-1.073,0.6514,11.3045,29.4261,-17.7391,-3.8261
2070,-1.4179,0.9197,11.3428,29.2174,-19.7565,-2.713
2075,-1.3412,0.7664,11.4195,28.4522,-21.7043,-1.6
2080,-1.3795,0.9963,11.2662,27.2696,-23.4435,-0.7652
2085,-1.1496,0.7664,10.9979,25.8783,-24.9043,-0.9043
2090,-0.9963,0.6131,10.883,24.2087,-25.113,-0.487
2095,-0.8814,0.6898,10.653,22.887,-24.0,-0.6957
2100,-0.6898,0.5365,10.5381,21.2174,-23.1652,-2.6435
2105,-0.2299,0.4982,10.0399,19.5478,-21.7739,-4.1043
2110,0.0,0.4598,9.7334,17.9478,-19.5478,-5.1478
2115,0.3066,0.3449,9.3118,15.7217,-16.3478,-5.287
2120,0.4215,0.3066,9.2352,13.7739,-12.5217,-5.2174
2125,0.4215,0.1533,8.8903,12.4522,-8.2783,-4.8
2130,0.4598,0.0,8.6604,11.4783,-4.4522,-4.9391
2135,0.2299,0.0766,8.4688,10.2957,-1.8087,-5.5652
2140,0.0766,-0.115,8.2772,8.2783,0.0,-6.2609
2145,0.0383,0.0,8.2389,6.4,1.113,-6.4696
2150,0.0,-0.115,8.0856,5.0087,2.0174,-5.6348
2155,-0.2682,-0.1916,8.0856,3.3391,2.5043,-4.9391
2160,-0.2682,-0.2299,8.1239,1.5304,2.9217,-3.687
2165,-0.2682,-0.3832,8.0089,-0.1391,3.1304,-1.9478
2170,-0.3832,-0.4215,8.0856,-1.6696,3.4783,-0.0696
2175,-0.5748,-0.5748,8.2005,-2.9217,4.313,2.2261
2180,-0.6514,-0.7281,8.3921,-4.313,4.5217,4.3826
2185,-0.7281,-0.6131,8.5071,-5.2174,4.6609,6.0522
2190,-0.7281,-0.6898,8.6604,-5.7043,4.4522,7.1652
2195,-0.843,-0.6898,8.9286,-5.6348,4.5217,8.0696
2200,-0.7281,-0.7664,9.0819,-5.3565,4.9391,8.4174
2205,-0.6898,-0.7281,9.1202,-4.7304,5.913,8.8348
2210,-0.6898,-0.8814,9.3118,-4.1043,6.9565,9.0435
2215,-0.7664,-0.7281,9.5418,-3.4087,7.9304,9.1826
2220,-0.6898,-0.7664,9.5418,-2.5043,8.9739,8.9043
2225,-0.7664,-0.6898,9.6184,-1.8087,10.2261,8.6261
2230,-0.8047,-0.8047,9.6567,-0.8348,11.3391,8.2087
2235,-0.843,-0.6898,9.6567,-0.4174,12.1043,7.513
2240,-0.958,-0.7664,9.9633,-0.0696,12.4522,6.7478
2245,-0.8814,-0.8047,9.6567,0.1391,12.5913,5.8435
2250,-0.9963,-0.6898,9.81,0.0696,12.313,4.8696
2255,-1.1496,-0.6131,9.6567,-0.1391,11.8957,4.2435
2260,-1.1113,-0.5365,9.695,-0.3478,11.6174,3.4087
2265,-1.2646,-0.6131,9.6184,-0.5565,11.2,2.6435
2270,-1.4562,-0.6131,9.7717,-0.6261,9.9478,1.2522
2275,-1.3412,-0.4598,9.5418,0.0696,8.0,-0.487
2280,-0.9963,-0.2682,9.3118,0.0,7.513,-0.8348
2285,-0.8814,-0.1916,9.5034,-0.5565,8.3478,-0.5565
2290,-0.958,0.0,9.1969,-0.9043,9.0435,-0.6261
2295,-0.843,-0.115,9.3502,-1.113,9.5304,-1.0435
2300,-0.843,0.115,9.0819,-1.3217,9.7391,-1.6
2305,-0.7664,0.115,9.2735,-1.7391,9.8783,-2.1565
2310,-0.8814,0.1916,9.2352,-2.087,9.6696,-2.5739
2315,-0.7664,0.3066,9.0436,-2.1565,9.6,-2.9217
2320,-0.9197,0.2682,9.0819,-1.8087,9.4609,-3.2696
2325,-0.9963,0.3449,9.0819,-1.1826,9.5304,-3.3391
2330,-0.958,0.4982,9.1202,-0.487,9.6,-3.3391
2335,-0.958,0.5748,9.1969,0.487,9.5304,-3.1304
2340,-1.073,0.7281,9.1586,1.1826,9.5304,-2.7826
2345,-1.073,0.843,9.1586,1.6696,9.4609,-2.2957
2350,-1.1113,0.958,9.0819,2.2957,9.4609,-1.7391
2355,-1.1496,1.0346,9.0819,2.7826,9.3217,-1.0435
2360,-1.2263,1.073,9.1969,3.3391,9.113,-0.2783
2365,-1.2646,1.2263,9.1202,3.4783,9.113,0.2087
2370,-1.3412,1.2646,9.2352,3.5478,8.7652,0.8348
2375,-1.2646,1.3795,9.1586,3.5478,8.6957,1.1826
2380,-1.3029,1.4945,9.1969,3.2,8.6261,1.4609
2385,-1.1879,1.4945,9.2735,2.7826,8.6261,1.5304
2390,-1.1879,1.4179,9.1202,2.4348,8.7652,1.5304
2395,-1.3029,1.5328,9.2735,2.5043,8.8348,1.4609
2400,-1.3029,1.4945,9.2735,2.713,8.9739,1.3217
2405,-1.3412,1.4179,9.3502,2.8522,9.1826,1.113
2410,-1.4562,1.4179,9.4651,2.7826,9.1826,0.8348
2415,-1.4179,1.3029,9.5418,2.713,9.1826,0.5565
2420,-1.3795,1.2646,9.5801,2.2957,9.0435,0.2783
2425,-1.3795,1.2263,9.6184,2.087,8.9739,-0.1391
2430,-1.4179,1.073,9.6567,2.087,8.8348,-0.4174
2435,-1.3412,1.1879,9.5418,2.1565,8.8348,-0.5565
2440,-1.3412,1.1496,9.7334,2.087,8.7652,-0.6957
2445,-1.3795,1.2646,9.6184,1.9478,8.6957,-0.6957
2450,-1.3795,1.1879,9.5418,1.8087,8.5565,-0.6957
2455,-1.5328,1.2263,9.5801,1.6696,8.2087,-0.487
2460,-1.3795,1.2646,9.5418,1.113,7.8609,-0.2783
2465,-1.4562,1.2646,9.4651,0.6957,7.513,0.0696
2470,-1.4945,1.3029,9.4651,0.2783,7.2348,0.2087
2475,-1.3029,1.2263,9.5418,0.0,6.7478,0.6957
2480,-1.3412,1.3412,9.5418,-0.0696,6.1913,0.6261
2485,-1.4562,1.2646,9.3118,-0.0696,5.7043,0.6261
2490,-1.3795,1.2263,9.4651,-0.1391,5.4957,0.487
2495,-1.5711,1.2263,9.4651,-0.1391,5.2174,0.487
2500,-1.4945,1.1113,9.4651,0.0,5.0087,0.0696
2505,-1.4179,1.0346,9.4268,0.2783,4.8,-0.0696
2510,-1.4945,0.843,9.4268,0.487,4.5913,-0.3478
2515,-1.5711,0.7664,9.3118,0.6957,4.313,-0.3478
2520,-1.6478,0.8814,9.3502,0.9043,3.8261,-0.5565
2525,-1.6861,0.8047,9.4651,1.3217,3.5478,-0.6261
2530,-1.5328,0.7664,9.3502,1.6696,3.4783,-0.6957
2535,-1.4562,0.7664,9.3502,2.2261,3.4087,-0.7652
2540,-1.6095,0.843,9.3885,2.5043,3.6174,-0.9043
2545,-1.7244,0.843,9.3118,2.6435,3.8261,-0.9739
2550,-1.6095,0.843,9.1969,2.713,3.6174,-1.113
2555,-1.4945,0.9197,9.3118,2.7826,3.9652,-0.7652
2560,-1.4179,0.8814,9.1586,2.5739,4.313,-0.5565
2565,-1.4562,0.9197,9.3502,2.2957,4.4522,-0.487
2570,-1.5711,0.7664,9.2352,1.9478,4.313,-0.5565
2575,-1.4945,0.8814,9.2352,1.6,4.2435,-0.6261
2580,-1.4179,0.8814,9.2735,1.3217,3.9652,-0.6261
2585,-1.4179,0.8047,9.2352,1.1826,3.6174,-0.6957
2590,-1.4179,0.7664,9.3118,1.113,3.2696,-0.9043
2595,-1.3029,0.7281,9.2352,1.1826,2.9913,-0.9739
2600,-1.3029,0.7281,9.2352,1.1826,2.9217,-1.113
2605,-1.2646,0.5748,9.2352,1.1826,2.7826,-0.9739
2610,-1.3795,0.5748,9.3502,1.2522,2.5739,-1.113
2615,-1.3795,0.6514,9.4268,1.2522,2.2261,-0.9739
2620,-1.4179,0.5748,9.2352,1.1826,1.8783,-1.0435
2625,-1.3795,0.5365,9.3885,1.3217,1.8783,-0.9043
2630,-1.3412,0.4215,9.2735,1.6696,1.7391,-0.8348
2635,-1.3029,0.4598,9.1969,1.8783,1.6696,-0.9043
2640,-1.1879,0.4598,9.3118,1.8087,1.6696,-0.9043
2645,-1.2646,0.4982,9.3502,1.8087,1.8087,-0.6957
2650,-1.1496,0.4598,9.4268,1.6696,2.1565,-0.5565
2655,-1.0346,0.4215,9.4268,1.5304,2.4348,-0.5565
2660,-1.1113,0.4982,9.4651,1.5304,2.7826,-0.487
2665,-0.9963,0.4215,9.3502,1.6,2.8522,-0.3478
2670,-1.0346,0.4982,9.3118,1.5304,3.1304,-0.2783
2675,-0.8814,0.4215,9.3502,1.4609,3.4087,-0.3478
2680,-1.073,0.5365,9.2735,1.3913,3.5478,-0.2783
2685,-0.8047,0.5365,9.1969,1.2522,3.8261,-0.2087
2690,-0.6898,0.4982,9.2352,0.9043,4.2435,-0.2783
2695,-0.8047,0.4598,9.3118,0.5565,4.5913,-0.487
2700,-0.958,0.5748,9.3118,0.2087,4.9391,-0.5565
2705,-0.8047,0.4982,9.3118,0.0,5.1478,-0.7652
2710,-0.8814,0.6514,9.2352,-0.1391,5.2174,-0.7652
2715,-0.8814,0.5365,9.2352,-0.2087,5.2174,-0.7652
2720,-0.9197,0.4598,9.2735,0.0,5.0783,-0.8348
2725,-0.9963,0.6514,9.2735,0.0,4.7304,-0.7652
2730,-0.958,0.6131,9.3502,0.1391,4.5913,-0.487
2735,-0.9963,0.7281,9.3118,0.1391,4.313,-0.3478
2740,-1.0346,0.7664,9.3118,0.1391,4.1739,-0.1391
2745,-0.8814,0.8047,9.2735,-0.1391,4.0348,0.1391
2750,-1.0346,0.9197,9.3885,-0.3478,3.9652,0.3478
2755,-1.1496,0.9963,9.3502,-0.6261,3.9652,0.487
2760,-0.958,0.9197,9.4651,-0.9043,3.9652,0.6261
2765,-0.9963,0.958,9.3118,-1.0435,3.9652,0.6957
2770,-0.9197,1.1113,9.3118,-1.0435,3.9652,0.6957
2775,-0.958,0.9963,9.2352,-1.113,3.9652,0.6957
2780,-0.958,1.0346,9.3885,-1.2522,4.0348,0.6261
2785,-1.0346,1.073,9.4268,-1.2522,4.1043,0.5565
2790,-0.958,0.958,9.2735,-1.3217,4.2435,0.4174
2795,-0.9963,0.9963,9.2735,-1.3913,4.2435,0.3478
2800,-1.0346,1.1113,9.3885,-1.4609,4.3826,0.1391
2805,-1.1496,0.958,9.5034,-1.4609,4.5217,-0.2087
2810,-1.1496,0.9197,9.2735,-1.5304,4.7304,-0.4174
2815,-1.1496,0.8814,9.3502,-1.5304,4.6609,-0.487
2820,-1.3412,0.958,9.3118,-1.6,4.3826,-0.6261
2825,-1.2263,0.9963,9.3885,-1.5304,4.0348,-0.6261
2830,-1.3029,0.9197,9.5034,-1.6,3.687,-0.6957
2835,-1.1496,0.8814,9.4268,-1.6696,3.5478,-0.5565
2840,-1.1879,0.8814,9.3885,-1.6,3.3391,-0.5565
2845,-1.3412,0.958,9.4651,-1.6696,3.1304,-0.487
2850,-1.2646,0.8814,9.5034,-1.7391,3.1304,-0.4174
2855,-1.2263,0.958,9.5418,-1.6696,3.1304,-0.487
2860,-1.1879,0.8047,9.5418,-1.6,2.9913,-0.4174
2865,-1.1879,0.9197,9.3885,-1.4609,3.0609,-0.2087
2870,-1.3029,0.8814,9.2735,-1.1826,2.9913,-0.3478
2875,-1.1113,0.843,9.4268,-0.8348,3.0609,-0.4174
2880,-0.9197,0.8814,9.3118,-0.6957,3.3391,-0.3478
2885,-1.0346,0.843,9.3885,-0.6957,3.9652,-0.2087
2890,-1.1496,0.8047,9.4651,-0.9043,4.2435,-0.2087
2895,-1.1113,1.0346,9.3502,-0.9739,4.4522,-0.2783
2900,-1.1879,0.7664,9.2735,-1.3217,4.7304,-0.2087
2905,-1.1113,0.7281,9.4268,-1.6696,4.8696,-0.1391
2910,-1.1113,0.6898,9.2352,-1.7391,5.0087,-0.2783
2915,-1.073,0.6131,9.3118,-1.8087,5.2174,-0.2087
2920,-1.1879,0.6514,9.1969,-1.8783,5.3565,-0.2783
2925,-1.1496,0.6898,9.3502,-1.6,5.3565,-0.3478
2930,-1.1496,0.6898,9.4268,-1.5304,5.3565,-0.3478
2935,-1.1496,0.6898,9.3885,-1.3217,5.4261,-0.2783
2940,-1.2646,0.8047,9.3885,-1.3217,5.4957,-0.1391
2945,-1.1113,0.7281,9.3118,-1.1826,5.4957,-0.1391
2950,-1.2263,0.8047,9.5034,-1.0435,5.6348,-0.0696
2955,-1.1496,0.7281,9.4651,-0.9739,5.7043,0.1391
2960,-1.2263,0.7664,9.4268,-0.9739,5.7043,0.1391
2965,-1.2646,0.7281,9.4268,-1.113,5.6348,0.2087
2970,-1.1879,0.7664,9.3885,-1.113,5.5652,0.2087
2975,-1.1496,0.6514,9.3502,-1.4609,5.5652,0.1391
2980,-1.2646,0.8047,9.3118,-1.7391,5.3565,0.2783
2985,-1.2646,0.8047,9.2735,-2.0174,5.287,0.2783
2990,-1.2646,0.8047,9.3118,-2.3652,5.2174,0.2087
2995,-1.073,0.8047,9.1202,-2.6435,5.2174,0.1391
