timestamp,accX,accY,accZ,gyroX,gyroY,gyroZ
0,-0.0383,-8.6221,-5.9013,-22.8174,6.4696,0.0696
5,-0.0383,-8.5838,-6.0929,-22.5391,5.913,-0.2783
10,0.0,-8.6604,-6.0546,-22.1217,5.4957,-0.2783
15,0.0,-8.5071,-5.9396,-21.7739,5.0783,-0.3478
20,0.0,-8.4305,-6.0929,-21.2174,4.5217,-0.3478
25,0.0,-8.3921,-6.0546,-20.8696,4.0348,-0.4174
30,-0.0766,-8.4305,-6.2079,-20.6609,3.7565,-0.487
35,-0.0766,-8.5838,-6.0546,-20.5217,3.5478,-0.3478
40,0.0,-8.5454,-6.2079,-20.3826,3.3391,-0.2087
45,0.0383,-8.5838,-5.978,-20.5217,3.3391,-0.2087
50,0.0383,-8.4305,-6.0546,-20.8696,3.4087,-0.1391
55,0.0383,-8.5454,-6.2462,-21.2174,3.8261,0.0696
60,0.0383,-8.5071,-6.2845,-21.7043,4.3826,0.2783
65,0.0383,-8.6221,-6.2079,-21.7739,5.0783,0.2087
70,0.1916,-8.5454,-6.1696,-21.9826,5.7739,0.4174
75,0.2299,-8.6604,-6.2845,-21.7043,6.6087,0.3478
80,0.1916,-8.4688,-6.2462,-21.1478,7.2348,0.2087
85,0.2299,-8.737,-6.1696,-20.8696,7.9304,0.2087
90,0.2682,-8.5838,-6.2462,-20.5913,8.5565,0.1391
95,0.3066,-8.5454,-6.2845,-20.0348,8.9739,0.0696
100,0.2299,-8.5454,-6.2845,-19.7565,9.3913,0.0
105,0.2299,-8.5454,-6.0929,-19.5478,9.5304,-0.2783
110,0.115,-8.3538,-6.2079,-19.3391,9.5304,-0.487
115,0.115,-8.5071,-6.2462,-19.3391,9.3217,-0.7652
120,0.0,-8.4305,-6.2079,-19.2,8.7652,-0.9739
125,0.0,-8.3921,-6.2462,-18.9913,8.6261,-1.113
130,0.0766,-8.3155,-6.1696,-18.7826,8.2087,-1.3217
135,-0.1916,-8.4688,-6.1696,-18.7826,8.1391,-1.4609
140,-0.0383,-8.3921,-6.2079,-19.3391,8.0696,-1.6696
145,-0.0766,-8.4305,-6.0929,-19.2696,7.9304,-1.3217
150,-0.0766,-8.2772,-6.3995,-19.2696,8.0,-0.9043
155,-0.0766,-8.3538,-6.3612,-19.2696,8.2087,-0.5565
160,-0.115,-8.3538,-6.3612,-19.2,8.5565,0.0
165,0.0766,-8.4305,-6.5911,-19.2,8.9739,0.487
170,0.0383,-8.3155,-6.4761,-19.2,9.5304,1.0435
175,0.1916,-8.4688,-6.5528,-19.4087,10.1565,1.6
180,0.2299,-8.4305,-6.5911,-19.2696,10.8522,2.1565
185,0.3066,-8.4305,-6.5145,-18.9217,11.687,2.5739
190,0.3066,-8.3921,-6.5145,-18.713,12.4522,2.9217
195,0.3832,-8.4688,-6.5145,-18.6435,13.1478,3.2
200,0.3449,-8.5071,-6.4378,-18.5043,13.913,3.4087
205,0.5365,-8.5071,-6.2845,-18.4348,14.4696,3.3391
210,0.4215,-8.5838,-6.3612,-18.3652,14.887,3.2
215,0.3832,-8.6221,-6.3612,-18.2957,15.0261,2.9913
220,0.2682,-8.5454,-6.5145,-18.5739,15.3043,2.9913
225,0.3449,-8.5838,-6.3229,-18.713,15.1652,3.1304
230,0.1533,-8.7754,-6.5911,-18.6435,14.6783,2.9913
235,0.0,-8.5071,-6.5145,-18.713,14.1913,2.7826
240,0.0766,-8.6604,-6.3995,-18.713,13.4957,2.7826
245,0.0766,-8.5838,-6.6294,-18.713,13.0783,2.9217
250,-0.1533,-8.6221,-6.7061,-18.6435,12.7304,3.1304
255,-0.0766,-8.5454,-6.7061,-18.4348,12.6609,3.2696
260,-0.0766,-8.5838,-6.9743,-18.1565,12.5913,3.5478
265,-0.1533,-8.5454,-6.8593,-17.6696,13.0783,3.687
270,-0.115,-8.3921,-6.8977,-16.9043,13.7739,3.7565
275,-0.1916,-8.4688,-6.821,-16.0696,14.6087,3.8957
280,-0.115,-8.5071,-6.7444,-15.0957,15.3739,3.8261
285,-0.0383,-8.5838,-6.936,-14.1217,16.1391,3.7565
290,-0.0766,-8.5071,-6.7061,-13.2174,17.113,3.8957
295,0.0,-8.5071,-6.7061,-12.5217,17.9478,3.8957
300,-0.1533,-8.4305,-6.5911,-11.9652,18.8522,4.0348
305,0.0766,-8.4305,-6.7444,-11.5478,19.5478,4.0348
310,-0.0383,-8.3155,-6.6294,-11.1304,20.313,4.1739
315,-0.0383,-8.1622,-6.5145,-10.9217,20.9391,4.5913
320,0.0383,-8.2005,-6.5528,-11.1304,21.4261,4.9391
325,0.2299,-8.2772,-6.4761,-10.9217,21.0783,4.8
330,0.1533,-8.1622,-6.5528,-10.8522,20.8,4.8
335,0.2682,-8.2005,-6.5528,-10.8522,20.2435,4.7304
340,0.2299,-8.0473,-6.5528,-10.9913,19.8957,4.5913
345,0.115,-8.2005,-6.6294,-11.2696,19.3391,4.3826
350,0.115,-7.9706,-6.4761,-11.8957,18.9217,4.1043
355,0.0383,-7.9706,-6.5528,-12.5217,18.6435,3.8957
360,0.1533,-8.2772,-6.5911,-13.287,18.3652,3.8261
365,0.1533,-8.0856,-6.6294,-14.2609,18.1565,3.9652
370,-0.0766,-8.1622,-6.5528,-15.0261,17.8087,3.8261
375,0.0,-8.1622,-6.7827,-15.513,17.4609,3.8261
380,0.0,-8.1239,-6.5911,-15.9304,17.1826,3.8957
385,-0.0383,-8.0856,-6.8977,-16.0696,17.113,3.9652
390,-0.0766,-8.0856,-6.6677,-16.0,16.9739,3.8957
395,-0.0383,-8.0089,-6.7827,-15.8609,17.0435,3.8261
400,-0.0766,-8.0089,-6.821,-15.5826,17.1826,3.7565
405,0.0383,-8.1239,-6.7061,-15.0957,17.4609,3.6174
410,-0.0383,-8.1239,-6.821,-14.8174,17.6,3.5478
415,-0.0766,-8.0856,-6.6294,-14.3304,17.7391,3.3391
420,-0.0383,-8.0856,-6.821,-13.913,17.8087,3.0609
425,0.0766,-8.0473,-6.8593,-13.7043,17.9478,3.0609
430,0.0383,-7.9706,-6.7444,-13.7043,18.2261,3.0609
435,0.0383,-7.9323,-6.6677,-13.8435,18.5739,3.0609
440,0.1533,-7.894,-6.7061,-13.9826,18.713,2.9913
445,0.115,-7.779,-6.6677,-14.1217,18.9217,3.0609
450,0.2682,-7.8557,-6.821,-14.2609,19.0609,2.7826
455,0.2682,-7.7024,-6.7827,-14.4,19.0609,2.7826
460,0.3832,-7.7407,-6.7444,-14.5391,19.1304,2.5739
465,0.4215,-7.779,-6.7061,-14.887,19.0609,2.2261
470,0.4982,-7.5491,-6.4378,-15.2348,19.0609,2.087
475,0.5365,-7.5874,-6.7061,-15.9304,19.2696,1.9478
480,0.5748,-7.5491,-6.6677,-16.6957,19.5478,1.6696
485,0.6514,-7.6641,-6.7827,-17.4609,19.9652,1.5304
490,0.7664,-7.5491,-6.6677,-18.1565,20.5217,1.1826
495,0.6514,-7.5874,-6.821,-18.8522,20.9391,0.9043
500,0.6514,-7.5874,-6.6677,-19.5478,21.5652,0.4174
505,0.8047,-7.6641,-6.7827,-20.313,22.1913,-0.1391
510,0.7664,-7.7407,-6.6677,-21.2174,23.0957,-0.3478
515,0.6131,-7.7024,-6.7827,-21.6348,23.5826,-0.3478
520,0.7664,-7.779,-6.8977,-22.0522,23.8609,-0.5565
525,0.6514,-7.7407,-6.8977,-22.1217,24.4174,-0.7652
530,0.7664,-7.779,-6.9743,-22.2609,25.113,-1.2522
535,0.9197,-7.7407,-6.8977,-22.3304,25.8783,-1.3913
540,0.843,-7.8557,-6.9743,-22.4696,26.9217,-1.5304
545,1.073,-7.5874,-6.9743,-23.2348,27.8261,-2.087
550,1.1113,-7.6641,-7.0509,-23.4435,29.2174,-1.5304
555,0.958,-7.5108,-7.0509,-23.0957,30.4,-0.9739
560,1.1496,-7.6257,-7.0126,-22.4696,31.6522,-0.7652
565,1.0346,-7.5108,-7.1659,-21.7043,33.0435,-0.5565
570,1.1113,-7.5491,-6.9743,-21.287,34.087,-0.0696
575,1.2646,-7.4725,-7.1276,-21.0087,34.9217,0.2783
580,1.3029,-7.2809,-6.8977,-20.8696,35.7565,0.6261
585,1.3029,-7.3575,-6.936,-20.5913,36.8,0.9739
590,1.2646,-7.2042,-6.8977,-20.1739,37.9826,1.4609
595,1.2263,-7.2809,-6.821,-20.0348,38.7478,1.8783
600,1.3029,-7.1659,-7.0126,-20.1043,39.0261,2.0174
605,1.2263,-7.0893,-6.936,-20.3826,39.0261,2.1565
610,1.2646,-7.0893,-6.821,-21.4261,39.2348,2.2957
615,1.4562,-7.0126,-6.936,-22.9565,40.0696,2.5739
620,1.1879,-7.0509,-6.8593,-24.2087,41.4609,2.9217
625,1.3029,-7.0893,-7.0509,-25.3217,42.9217,3.2
630,1.3029,-7.0509,-7.1659,-26.7826,44.2435,3.6174
635,1.1496,-6.8977,-7.2042,-28.5217,45.5652,3.7565
640,1.073,-6.8593,-7.3192,-30.4,46.7478,3.8261
645,1.2646,-6.9743,-7.3575,-32.2783,47.9304,3.8957
650,1.1496,-6.8977,-7.3575,-33.9478,49.5304,3.9652
655,1.1879,-7.0509,-7.2042,-35.2,51.4087,3.8261
660,1.1496,-7.1276,-7.3575,-36.2435,53.4957,3.4087
665,1.2646,-7.0893,-7.5108,-37.2174,55.7913,3.1304
670,1.1879,-7.1276,-7.6641,-38.1217,58.087,2.5043
675,1.3029,-7.0893,-7.6641,-39.0261,60.4522,1.8783
680,1.4945,-7.0893,-7.7024,-39.7217,62.6087,1.1826
685,1.5328,-7.2809,-7.7024,-40.5565,64.7652,0.5565
690,1.4945,-7.2042,-7.779,-41.2522,66.8522,-0.2783
695,1.6478,-7.1659,-7.6641,-42.087,69.0783,-0.9043
700,1.8394,-7.3575,-7.5874,-42.3652,71.3739,-1.3913
705,1.8777,-7.3958,-7.3192,-42.2261,73.5304,-1.8783
710,2.031,-7.0893,-7.4341,-42.1565,74.8522,-2.9217
715,1.9543,-6.9743,-7.2809,-40.487,75.1304,-2.5043
720,1.916,-6.7827,-7.4341,-38.4696,73.8087,-2.5739
725,1.8777,-6.6677,-7.4341,-37.2174,72.4174,-2.087
730,1.9543,-6.8593,-7.3192,-36.3826,71.5826,-1.0435
735,1.8394,-7.0126,-7.2425,-35.6174,71.6522,0.0
740,1.6478,-7.0509,-7.3575,-34.4348,73.0435,1.2522
745,1.5328,-7.0509,-7.3958,-33.0435,74.9217,2.9913
750,1.5328,-7.0126,-7.4725,-32.2087,76.8,4.3826
755,1.4562,-6.821,-7.4341,-32.3478,78.4,5.913
760,1.3412,-6.6677,-7.3575,-33.5304,79.3739,7.0261
765,1.3795,-6.5528,-7.3958,-34.9217,80.2087,7.9304
770,1.3412,-6.2462,-7.3192,-36.5217,80.9739,8.3478
775,1.8394,-6.0163,-7.4725,-38.4696,82.087,9.113
780,1.3795,-5.8247,-7.3575,-42.0174,85.0087,10.8522
785,1.6095,-5.9396,-7.3958,-46.4696,86.3304,11.2
790,1.8011,-5.978,-7.7407,-47.3043,85.913,7.7217
795,2.0693,-6.1696,-7.5874,-47.5826,87.6522,4.7304
800,2.1076,-6.1313,-7.6257,-48.3478,89.6696,2.1565
805,2.4908,-6.1696,-7.5874,-50.087,91.9652,0.3478
810,2.4525,-6.2079,-7.6641,-52.0348,93.5652,-0.3478
815,2.5291,-6.2845,-7.6257,-53.5652,94.1913,-0.9739
820,2.5675,-6.3995,-8.0089,-55.5826,95.2348,-1.7391
825,2.6824,-6.6294,-8.0856,-58.1565,96.3478,-2.2957
830,2.6441,-6.4761,-8.1622,-60.6609,96.6957,-3.0609
835,2.6441,-6.2845,-8.2005,-64.1391,96.3478,-3.687
840,2.5291,-6.2079,-8.2005,-67.2696,94.6087,-2.713
845,2.5291,-5.978,-8.3538,-70.887,91.9652,-1.4609
850,1.9927,-5.7097,-8.3921,-75.6174,89.6,0.8348
855,1.4945,-5.748,-8.2772,-81.3913,85.6348,1.8087
860,1.1113,-5.4032,-8.4688,-83.0609,79.3739,0.6261
865,0.843,-5.3648,-8.3155,-83.4087,73.5304,-0.6261
870,0.5365,-5.2499,-8.2389,-83.8957,69.3565,0.487
875,0.2299,-5.1732,-8.0089,-85.8435,65.6696,1.8783
880,-0.1533,-5.2116,-7.7407,-88.3478,62.5391,3.3391
885,-0.1533,-5.0583,-7.6641,-91.4087,59.7565,3.4783
890,-0.3066,-5.0583,-7.4725,-94.0522,57.0435,2.6435
895,-0.3832,-4.9433,-7.3575,-95.8609,55.2348,2.1565
900,-0.4215,-4.8284,-7.3958,-97.6,53.287,1.8087
905,-0.3832,-4.905,-7.0893,-99.0609,51.2,1.5304
910,-0.3832,-4.7517,-7.1659,-100.3826,49.113,1.6696
915,-0.3832,-4.6368,-7.0126,-101.913,47.3739,0.9739
920,-0.2682,-4.7134,-7.0509,-104.2087,46.1217,0.9739
925,-0.0383,-4.5984,-7.0126,-106.9913,45.4957,0.9043
930,0.1916,-4.7517,-6.936,-109.8435,45.0783,0.4174
935,0.0,-4.3685,-6.5911,-113.7391,44.6609,-0.9739
940,0.4598,-4.1386,-6.8977,-118.3304,44.313,-1.0435
945,0.5748,-4.1386,-6.3995,-120.5565,43.6174,0.0
950,0.6131,-4.3685,-6.5528,-120.9043,42.2261,0.3478
955,0.7664,-4.4835,-6.6677,-119.8609,41.1826,0.9739
960,0.958,-4.4835,-6.3995,-118.8174,39.8609,1.113
965,0.9963,-4.5218,-6.0546,-118.4696,38.1217,1.113
970,1.073,-4.6368,-6.0929,-119.3739,36.0348,1.1826
975,1.073,-4.8667,-6.0163,-122.087,33.8087,1.0435
980,1.2263,-5.2882,-5.9396,-125.8435,31.6522,0.4174
985,0.8047,-4.6368,-5.863,-130.6435,29.5652,-1.8087
990,1.4562,-4.79,-5.9396,-135.6522,27.4087,-2.2957
995,1.5711,-4.7134,-6.3229,-138.713,25.113,-2.5043
1000,1.6095,-4.5984,-6.6677,-141.0783,23.513,-3.9652
1005,1.8011,-4.7517,-7.1659,-143.1652,23.3043,-4.3826
1010,2.1076,-4.1386,-7.3958,-145.7391,24.0,-5.8435
1015,2.0693,-4.1386,-7.6257,-146.1565,25.8783,-4.2435
1020,2.2992,-4.2152,-7.7407,-144.7652,27.9652,-2.8522
1025,2.4142,-4.2536,-7.8557,-142.6783,29.4957,-1.9478
1030,2.5675,-4.2152,-7.7024,-140.3826,30.4696,-0.9043
1035,2.5675,-4.3685,-7.779,-137.4609,30.9565,0.5565
1040,2.5291,-4.4452,-7.894,-134.1217,30.9565,1.113
1045,2.4142,-4.4835,-7.894,-131.2,31.1652,1.3913
1050,2.3375,-4.5984,-7.7024,-128.6261,31.513,1.9478
1055,2.0693,-4.6368,-7.5874,-126.1913,31.5826,2.2261
1060,1.8011,-4.6751,-7.3192,-124.3826,31.4435,2.9913
1065,1.3029,-4.5218,-6.936,-123.2,30.6783,2.8522
1070,0.9197,-4.5601,-6.8593,-121.6,29.0783,2.7826
1075,0.5365,-4.4452,-6.3229,-120.2087,26.6435,3.0609
1080,0.1533,-4.4452,-6.0546,-119.2348,24.0,3.2696
1085,0.1916,-3.832,-5.5564,-119.0261,21.5652,2.713
1090,-0.3832,-4.1386,-5.7864,-115.8261,19.4783,6.3304
1095,-0.6131,-3.2572,-5.3648,-111.0957,17.3913,10.5739
1100,-0.6131,-3.1039,-5.6714,-105.3913,15.7217,12.8
1105,-0.8047,-3.2572,-5.9013,-100.3826,14.9565,16.1391
1110,-0.8814,-3.1806,-5.7864,-96.487,14.2609,19.8261
1115,-0.958,-3.0273,-5.7864,-94.1913,13.1478,23.0261
1120,-0.7664,-2.989,-5.8247,-94.5391,11.2696,25.8783
1125,-0.4982,-3.1039,-6.0163,-96.9739,8.9739,28.9391
1130,-0.1533,-2.989,-6.2462,-100.2435,6.6087,30.7478
1135,0.3066,-2.874,-6.6294,-104.9739,4.1043,31.0957
1140,0.3066,-3.2189,-6.4761,-110.1913,1.6,31.9304
1145,0.6514,-3.3339,-6.6677,-114.9217,-0.5565,33.3913
1150,0.5748,-3.8704,-7.0126,-120.4174,-3.2,33.113
1155,1.1879,-3.4488,-7.0509,-126.5391,-5.9826,32.0
1160,1.3029,-3.4488,-7.5874,-129.5304,-8.6261,32.9739
1165,1.5328,-3.5255,-8.2772,-130.9217,-10.7826,33.8783
1170,1.8394,-3.2955,-8.6604,-133.7043,-13.2174,36.1739
1175,1.7627,-3.4105,-9.1586,-134.1913,-15.0957,37.287
1180,1.7244,-3.6404,-9.8483,-134.2609,-16.2087,38.2609
1185,1.6478,-4.4068,-10.2315,-135.6522,-16.9043,38.6783
1190,1.4945,-3.6404,-10.3465,-141.6348,-17.4609,36.9391
1195,0.7664,-4.1386,-10.2315,-146.6435,-16.9043,38.2609
1200,0.2299,-4.062,-9.8866,-149.8435,-15.9304,39.1652
1205,0.1916,-4.6368,-9.6567,-151.3739,-14.7478,40.9739
1210,-0.4215,-4.1386,-9.4268,-152.6261,-14.4696,43.2696
1215,-0.6898,-4.6368,-9.0819,-150.4696,-13.1478,42.6435
1220,-0.7281,-5.02,-8.6987,-144.6261,-10.0174,43.1304
1225,-0.5365,-4.6751,-8.2389,-136.0,-5.7043,43.8261
1230,-0.0383,-4.905,-8.2005,-124.4522,0.7652,46.9565
1235,0.3832,-5.0966,-8.1622,-114.3652,8.5565,49.9478
1240,0.8814,-5.1732,-8.0089,-106.6435,18.2261,52.0348
1245,1.3029,-5.2499,-7.894,-101.3565,29.1478,53.7739
1250,1.7244,-5.2116,-7.4725,-97.4609,41.8087,54.887
1255,1.916,-4.9433,-7.4341,-94.4,55.7913,56.0
1260,1.8777,-4.8284,-7.2042,-91.2696,70.4,56.8348
1265,1.9927,-4.905,-6.5145,-87.513,85.1478,56.4174
1270,2.9123,-3.8704,-6.4761,-83.4783,99.9652,56.1391
1275,3.0273,-4.1003,-5.5181,-77.7043,115.9652,59.1304
1280,3.4488,-4.2152,-5.0966,-72.0696,131.4783,61.913
1285,3.7937,-4.1769,-4.2919,-66.5043,146.5739,63.8609
1290,3.9087,-3.832,-3.6404,-62.1913,159.7217,65.113
1295,3.832,-3.1806,-3.3722,-60.5913,172.2435,65.8783
1300,3.3722,-2.989,-2.8357,-61.4957,183.6522,67.687
1305,3.2189,-2.2992,-2.8357,-64.8348,193.3913,68.8
1310,3.2572,-2.3759,-2.8357,-70.1217,201.9478,69.4261
1315,3.3339,-2.031,-2.8357,-77.4957,209.8087,66.7826
1320,4.2919,-2.4908,-2.7974,-84.6609,218.087,65.8783
1325,3.6021,-2.4142,-2.7207,-88.3478,226.7826,66.1565
1330,3.1806,-2.4525,-2.7207,-89.8087,233.0435,66.5739
1335,2.4908,-1.9927,-2.989,-89.1826,239.2348,64.9043
1340,2.8357,-1.3412,-3.2572,-89.0435,246.1217,61.4261
1345,2.7591,-0.958,-3.2189,-89.6696,253.1478,56.6957
1350,3.0273,-0.8814,-3.0273,-90.2261,259.8261,51.4783
1355,2.031,-2.031,-2.2226,-90.3652,265.8087,49.6696
1360,2.2226,-1.8777,-2.9123,-88.0696,265.113,42.0174
1365,1.9543,-0.8814,-4.3685,-84.6609,262.1217,32.7652
1370,2.1076,-1.073,-5.1349,-82.6435,258.713,24.0
1375,0.958,-1.6478,-6.0163,-74.1565,256.0696,14.2609
1380,-0.4598,-2.1076,-6.2462,-56.4174,257.5304,4.3826
1385,-1.4179,-3.6787,-4.6368,-33.7391,266.2261,-2.8522
1390,-1.0346,-5.3265,-3.5638,-0.1391,280.7652,-3.0609
1395,0.115,-6.0546,-3.832,44.9391,297.9478,3.4087
1400,2.5291,-4.5218,-4.6751,88.6957,312.8348,11.2
1405,3.9853,-1.9543,-4.3685,115.2,319.7217,14.9565
1410,4.7517,0.8814,-3.4488,123.8261,314.8522,14.3304
1415,4.9816,3.947,-4.0236,117.5652,303.0957,15.513
1420,6.0546,6.1696,-4.9816,98.3652,289.3913,20.1739
1425,6.4378,7.1659,-4.3685,70.1913,275.6174,28.7304
1430,8.967,6.2079,-3.4871,42.9217,264.2783,40.2783
1435,9.9633,5.02,-4.5218,28.9391,257.3913,51.8957
1440,12.0326,3.7937,-6.5528,25.4609,254.7478,66.1565
1445,12.4541,4.1003,-7.4341,21.1478,260.0348,75.4783
1450,12.6457,4.79,-7.3192,12.6609,273.113,84.313
1455,12.6074,5.2882,-5.7864,-4.313,288.6957,90.087
1460,17.3208,6.7061,-3.1806,-22.8174,297.2522,80.487
1465,21.5743,6.1313,-0.5365,-33.3913,307.7565,58.0174
1470,28.4337,6.0929,0.0,-41.5304,318.8174,41.0435
1475,40.5046,8.6221,1.073,-60.1739,317.7739,21.8435
1480,55.6794,12.7223,1.5711,-81.8783,322.087,-14.4696
1485,72.3871,16.9759,0.4982,-100.313,328.0696,-60.1739
1490,89.4396,21.3827,-2.989,-112.1391,349.1478,-93.0087
1495,99.3263,24.64,-8.5838,-120.5565,380.313,-114.8522
1500,105.3809,23.9502,-16.0562,-128.2783,402.0174,-139.6174
1505,99.9394,20.463,-19.1218,-141.287,421.7739,-149.8435
1510,76.449,15.2515,-15.8263,-150.6783,433.0435,-137.3913
1515,57.0973,7.2809,-9.5418,-133.8435,411.5478,-108.1739
1520,41.3859,3.2189,-4.062,-81.6,354.6435,-85.5652
1525,31.4227,0.8047,-1.8011,-8.0696,304.7652,-65.5304
1530,26.0961,-1.1496,-1.7627,69.2174,256.3478,-46.3304
1535,22.0725,-0.958,-1.8394,134.9565,210.1565,-33.6
1540,18.777,0.7664,2.4142,176.0696,166.0522,-21.4957
1545,12.0709,6.6294,7.2042,190.7478,109.7739,-3.8261
1550,8.6221,10.883,12.0709,180.6609,48.3478,23.7217
1555,0.8047,11.1129,15.0599,165.0087,-3.4087,55.513
1560,-6.0546,8.6987,14.3701,144.2087,-45.3565,92.5913
1565,-13.642,5.3265,10.9596,107.8957,-79.4435,124.8
1570,-21.1145,3.0273,6.3995,60.5217,-108.1739,141.0087
1575,-22.1875,0.6898,1.3412,17.3217,-126.1217,137.2522
1580,-17.5124,1.6478,-1.5711,-19.7565,-129.113,106.0174
1585,-10.768,4.905,-2.6441,-48.1391,-110.4,57.4609
1590,-5.6331,7.3192,-1.8011,-66.6435,-73.6,17.2522
1595,-0.4598,7.2042,-0.4598,-74.0174,-42.6435,-8.9043
1600,3.6021,6.2079,0.7281,-68.1043,-28.2435,-30.5391
1605,6.2079,5.0583,1.073,-53.4957,-21.3565,-44.9391
1610,6.9743,2.7207,1.3795,-40.3478,-15.0261,-50.9217
1615,7.1659,0.6514,0.4982,-33.0435,-7.4435,-50.3652
1620,7.1276,-0.9197,0.1533,-32.7652,2.4348,-42.2957
1625,7.0893,-1.8394,0.0383,-36.6609,14.3304,-32.3478
1630,5.9013,-2.5291,0.2299,-41.113,26.5043,-24.5565
1635,5.1349,-2.5675,0.4598,-44.1043,37.7043,-21.4261
1640,4.4452,-2.4525,1.1879,-45.3565,48.6261,-22.4
1645,4.3302,-2.1076,1.4179,-44.6609,59.3391,-24.2087
1650,3.4488,-1.6478,1.3029,-44.3826,68.8,-26.713
1655,4.3685,-0.9197,1.3029,-47.0957,75.0609,-28.5217
1660,5.0583,0.3449,1.4945,-50.5739,78.6783,-32.2087
1665,6.5145,1.3795,1.4179,-51.4087,80.2783,-36.3826
1670,6.7827,1.6095,1.916,-48.9043,80.9043,-40.2783
1675,7.4341,1.073,2.031,-43.6174,80.6957,-43.9652
1680,6.821,0.5748,2.5675,-36.5913,80.6957,-49.3913
1685,6.4378,-0.1916,2.7974,-28.9391,79.513,-54.4696
1690,4.7517,-1.4179,2.6058,-21.9826,80.5565,-57.8087
1695,2.874,-2.2226,2.7591,-19.3391,83.3391,-58.5739
1700,1.1496,-3.1039,2.9123,-21.0783,84.9391,-55.1652
1705,0.2299,-3.4871,2.9123,-23.9304,84.3826,-49.7391
1710,-0.2682,-3.5638,3.2572,-25.8783,80.7652,-44.5217
1715,0.2682,-3.1423,3.6404,-27.1304,73.6696,-41.3217
1720,2.1076,-1.9927,3.947,-26.5043,65.6696,-39.1652
1725,4.8667,-1.4179,4.4452,-23.3739,62.2609,-36.0348
1730,7.1276,-0.4215,4.6368,-18.7826,63.3739,-31.3739
1735,8.6987,0.3066,4.7517,-14.4696,67.0609,-24.7652
1740,9.4268,0.7281,5.2116,-13.0087,71.3739,-16.0
1745,10.0016,0.4598,5.5181,-15.3739,75.0609,-6.887
1750,11.0746,0.4598,5.3265,-19.2,75.4087,-1.3913
1755,11.7643,0.5365,5.4032,-23.3043,76.6609,4.0348
1760,11.9176,0.8047,5.3265,-25.3913,79.3739,8.9739
1765,10.883,1.3412,4.905,-26.1565,81.0435,14.4
1770,10.0782,1.4179,4.4835,-27.7565,78.6087,21.287
1775,10.0016,1.4945,4.3685,-29.5652,71.3043,27.0609
1780,10.6147,1.8777,3.9087,-29.7043,61.0087,31.1652
1785,11.4578,2.1076,4.1386,-27.687,49.113,34.4348
1790,12.3008,2.0693,3.947,-24.2087,37.2174,36.6609
1795,13.0672,1.9543,4.062,-19.9652,26.3652,38.4696
1800,13.2205,1.5711,4.1003,-16.1391,17.5304,39.7217
1805,12.9523,1.1496,4.0236,-13.3565,10.2957,39.5826
1810,12.8756,0.7664,4.1003,-11.4783,3.6174,38.1913
1815,13.0289,0.5748,3.9853,-8.9739,-2.5739,35.5478
1820,13.0672,0.4982,3.9087,-5.2174,-7.7217,31.7217
1825,13.1055,0.4215,3.7554,-1.1826,-11.7565,27.8261
1830,13.0672,0.5748,3.9087,2.9913,-15.6522,23.7913
1835,13.2205,0.3449,3.8704,6.9565,-19.9652,20.1043
1840,13.1055,0.3066,3.947,10.087,-24.487,16.487
1845,13.0289,0.0766,3.947,12.2435,-28.9391,12.9391
1850,12.4158,-0.0383,3.7171,14.6087,-33.113,8.9043
1855,12.2242,-0.115,3.7171,16.487,-37.2174,5.1478
1860,11.5727,-0.3066,3.7171,17.8087,-41.0435,1.113
1865,10.653,-0.115,3.7171,18.9913,-45.287,-2.4348
1870,10.2698,-0.2299,3.9087,20.6609,-49.5304,-6.1913
1875,9.695,-0.2682,3.5255,22.4696,-53.3565,-10.2261
1880,9.0819,-0.3066,3.1806,24.2783,-56.6261,-13.6348
1885,8.4688,-0.115,2.7974,25.6696,-59.4087,-16.5565
1890,7.9323,0.115,2.2992,26.5043,-61.8435,-18.9217
1895,7.5491,0.115,2.3759,27.2696,-63.7913,-21.0783
1900,6.936,0.1916,2.2609,27.8957,-65.8783,-22.5391
1905,6.7061,0.3066,2.2226,28.1043,-68.5913,-23.3043
1910,6.6294,0.3832,2.0693,28.2435,-71.6522,-23.513
1915,6.6677,0.3832,1.916,27.8261,-74.2957,-23.3043
1920,6.5145,0.4982,1.8011,27.2696,-76.9391,-22.6087
1925,7.0126,0.3832,1.5711,26.6435,-79.7217,-21.7739
1930,6.8977,0.2299,1.5711,25.4609,-82.0174,-21.2174
1935,6.8593,0.3066,1.2646,24.4174,-84.0348,-19.9652
1940,7.2425,0.1533,1.1496,22.887,-86.4696,-19.2696
1945,7.1276,0.4982,0.9963,21.2174,-88.3478,-18.5043
1950,6.9743,0.4982,0.3449,19.8261,-89.8087,-16.7652
1955,7.6257,0.5365,0.3066,17.8783,-92.4522,-16.1391
1960,8.1622,0.5748,0.1533,17.3217,-93.287,-16.0
1965,8.1622,0.9197,0.4215,16.487,-93.4957,-15.0957
1970,7.8557,0.6898,0.3449,15.0261,-94.0522,-13.1478
1975,8.3921,0.8814,0.4598,11.2,-97.4609,-12.7304
1980,8.6604,0.9963,0.5365,8.8348,-98.9217,-13.3565
1985,8.5454,0.9963,0.2682,7.5826,-100.4522,-13.2174
1990,8.5454,1.0346,-0.0383,6.4,-102.2609,-12.8
1995,9.0436,1.0346,0.0383,5.287,-104.0696,-12.8
2000,9.2352,0.7664,-0.1916,5.7043,-105.6,-13.7043
2005,9.695,0.7664,-0.2299,7.1652,-107.2696,-14.8174
2010,9.695,0.7664,-0.1916,7.8609,-108.8696,-16.0
2015,10.1932,0.7664,-0.3066,8.9739,-111.0957,-17.4609
2020,9.6567,0.5365,-0.3832,10.087,-113.2522,-18.5043
2025,10.2698,0.6898,-0.958,11.687,-116.3826,-19.4087
2030,10.1166,0.8814,-0.9963,12.5913,-119.0261,-20.8
2035,10.2698,1.073,-1.2646,13.7043,-120.6957,-21.9826
2040,9.9633,1.1496,-1.1496,15.0957,-121.2522,-23.9304
2045,10.3465,1.1496,-1.1496,17.6696,-121.8087,-27.5478
2050,10.883,1.4562,-1.1496,21.0783,-121.6,-31.3043
2055,10.768,1.5328,-0.9963,24.6261,-120.6957,-34.713
2060,10.5764,1.9927,-1.8777,27.5478,-121.5304,-37.913
2065,10.1932,2.4142,-2.2609,27.8957,-125.2174,-40.0
2070,9.8483,2.4908,-2.5291,25.6,-129.1826,-40.8348
2075,9.81,2.2609,-2.5291,22.1217,-132.8696,-41.3913
2080,10.0016,1.9927,-2.6441,20.5217,-135.9304,-42.7826
2085,10.1166,2.1076,-2.5291,22.3304,-138.5043,-45.5652
2090,10.3082,2.1843,-2.5675,25.3217,-141.9826,-49.8087
2095,10.2698,2.5291,-2.6824,27.5478,-146.8522,-53.913
2100,10.3082,2.7207,-2.6824,27.8957,-152.0696,-57.6696
2105,10.2698,2.9123,-2.2992,28.3826,-156.1739,-61.0087
2110,10.0782,3.3339,-2.4908,31.3043,-158.3304,-63.1652
2115,10.6147,3.7171,-3.1423,35.3391,-159.5826,-65.5304
2120,10.1166,3.9853,-2.6824,36.9391,-160.1391,-68.5217
2125,9.9633,3.7937,-2.6824,38.6783,-162.2261,-70.7478
2130,9.4651,3.7171,-2.4525,37.4957,-167.1652,-73.4609
2135,9.2735,3.1806,-2.6441,33.4609,-173.3565,-75.687
2140,8.8903,2.9123,-2.874,29.4957,-181.4261,-77.5652
2145,8.8903,2.7591,-3.6404,28.9391,-189.4957,-77.0087
2150,8.0089,2.6824,-4.4068,32.3478,-196.0348,-76.9391
2155,7.2042,2.0693,-5.9013,38.4696,-200.5565,-74.7826
2160,6.936,1.7627,-7.0893,44.313,-203.0609,-70.1913
2165,6.6294,1.7627,-8.3921,46.9565,-204.313,-64.6957
2170,6.1696,1.8394,-9.0053,45.8435,-203.2,-58.5043
2175,7.0893,1.8777,-9.3502,44.4522,-199.2348,-51.1304
2180,8.1239,2.7207,-9.8483,44.313,-191.2348,-44.8
2185,9.1202,2.7974,-9.9633,43.0609,-179.7565,-36.9391
2190,9.81,3.0656,-9.925,42.5043,-167.0261,-27.4783
2195,10.768,3.2955,-9.8866,42.713,-154.9217,-19.1304
2200,10.9979,3.2955,-9.9633,42.713,-141.1478,-11.4783
2205,10.3848,3.3722,-10.1166,42.5043,-127.8609,-5.0087
2210,10.2315,3.6404,-10.1166,39.8609,-115.8261,-0.6957
2215,10.2698,3.5255,-9.5418,34.9217,-102.7478,0.7652
2220,10.1932,3.832,-8.8137,30.8174,-88.1391,0.7652
2225,11.6877,3.5255,-8.3155,28.8,-71.7217,2.5043
2230,11.8793,3.4488,-7.894,28.8,-54.8174,3.1304
2235,11.6877,3.2572,-7.9706,29.7739,-37.7739,4.9391
2240,11.7643,2.874,-7.5874,30.1217,-19.9652,6.887
2245,11.3811,2.7207,-7.6257,29.6348,-3.687,9.1826
2250,10.768,2.4525,-7.3958,28.2435,10.8522,12.0348
2255,10.7297,1.8394,-7.1659,25.6,24.0696,15.9304
2260,9.4268,1.7627,-7.0893,22.3304,34.1565,17.5304
2265,8.6604,1.5328,-7.1276,18.087,40.9739,18.5043
2270,7.9706,1.4562,-6.8977,14.3304,46.1217,19.5478
2275,7.5874,1.3029,-7.1276,11.1304,48.7652,19.6174
2280,6.2845,1.4179,-7.0893,8.487,47.7217,17.1826
2285,5.863,1.9543,-7.0893,5.4261,44.4522,15.9304
2290,4.7517,2.031,-7.0509,0.5565,41.4609,18.2261
2295,4.0236,1.9927,-7.0509,-3.8261,35.5478,18.713
2300,3.7554,1.9927,-7.2425,-4.1739,26.7826,16.2087
2305,3.7171,2.1459,-7.5874,-3.2696,19.0609,14.2609
2310,3.8704,2.2609,-7.7407,-2.713,12.2435,12.8696
2315,3.0656,2.4142,-8.0089,-1.8783,5.5652,11.6174
2320,3.1039,2.2609,-8.1622,-2.3652,-0.8348,11.2696
2325,2.4525,2.4908,-8.4688,-3.6174,-7.513,9.6
2330,4.79,2.3759,-8.5454,-5.7739,-14.887,7.8609
2335,7.3958,2.9123,-7.8557,-5.6348,-17.113,2.8522
2340,8.8903,2.9507,-7.9706,-2.5739,-14.1217,0.2783
2345,10.0016,2.7974,-8.3155,1.5304,-10.7826,-0.3478
2350,10.8446,2.874,-8.7754,4.8696,-7.7217,-0.0696
2355,11.0363,2.9123,-9.2352,5.8435,-5.4261,-0.5565
2360,10.9213,2.874,-9.3885,4.5913,-3.6174,-2.1565
2365,10.653,2.6824,-9.1586,2.2261,-1.3913,-3.0609
2370,10.8446,2.4525,-9.2735,0.3478,1.6,-3.8261
2375,10.768,2.6824,-8.967,-1.1826,4.7304,-5.5652
2380,10.1549,2.1843,-8.967,-2.087,7.8609,-6.5391
2385,10.1549,2.3759,-8.6604,-3.1304,11.2696,-8.3478
2390,9.925,2.3759,-8.4688,-4.5217,15.3043,-9.7391
2395,9.7717,2.3759,-8.3538,-5.6348,18.9217,-10.4348
2400,9.4651,2.5291,-8.0089,-6.0522,22.7478,-10.2261
2405,9.5801,2.2992,-7.894,-6.4,26.5043,-9.6696
2410,9.4651,2.1459,-7.5874,-7.0957,30.4,-8.9739
2415,9.2352,2.1843,-7.2809,-7.2348,34.6435,-8.2087
2420,9.4651,1.8777,-7.1276,-7.3739,38.887,-7.6522
2425,9.3502,2.031,-7.0893,-7.7217,42.6435,-7.2348
2430,9.3502,2.3759,-6.9743,-8.487,45.9826,-6.7478
2435,9.3118,2.2992,-6.7061,-8.5565,48.7652,-6.3304
2440,9.2352,2.3375,-6.6294,-8.0,51.2696,-5.5652
2445,9.1586,2.4525,-6.3995,-6.887,52.5217,-4.2435
2450,9.3502,2.4908,-6.3612,-5.6348,53.1478,-2.9913
2455,9.3118,2.4142,-5.978,-4.5913,53.4261,-1.6
2460,9.2352,2.3759,-5.748,-3.6174,53.5652,-0.2087
2465,9.1586,2.3375,-5.7864,-2.5739,53.2174,1.1826
2470,9.1969,2.4525,-5.7864,-1.9478,52.1043,2.1565
2475,9.1202,2.3759,-5.5564,-1.6,51.0609,2.9217
2480,9.2352,2.3375,-5.5181,-1.5304,49.6696,3.9652
2485,8.852,2.4525,-5.2116,-1.8087,48.1391,4.7304
2490,8.852,2.4142,-4.9433,-2.4348,46.0522,5.4261
2495,8.737,2.4525,-4.79,-3.2696,43.7565,5.913
2500,8.5454,2.5675,-4.6368,-3.9652,41.4609,6.4
2505,8.737,2.4142,-4.4452,-4.8696,38.8174,6.887
2510,8.6221,2.4142,-4.4835,-5.6348,36.7304,6.6783
2515,8.5454,2.2226,-4.2919,-6.4696,35.1304,6.9565
2520,8.4305,2.2992,-4.1003,-7.5826,32.9043,7.1652
2525,8.4688,2.2226,-3.947,-8.6261,30.5391,7.2348
2530,8.3155,2.2992,-3.8704,-9.4609,27.687,7.2348
2535,8.4688,2.2226,-3.6787,-10.2957,25.0435,7.0261
2540,8.4305,2.3759,-3.947,-10.8522,22.1913,6.6087
2545,8.4688,2.3759,-3.832,-11.2696,19.6174,6.1217
2550,8.6221,2.2609,-3.7171,-11.1304,17.1826,5.4261
2555,8.6604,2.1843,-3.8704,-10.7826,14.887,4.5217
2560,8.6604,2.1076,-3.9853,-10.2957,12.6609,3.7565
2565,8.737,2.1843,-4.062,-9.6,10.3652,2.9913
2570,8.852,1.9927,-4.062,-8.5565,8.0,2.0174
2575,9.0053,1.9543,-4.1386,-7.1652,5.7043,1.3217
2580,9.0436,2.031,-4.2152,-5.913,3.6174,0.5565
2585,9.1586,1.9927,-4.4068,-5.0783,1.7391,-0.1391
2590,9.1969,2.031,-4.5218,-4.1739,-0.1391,-0.9043
2595,9.1969,2.0693,-4.5601,-3.4087,-2.2957,-1.3913
2600,9.1586,2.1843,-4.5984,-2.5739,-3.8957,-1.8087
2605,9.1969,2.1843,-4.8284,-1.7391,-5.4261,-2.2957
2610,9.2352,2.2226,-4.5984,-1.3217,-6.6783,-2.5739
2615,9.2352,2.3375,-4.8667,-0.6957,-8.0696,-2.9913
2620,9.1586,2.2226,-4.8284,-0.487,-9.1826,-3.2696
2625,9.1969,2.2992,-5.0966,-0.0696,-10.1565,-3.687
2630,9.2352,2.2226,-4.8284,0.2087,-11.2,-3.8957
2635,9.2352,2.3375,-4.9816,0.2783,-12.1043,-4.1043
2640,9.1969,2.2992,-5.0966,0.3478,-13.0783,-4.313
2645,9.1969,2.2609,-4.9433,0.4174,-14.1217,-4.313
2650,9.1969,2.2992,-5.0966,0.4174,-15.1652,-4.3826
2655,9.0819,2.2992,-5.1349,0.4174,-16.0696,-4.3826
2660,9.1969,2.2992,-5.2882,0.3478,-16.6261,-4.3826
2665,9.2352,2.1843,-5.2116,0.487,-17.2522,-4.2435
2670,9.1586,2.2609,-5.4415,0.8348,-17.6696,-4.1739
2675,9.1969,2.4142,-5.5948,0.9739,-17.9478,-4.1043
2680,9.1969,2.2992,-5.6331,1.2522,-18.2261,-4.1739
2685,9.1969,2.2992,-5.4415,1.3217,-18.2957,-4.1043
2690,9.1969,2.4142,-5.5948,1.5304,-18.2261,-3.8957
2695,9.1969,2.3759,-5.6714,1.8087,-18.087,-3.6174
2700,9.1202,2.3759,-5.7097,2.2261,-17.8783,-3.4087
2705,9.1969,2.4142,-5.7097,2.5043,-17.7391,-3.2696
2710,9.1202,2.4525,-5.5948,2.3652,-17.5304,-2.9913
2715,9.0436,2.3759,-5.7097,2.3652,-17.5304,-2.7826
2720,9.0819,2.4142,-5.7097,2.087,-17.3913,-2.6435
2725,8.9286,2.4142,-5.748,1.8783,-17.1826,-2.5739
2730,9.1202,2.3759,-5.7864,1.6,-16.9739,-2.4348
2735,9.0819,2.4142,-5.8247,1.6,-16.6261,-2.3652
2740,8.8137,2.3759,-5.748,1.4609,-16.2087,-2.2261
2745,8.8903,2.3759,-6.0163,1.4609,-15.7217,-2.2261
2750,8.967,2.2609,-5.748,1.2522,-14.9565,-2.2957
2755,8.852,2.4525,-6.0546,0.9043,-14.1913,-2.3652
2760,8.8137,2.4525,-5.9013,0.9739,-13.5652,-2.087
2765,8.8903,2.4142,-5.9396,0.8348,-13.1478,-2.0174
2770,8.852,2.3759,-5.9013,0.487,-12.5913,-2.087
2775,9.0436,2.1843,-5.9396,-0.3478,-12.1739,-2.087
2780,8.967,2.1843,-5.9013,-1.0435,-11.8261,-2.1565
2785,8.7754,2.4142,-6.0163,-1.3913,-11.1304,-2.2957
2790,8.967,2.2609,-6.0546,-1.9478,-10.3652,-2.2957
2795,8.8903,2.3375,-5.9396,-2.713,-9.7391,-2.4348
2800,9.0053,2.4525,-6.0163,-3.3391,-9.113,-2.4348
2805,8.8903,2.3759,-6.1313,-4.0348,-8.5565,-2.4348
2810,9.0053,2.4142,-6.0546,-4.2435,-7.8609,-2.5043
2815,8.9286,2.4525,-6.1696,-4.1739,-6.887,-2.4348
2820,8.8903,2.5291,-6.0929,-4.1739,-5.913,-2.5043
2825,9.0436,2.4142,-6.2462,-4.1739,-4.8696,-2.5739
2830,9.0053,2.4525,-6.2462,-4.1739,-3.8261,-2.5739
2835,8.9286,2.4908,-6.2462,-4.1739,-2.713,-2.5739
2840,9.0436,2.4525,-6.2845,-4.1739,-1.6696,-2.6435
2845,8.8137,2.3375,-6.1313,-4.1739,-0.3478,-2.713
2850,8.8137,2.4142,-5.978,-4.1739,0.7652,-2.7826
2855,8.852,2.3759,-5.8247,-4.1043,1.7391,-2.5043
2860,8.737,2.4908,-5.8247,-3.8261,2.8522,-2.5043
2865,8.852,2.4525,-5.9013,-3.4783,3.7565,-2.4348
2870,8.7754,2.4142,-5.863,-3.1304,4.7304,-2.3652
2875,8.967,2.2609,-5.9013,-2.9217,5.4957,-2.5043
2880,8.8903,2.1843,-6.0163,-2.7826,6.1217,-2.6435
2885,8.9286,2.2226,-5.863,-2.5739,6.4,-2.8522
2890,9.0053,2.3759,-5.9013,-2.5043,6.7478,-3.0609
2895,8.967,2.4142,-5.863,-2.3652,6.887,-3.1304
2900,8.852,2.4908,-5.9013,-2.087,6.7478,-3.2
2905,8.9286,2.5291,-5.7097,-1.8783,6.7478,-3.1304
2910,9.0053,2.4908,-5.863,-1.4609,6.8174,-2.6435
2915,9.0436,2.4525,-6.0929,-1.2522,6.9565,-2.5739
2920,8.6987,2.4908,-5.7864,-1.4609,7.2348,-2.6435
2925,8.8137,2.5291,-5.8247,-1.6696,6.5391,-2.8522
2930,8.852,2.3759,-5.6714,-1.7391,6.0522,-2.9913
2935,8.967,2.2609,-5.6714,-1.6,6.1217,-3.2
2940,9.1202,2.2609,-5.5948,-1.5304,6.5391,-2.9913
2945,8.967,2.3759,-5.6331,-1.3913,6.8174,-2.5043
2950,8.9286,2.4525,-5.748,-1.4609,6.6783,-2.2957
2955,9.0053,2.3375,-5.5948,-1.3217,7.0261,-2.2261
2960,8.7754,2.3759,-5.7864,-1.113,7.4435,-2.2261
2965,8.8137,2.4908,-5.5948,-0.7652,7.513,-2.2261
2970,8.9286,2.5291,-5.6331,-0.6261,7.513,-2.2261
2975,8.9286,2.4142,-5.7097,-0.6957,7.513,-2.1565
2980,9.0053,2.5291,-5.7097,-0.7652,7.2348,-2.087
2985,9.0053,2.5291,-5.7097,-0.487,6.6783,-2.087
2990,9.0436,2.3375,-5.6714,-0.1391,6.4696,-1.8783
2995,9.0819,2.3375,-5.6331,0.0696,6.1913,-1.8783
