timestamp,accX,accY,accZ,gyroX,gyroY,gyroZ
0,-0.3066,-9.0436,-2.031,-19.0609,-11.8957,-20.2435
5,0.0,-9.4651,-1.916,-17.8087,-11.4087,-21.5652
10,0.0766,-9.6184,-1.916,-16.2783,-10.3652,-22.9565
15,0.4982,-9.81,-1.7627,-14.8174,-8.8348,-23.9304
20,0.3449,-10.1549,-1.8011,-13.8435,-6.3304,-24.6261
25,0.8047,-10.0782,-1.916,-12.2435,-5.0087,-25.8087
30,0.8047,-10.2315,-1.9543,-10.0174,-4.0348,-27.1304
35,1.073,-10.2698,-2.0693,-8.0,-4.0348,-28.2435
40,1.4945,-10.1549,-2.2609,-5.913,-4.7304,-29.8435
45,1.3412,-9.9633,-2.4525,-3.0609,-6.1217,-30.7478
50,1.073,-9.925,-2.6441,0.0696,-7.9304,-31.3739
55,0.8814,-9.7717,-2.6824,3.8261,-9.7391,-31.7913
60,0.6131,-9.4651,-2.9507,7.6522,-10.9913,-31.7913
65,0.4215,-9.3885,-3.1806,11.3391,-11.6174,-31.4435
70,0.5365,-9.1586,-3.4105,14.0522,-11.0609,-30.7478
75,0.4215,-9.4268,-2.8357,16.0,-8.8348,-29.9826
80,0.6898,-9.4651,-2.7591,17.4609,-5.1478,-29.1478
85,0.8047,-9.7717,-2.4142,18.9217,0.0,-28.3826
90,0.6898,-10.0016,-2.1076,21.0783,5.7739,-27.9652
95,0.7281,-10.3082,-1.8394,23.6522,11.6174,-27.5478
100,1.0346,-10.8446,-1.5711,26.2261,17.3217,-27.0609
105,1.073,-11.0363,-1.6478,28.3826,22.5391,-26.713
110,1.3795,-11.1895,-2.1076,29.4261,26.6435,-26.5043
115,1.6861,-11.2662,-3.4488,28.5913,28.7304,-26.4348
120,1.6095,-10.9596,-4.7517,25.2522,28.8,-26.1565
125,1.1879,-10.6914,-6.6294,19.0609,26.8522,-25.3913
130,0.6131,-10.3082,-8.3538,10.2957,24.2087,-23.3739
135,-0.1916,-10.0016,-9.7334,0.4174,22.1913,-20.0348
140,-1.073,-9.8483,-10.1549,-8.9739,21.0087,-16.4174
145,-1.1496,-9.7334,-10.5381,-17.113,19.2696,-12.6609
150,-1.2263,-9.5418,-10.4231,-22.4,16.3478,-8.6261
155,-1.8777,-9.0436,-10.0399,-23.0261,13.8435,-3.9652
160,-2.4908,-8.4688,-9.2352,-18.2261,12.5913,1.113
165,-2.8357,-7.894,-8.2005,-9.2522,12.8,5.913
170,-2.4908,-7.4725,-7.6257,0.7652,14.9565,9.8783
175,-1.916,-7.1276,-7.0126,9.2522,18.5739,12.1043
180,-0.9197,-6.821,-6.8977,14.6087,22.2609,12.5217
185,-0.0383,-6.8977,-6.6677,16.1391,24.7652,12.313
190,0.7281,-7.2042,-6.4761,14.1217,26.1565,12.0348
195,1.3795,-7.3575,-6.2462,9.6,26.1565,11.4087
200,1.8394,-7.7407,-6.5528,4.1739,24.5565,10.0174
205,2.1076,-8.3155,-6.821,-1.3913,21.7043,8.2783
210,2.3375,-9.0053,-7.0509,-6.887,18.1565,6.6087
215,2.1076,-9.6567,-7.0126,-12.1043,13.4957,4.8696
220,1.9927,-10.1549,-7.0126,-17.2522,8.0,3.1304
225,1.4179,-10.4614,-6.9743,-21.8435,2.087,1.3913
230,0.8047,-10.768,-6.8977,-25.8783,-3.4087,-0.5565
235,0.3449,-11.0746,-7.0509,-29.4957,-7.8609,-2.4348
240,-0.0766,-11.1129,-6.9743,-31.8609,-11.0609,-4.4522
245,-0.4215,-11.2662,-6.7827,-31.9304,-12.8,-6.5391
250,-0.4215,-11.1129,-6.3612,-28.6609,-13.287,-8.7652
255,-0.4598,-11.0746,-6.1696,-21.913,-12.9391,-10.9913
260,-0.2682,-11.2662,-5.7864,-13.8435,-12.1043,-13.4957
265,-0.2299,-11.0746,-5.4798,-6.1217,-11.1304,-15.9304
270,-0.115,-11.2279,-5.2499,-0.487,-9.8783,-18.2957
275,-0.0383,-10.8063,-4.9433,2.713,-8.9043,-20.7304
280,0.0766,-10.3848,-4.5601,4.1043,-8.3478,-23.1652
285,0.3066,-9.8866,-4.1386,4.8,-8.4174,-25.4609
290,0.3832,-9.3118,-3.947,5.5652,-8.8348,-27.5478
295,0.5365,-8.8137,-3.9087,6.6783,-9.2522,-29.1478
300,0.4982,-8.0473,-3.4871,8.0,-10.0174,-30.6087
305,0.4598,-7.4725,-3.2572,9.2522,-10.5739,-31.9304
310,0.4598,-6.8977,-3.1039,9.6696,-10.9217,-33.0435
315,0.6131,-6.2845,-3.0273,8.7652,-11.3391,-34.0174
320,0.8047,-6.0546,-2.9123,6.7478,-11.8261,-34.7826
325,1.1113,-5.6714,-2.6441,3.8261,-12.3826,-35.4087
330,1.1879,-5.3648,-2.4142,0.487,-13.5652,-35.4783
335,1.2646,-5.0966,-2.6058,-3.4087,-15.0261,-35.1304
340,1.4945,-5.0583,-2.4908,-8.0696,-16.4174,-34.5043
345,1.4562,-4.905,-2.6058,-12.8,-17.9478,-33.5304
350,1.6095,-5.0583,-2.6824,-17.5304,-19.1304,-32.2783
355,1.6095,-5.2882,-2.7974,-21.8435,-20.1739,-30.8174
360,1.3795,-5.4798,-2.7974,-25.4609,-20.7304,-29.7043
365,1.3412,-5.863,-2.9123,-28.0348,-21.0783,-28.5913
370,1.2263,-6.1313,-3.0656,-29.5652,-21.1478,-27.7565
375,0.9963,-6.4378,-3.3339,-29.9826,-21.2174,-26.9913
380,0.843,-6.5911,-3.0656,-29.4957,-20.9391,-26.3652
385,0.7281,-6.936,-3.3722,-28.4522,-20.6609,-25.9478
390,0.7664,-7.0893,-3.1423,-27.4783,-19.9652,-25.4609
395,1.0346,-7.2042,-3.3339,-26.713,-18.6435,-25.2522
400,0.8047,-7.3575,-3.7171,-26.2261,-16.9739,-24.9043
405,0.9963,-7.3575,-3.947,-26.1565,-15.0957,-24.487
410,1.3795,-7.4341,-4.4452,-26.5739,-13.1478,-23.513
415,1.6861,-7.4725,-4.3302,-27.2,-10.9913,-22.2609
420,1.9927,-7.3958,-4.4452,-27.7565,-8.9043,-20.3826
425,2.2992,-7.5108,-4.3302,-28.0348,-7.0957,-18.5043
430,2.5675,-7.7407,-4.062,-27.8261,-5.8435,-16.6261
435,2.4908,-7.7407,-3.9853,-27.4783,-5.287,-14.887
440,2.6441,-7.9323,-3.947,-26.8522,-5.287,-13.287
445,2.989,-7.9323,-3.9087,-25.9478,-6.0522,-11.9652
450,2.989,-8.2005,-3.947,-24.6957,-7.3043,-11.1304
455,3.1423,-8.1622,-3.9853,-23.1652,-9.0435,-11.0609
460,2.9507,-8.4305,-3.947,-21.7739,-11.2,-11.6174
465,2.6441,-8.6221,-4.1003,-20.8,-13.4957,-12.5217
470,2.3759,-8.852,-4.1769,-20.7304,-15.1652,-13.2174
475,1.9927,-9.3118,-4.4068,-21.0783,-15.8609,-13.7739
480,1.6478,-9.6184,-4.3302,-21.287,-15.513,-13.9826
485,1.3029,-9.8483,-4.6368,-21.4261,-14.4696,-14.2609
490,0.9963,-10.0782,-4.7134,-21.4957,-12.6609,-14.5391
495,0.8047,-10.0399,-5.0583,-21.287,-10.6435,-14.7478
500,0.7281,-10.1549,-5.2882,-20.6609,-8.8348,-14.9565
505,0.8047,-10.5764,-5.3265,-19.6174,-7.6522,-15.3043
510,0.4598,-10.3465,-5.4798,-18.4348,-6.9565,-15.7217
515,0.3832,-10.4998,-5.5948,-16.6261,-6.9565,-16.4174
520,0.3832,-10.5381,-5.5181,-14.6087,-7.5826,-16.9739
525,0.6514,-10.7297,-5.1732,-12.313,-8.6261,-17.4609
530,0.6131,-10.9596,-4.8667,-10.087,-9.9478,-17.6696
535,0.6898,-11.1129,-4.9816,-8.0,-11.8957,-18.087
540,0.4982,-11.1512,-4.6368,-6.1913,-14.1913,-18.4348
545,0.5365,-11.1512,-4.5601,-4.5913,-16.8348,-18.6435
550,0.3449,-11.1895,-4.5984,-3.0609,-19.6174,-18.9913
555,0.2682,-10.9596,-4.8667,-1.5304,-22.4,-19.4783
560,-0.4215,-10.9979,-5.0583,-0.487,-24.1391,-19.8261
565,1.1879,-10.4614,-5.978,-1.9478,-28.8,-24.6957
570,0.5365,-10.0782,-6.3995,-2.7826,-27.3391,-21.8435
575,0.3449,-9.6184,-6.9743,-5.0783,-26.2261,-19.6174
580,0.5365,-9.3885,-7.4341,-9.3913,-25.5304,-18.0174
585,0.9197,-9.2735,-7.9706,-16.3478,-23.513,-16.7652
590,1.6478,-9.5034,-8.4305,-25.5304,-20.5913,-15.5826
595,1.8394,-10.1932,-8.852,-36.1043,-16.7652,-14.8174
600,2.9123,-10.0399,-8.5454,-46.4696,-12.2435,-14.5391
605,3.2572,-10.8446,-8.5838,-55.5826,-6.8174,-13.4261
610,3.7171,-10.8446,-8.3921,-61.913,-0.2087,-14.4
615,3.5638,-11.0746,-8.4688,-65.6696,6.5391,-12.8
620,2.874,-10.9979,-8.9286,-66.5043,10.5043,-13.913
625,3.9087,-10.1166,-8.6221,-66.2261,15.0957,-12.5217
630,2.9123,-9.7717,-7.9323,-61.0783,15.8609,-8.2087
635,2.4525,-9.4651,-7.4341,-49.1826,10.5043,-6.1217
640,1.7627,-9.0819,-6.4378,-32.9739,0.3478,-5.3565
645,1.1879,-8.6604,-5.863,-14.4,-13.5652,-5.4261
650,0.3066,-7.9706,-5.2499,4.313,-29.6348,-5.6348
655,-0.7664,-6.9743,-5.1732,21.4261,-46.3304,-5.8435
660,-1.5328,-6.1696,-5.0966,34.9217,-62.4,-5.913
665,-2.4142,-5.1349,-5.0583,44.6609,-75.9652,-5.1478
670,-2.6824,-4.6368,-5.1732,50.7826,-86.1913,-3.9652
675,-3.0273,-4.1003,-5.0966,53.287,-92.2435,-2.3652
680,-2.989,-3.6787,-4.9433,52.8,-94.4696,-0.6957
685,-2.5291,-3.5638,-4.7134,50.087,-92.8696,1.4609
690,-1.8394,-3.6021,-4.1769,45.9826,-87.4435,3.8261
695,-0.958,-3.832,-4.1386,40.3478,-78.9565,5.9826
700,0.2299,-4.2536,-4.3302,32.9043,-69.0783,7.7217
705,1.1879,-4.905,-4.6751,23.3739,-59.5478,8.8348
710,2.1076,-5.6714,-5.1349,12.1739,-50.6435,9.5304
715,2.4908,-6.4761,-5.4032,1.3913,-42.5043,9.7391
720,2.5675,-6.936,-5.6714,-6.9565,-34.5739,8.8348
725,2.5675,-7.3575,-6.0929,-11.6174,-26.7826,6.9565
730,2.6441,-7.779,-6.5145,-12.5217,-19.687,4.0348
735,2.2992,-7.9323,-6.9743,-10.087,-13.9826,0.2783
740,1.916,-7.894,-7.0509,-4.6609,-10.9913,-4.3826
745,1.7627,-8.0856,-6.8593,2.3652,-10.1565,-9.1826
750,1.3029,-8.2389,-6.4761,9.7391,-10.3652,-13.2174
755,0.9197,-8.2772,-6.1696,16.1391,-10.8522,-16.8348
760,0.6131,-8.6604,-5.4798,20.3826,-11.8957,-19.8957
765,0.0,-8.737,-5.1732,22.2609,-13.7043,-22.1913
770,-0.1916,-8.6604,-5.02,22.1217,-17.113,-23.0261
775,-0.2682,-8.7754,-5.0583,20.1739,-21.8435,-22.4696
780,-0.2682,-8.3538,-5.1349,17.4609,-27.5478,-20.8696
785,-0.0383,-8.2389,-5.4798,14.1913,-33.3217,-18.8522
790,0.0766,-8.1239,-5.3265,10.6435,-38.9565,-16.9739
795,0.0,-7.9323,-5.7097,7.6522,-44.7304,-15.0261
800,0.0,-7.6641,-5.6331,5.6348,-49.6,-12.6609
805,-0.115,-7.3958,-5.6331,5.0087,-52.9391,-10.0174
810,-0.0766,-7.2809,-5.3265,5.913,-54.887,-7.3739
815,-0.6514,-7.1276,-5.3265,7.8609,-55.3043,-5.1478
820,-0.8814,-7.0893,-5.5181,9.8783,-54.6783,-3.4783
825,-0.9197,-7.2425,-6.0546,10.713,-53.0783,-2.1565
830,-1.2263,-7.2042,-6.2079,10.5043,-50.713,-1.113
835,-1.1496,-7.1659,-6.0163,10.4348,-48.2783,0.1391
840,-1.1879,-6.821,-5.5181,11.9652,-45.7739,1.2522
845,-1.1879,-6.5528,-4.905,15.2348,-43.1304,2.0174
850,-1.2646,-6.0546,-4.6368,18.5043,-40.487,2.5043
855,-1.3412,-5.5181,-4.5601,21.0087,-37.8435,3.1304
860,-1.3795,-4.905,-4.5218,22.4696,-35.7565,4.1739
865,-1.1496,-4.7134,-4.1003,24.4174,-35.2696,5.287
870,-1.0346,-4.2152,-3.4105,27.1304,-36.8,5.7043
875,-0.843,-3.5638,-2.6824,29.7043,-40.0696,5.3565
880,-0.6898,-2.7591,-2.2992,31.3739,-44.4522,4.8696
885,-0.0766,-1.8394,-1.916,32.5565,-48.6957,4.1043
890,0.3449,-0.9197,-1.3029,33.3913,-51.9652,3.4087
895,0.9197,-0.4215,-0.9963,33.4609,-53.913,2.4348
900,1.5328,0.0766,-0.7281,32.6957,-54.4,1.3913
905,1.9543,0.6898,-1.1496,32.2783,-53.5652,1.3913
910,2.4142,1.1879,-1.4945,32.3478,-51.6174,2.3652
915,2.5675,1.4945,-2.2609,31.3043,-47.6522,4.5217
920,2.9507,1.6095,-2.3759,28.5913,-41.3217,7.3043
925,2.989,1.3795,-2.4908,25.0435,-33.113,11.0609
930,3.1039,0.8814,-2.7207,21.3565,-23.513,15.4435
935,2.9507,0.0383,-2.2609,18.4348,-13.913,20.0348
940,2.8357,-0.9197,-2.1076,16.487,-4.6609,24.5565
945,2.989,-1.5328,-1.5711,14.6087,4.0348,28.2435
950,2.989,-1.9927,-1.5328,12.2435,12.2435,31.7217
955,3.1806,-2.2609,-1.5711,9.5304,19.6174,34.7826
960,3.2189,-2.3375,-1.9927,7.0957,25.6,37.1478
965,3.3339,-2.3759,-2.4908,4.8,29.8435,38.887
970,3.5255,-2.2226,-2.989,2.3652,32.6957,40.2087
975,3.832,-2.1843,-3.7554,0.0696,34.5043,40.9043
980,3.9087,-2.1076,-4.4452,-2.3652,35.3391,40.4174
985,3.832,-1.9927,-5.1732,-5.1478,34.9913,39.2348
990,3.3722,-2.1076,-6.2462,-8.9739,33.6,37.4261
995,3.1423,-2.2609,-6.8977,-15.1652,31.2348,35.2
1000,2.3759,-2.6058,-8.2389,-23.3043,28.2435,32.9043
1005,2.0693,-3.1423,-9.1969,-33.1826,24.4174,30.9565
1010,1.6861,-3.6404,-9.81,-43.4783,20.7304,29.4261
1015,0.7281,-4.3685,-10.3082,-54.1217,17.0435,28.1043
1020,-0.0383,-5.2499,-10.4231,-65.3217,12.4522,27.3391
1025,-0.6514,-6.2079,-10.1932,-73.6696,6.4696,27.2696
1030,-0.7664,-7.3575,-9.6567,-78.4696,-0.1391,27.3391
1035,-0.7664,-8.0856,-8.3921,-79.3739,-6.0522,28.1043
1040,-0.6898,-9.0053,-7.7407,-77.6348,-11.3391,30.2609
1045,-0.9963,-9.7334,-7.0509,-74.2261,-16.2087,33.9478
1050,-0.6131,-10.2698,-6.2845,-68.2435,-22.6087,38.6783
1055,0.8047,-10.2315,-6.2462,-60.2435,-31.8609,43.4087
1060,1.2646,-9.81,-6.0163,-52.2435,-42.713,47.513
1065,2.1843,-9.3502,-5.9396,-44.0348,-53.287,51.5478
1070,2.6441,-9.0436,-5.6714,-36.313,-62.1217,54.4
1075,3.2572,-8.8903,-5.6714,-28.313,-67.7565,55.3043
1080,2.7591,-8.2772,-6.0546,-20.8,-69.913,54.9565
1085,2.4525,-7.8173,-5.9013,-13.7739,-69.4261,54.4696
1090,1.6095,-7.2042,-5.5948,-6.4696,-66.2261,53.287
1095,0.7281,-6.7061,-5.0583,-0.1391,-61.7043,52.3826
1100,-0.1916,-5.9013,-4.5984,4.5217,-57.0435,51.5478
1105,-1.3412,-5.6714,-4.1769,6.1217,-53.1478,50.6435
1110,-1.7627,-5.7097,-3.2955,5.287,-50.4348,50.2261
1115,-1.8777,-5.8247,-2.874,3.6174,-49.6696,49.4609
1120,-1.916,-5.9013,-2.7207,1.2522,-52.4522,48.4174
1125,-1.8394,-6.1696,-2.4525,-0.1391,-57.6,47.1652
1130,-1.916,-6.0929,-2.2992,-0.4174,-64.1391,45.7043
1135,-2.2226,-5.8247,-1.7627,0.2087,-70.1913,43.4087
1140,-2.2609,-5.4798,-1.6095,1.2522,-75.3391,40.1391
1145,-2.031,-5.6331,-1.8011,1.7391,-81.0435,36.1739
1150,-1.4945,-5.5948,-1.4562,1.6,-88.0696,32.2087
1155,-0.3066,-5.8247,-1.3412,2.0174,-95.1652,29.3565
1160,0.3066,-5.8247,-1.1113,4.3826,-101.9826,27.8957
1165,0.7664,-5.7097,-1.1879,9.113,-108.313,27.4783
1170,0.9963,-5.5564,-1.5328,15.513,-114.0174,27.4783
1175,0.9963,-5.4798,-2.1459,23.1652,-117.8435,27.687
1180,1.3029,-5.2499,-2.5675,30.5391,-119.0261,27.7565
1185,1.3412,-4.7134,-3.0273,36.2435,-117.6348,27.687
1190,1.7627,-4.3302,-2.9507,39.4435,-114.713,27.0609
1195,2.031,-3.9087,-2.874,40.6261,-110.3304,25.1826
1200,2.2609,-3.5638,-2.5291,40.9043,-105.6,22.7478
1205,2.1076,-3.1039,-2.6058,39.3043,-101.4261,19.4087
1210,2.1459,-2.4142,-3.1039,34.1565,-98.7826,15.0261
1215,2.7591,-2.2226,-3.9087,25.0435,-97.1826,9.6
1220,2.4908,-1.916,-4.7517,18.6435,-91.8957,8.6957
1225,1.9927,-1.5328,-5.4415,14.5391,-88.8348,9.3913
1230,1.6861,-1.1879,-6.2845,9.5304,-87.3739,9.1826
1235,1.2646,-1.1496,-6.9743,4.5913,-86.6783,9.113
1240,0.843,-1.3029,-7.9323,0.6957,-87.0957,9.8087
1245,0.7664,-1.6478,-9.0819,-1.8783,-87.7913,10.9913
1250,1.0346,-2.4525,-9.695,-4.2435,-88.2783,12.1043
1255,0.843,-3.0656,-9.7334,-6.6087,-87.3739,13.0087
1260,0.6514,-3.5638,-9.3502,-8.6261,-85.7739,13.287
1265,0.2682,-3.9853,-8.9286,-10.8522,-83.4087,12.6609
1270,-0.0766,-4.1003,-8.7754,-13.1478,-81.3913,11.2696
1275,-1.3412,-3.6404,-9.1202,-17.0435,-80.9043,8.3478
1280,0.0383,-3.2189,-10.653,-26.4348,-79.4435,3.4783
1285,0.4598,-2.4908,-11.1512,-30.3304,-73.3913,6.3304
1290,1.2646,-2.1843,-11.6494,-33.113,-68.1043,9.3217
1295,2.1843,-2.3759,-11.3811,-35.8957,-63.0957,11.8957
1300,3.4105,-3.1039,-10.6147,-38.2609,-58.9217,14.7478
1305,4.2152,-4.2152,-10.0782,-39.4435,-55.0957,18.4348
1310,4.5984,-5.3648,-8.9286,-39.9304,-51.3391,22.9565
1315,4.4452,-6.5911,-8.1239,-40.0,-47.8609,27.0609
1320,4.0236,-7.0126,-7.9323,-39.3043,-44.0348,30.4
1325,3.1423,-7.5491,-7.4725,-38.1217,-40.1391,32.2783
1330,2.031,-8.0473,-6.821,-35.4783,-36.313,32.5565
1335,0.7281,-8.3538,-6.0546,-31.5826,-33.8783,32.1391
1340,-0.8814,-8.2772,-5.2882,-26.2261,-33.4609,31.1652
1345,-1.8011,-7.9323,-4.7517,-19.8957,-36.1739,29.913
1350,-3.0656,-7.1276,-4.2919,-11.9652,-41.1826,29.0087
1355,-3.947,-6.0546,-4.0236,-1.8783,-47.513,28.5913
1360,-5.2116,-5.1349,-3.947,8.6261,-53.3565,28.6609
1365,-5.7864,-4.062,-4.0236,13.913,-60.4522,26.5043
1370,-5.4415,-3.1039,-3.832,16.5565,-63.6522,27.7565
1375,-5.5948,-2.5675,-3.4488,22.6087,-67.5478,30.7478
1380,-5.5564,-1.8011,-3.0656,27.2,-73.4609,32.1391
1385,-5.2499,-1.6861,-2.6824,30.0522,-79.3739,32.6261
1390,-4.9816,-2.031,-2.5675,31.513,-85.3565,32.9043
1395,-4.7517,-2.4908,-2.6058,31.0957,-92.1043,33.5304
1400,-4.3302,-3.2572,-2.5675,30.3304,-99.7565,33.8087
1405,-3.9087,-4.2536,-2.7207,30.6783,-108.3826,33.7391
1410,-3.6787,-5.2882,-2.5291,33.4609,-118.4696,32.6957
1415,-3.7937,-6.4378,-3.1039,38.4,-129.5304,30.4
1420,-4.2919,-7.2425,-3.4488,44.2435,-140.4522,26.9217
1425,-4.7134,-7.779,-3.1039,50.7826,-150.8174,21.9826
1430,-5.1349,-8.0473,-3.2955,58.5739,-160.2783,16.2087
1435,-5.5948,-8.2389,-2.3375,67.4783,-168.9739,9.8783
1440,-6.0546,-8.3538,-1.6478,77.5652,-176.8348,3.1304
1445,-5.978,-8.6221,-1.3795,87.0957,-184.6957,-4.1739
1450,-5.3648,-9.8866,-2.031,93.913,-193.113,-14.0522
1455,-7.2425,-12.0326,-4.4452,96.5565,-204.3826,-27.6174
1460,-11.8027,-15.558,-5.9396,98.2261,-222.6087,-39.7913
1465,-17.0525,-19.1218,-8.4305,102.8174,-245.0783,-51.2696
1470,-21.4211,-21.7276,-10.0016,99.687,-271.1652,-61.3565
1475,-28.357,-25.1764,-10.6914,85.4957,-295.7217,-73.6696
1480,-31.1544,-24.2568,-12.9139,63.9304,-302.0522,-79.3043
1485,-32.3807,-22.9155,-14.2552,50.9217,-296.1391,-73.2522
1490,-34.3733,-25.0998,-13.9486,34.9217,-278.887,-63.4435
1495,-34.22,-28.7019,-13.1822,39.1652,-255.0957,-46.6783
1500,-33.3387,-32.9171,-13.3738,50.2957,-232.9043,-36.2435
1505,-30.2347,-35.4846,-14.0636,52.8,-213.287,-27.7565
1510,-28.8935,-36.1744,-14.7533,53.3565,-196.8696,-20.5217
1515,-20.0032,-32.8788,-13.5654,67.8957,-185.4609,-6.887
1520,-19.8882,-32.0741,-12.8373,107.3391,-178.087,17.8087
1525,-18.3938,-30.8862,-11.4195,156.8696,-179.2,43.8957
1530,-16.2861,-27.7822,-9.0819,202.2261,-177.6,69.4957
1535,-14.4468,-23.6436,-7.2425,241.2522,-169.4609,91.6174
1540,-11.2662,-19.3518,-5.9013,277.0783,-157.7043,109.5652
1545,-8.6221,-16.4394,-4.79,311.0261,-146.1565,124.5913
1550,-5.4032,-12.4541,-2.4142,335.4435,-136.487,137.3913
1555,-2.1843,-9.2352,-0.5365,342.3304,-129.1826,147.7565
1560,0.4598,-6.5145,0.115,332.1043,-123.7565,156.1043
1565,1.8777,-5.0583,0.8047,314.1565,-118.1217,162.1565
1570,2.874,-4.4068,0.7664,295.8609,-109.287,166.1217
1575,3.6787,-3.8704,0.0,278.8174,-96.9043,166.5391
1580,4.062,-3.5255,-0.958,264.9043,-83.6174,163.8261
1585,3.947,-3.4871,-1.6861,254.4696,-70.9565,158.887
1590,2.989,-3.7937,-2.2609,247.1652,-58.6435,153.8087
1595,2.4908,-3.947,-2.2609,241.6696,-48.9739,149.5652
1600,1.4945,-4.6751,-2.1076,235.7565,-37.7739,146.2957
1605,0.0766,-4.8284,-1.7627,228.7304,-26.9913,145.5304
1610,-0.5748,-4.7517,-1.4562,220.2435,-18.5739,147.1304
1615,-1.1879,-3.6787,-2.2226,210.2957,-13.913,148.3826
1620,-1.1879,-3.1039,-1.1879,197.3565,-10.7826,151.0261
1625,-1.9927,-2.6824,0.0,188.3826,-6.9565,154.2957
1630,-3.4488,-2.3759,-1.4179,182.6783,-6.6783,157.6348
1635,-3.7171,-1.8394,-2.1843,171.1304,-10.713,162.9913
1640,-3.7554,-1.7627,-2.2992,158.887,-14.6783,170.9913
1645,-3.4105,-1.916,-1.9543,150.6087,-18.0174,178.3652
1650,-3.5255,-2.1459,-1.0346,146.2261,-22.1913,184.0
1655,-4.2536,-2.5291,-0.4598,145.4609,-28.5217,187.5478
1660,-5.2499,-3.1806,-0.4215,145.3217,-37.9826,189.1478
1665,-5.863,-3.8704,-0.2682,143.3739,-48.6957,188.7304
1670,-6.0546,-4.3302,0.0,139.8957,-57.5304,186.1565
1675,-6.5528,-4.3302,0.6898,137.1826,-63.1652,182.6783
1680,-7.0893,-4.4835,1.5711,137.113,-67.687,178.2957
1685,-7.8173,-4.3685,2.4525,138.2957,-73.4609,173.2174
1690,-6.7827,-3.6021,2.6824,141.6348,-81.1826,168.1391
1695,-6.1696,-2.9507,2.6058,143.2348,-89.8087,162.4348
1700,-5.6331,-1.8394,2.9123,141.0087,-98.2261,157.0087
1705,-5.7097,-0.6898,3.1423,136.0,-106.2261,150.7478
1710,-6.8977,0.0383,3.8704,129.3217,-114.3652,142.4
1715,-7.5874,1.4945,4.8667,121.6,-125.7043,135.0957
1720,-6.0546,1.8011,4.8284,113.113,-135.8609,132.1739
1725,-3.8704,0.8814,4.6751,104.2783,-143.0957,131.687
1730,-3.4488,0.3066,5.0966,97.3913,-148.8,131.3391
1735,-3.7937,0.6514,6.3995,93.4957,-153.5304,130.9217
1740,-5.4415,1.3795,6.821,91.6174,-156.2435,131.4783
1745,-6.4378,2.4142,6.7444,88.1391,-156.5913,132.313
1750,-7.894,2.6824,6.1313,82.5043,-154.1565,131.4087
1755,-8.3538,2.5675,5.9013,75.7565,-151.513,127.9304
1760,-7.7407,2.0693,6.3229,69.2174,-149.6348,120.9739
1765,-7.1276,1.4562,6.821,64.1391,-148.1739,110.8174
1770,-7.0126,1.4945,7.2425,59.687,-147.3391,98.9913
1775,-6.936,1.9543,7.2425,54.2609,-147.0609,87.2348
1780,-6.5528,2.5675,7.2809,46.9565,-145.8087,75.9652
1785,-7.0509,3.0273,7.6641,39.3739,-142.2609,65.5304
1790,-7.2042,3.7554,8.0856,31.8609,-136.3478,56.487
1795,-7.5491,4.2536,8.737,24.7652,-128.9739,48.5565
1800,-7.7407,4.4068,9.4651,18.3652,-122.8522,41.9478
1805,-7.6257,4.4452,10.1932,12.7304,-118.1217,35.6174
1810,-8.3155,4.1003,10.4998,7.7913,-114.2957,30.5391
1815,-7.8173,3.7171,10.883,2.4348,-110.887,25.6696
1820,-7.5108,3.3339,11.4578,-2.5739,-106.2957,20.5913
1825,-7.4341,2.9123,11.9176,-6.2609,-100.0348,16.0
1830,-7.2042,2.4525,12.3008,-9.3913,-93.8435,11.7565
1835,-7.1276,1.3795,13.0672,-11.9652,-87.513,7.3739
1840,-7.3958,0.0766,13.0289,-11.4087,-80.6957,3.7565
1845,-8.3538,-0.6131,12.3775,-9.3217,-76.0348,1.7391
1850,-8.1622,-0.9963,11.726,-9.5304,-75.7565,0.6261
1855,-8.0089,-1.073,10.4998,-9.0435,-76.8,-1.1826
1860,-7.9323,-0.6898,9.81,-5.7739,-77.4957,-3.0609
1865,-7.4341,-0.1916,9.7334,0.2783,-76.5217,-5.287
1870,-7.2042,0.2299,9.4651,9.0435,-72.5565,-7.513
1875,-7.5874,0.6514,9.7334,18.8522,-65.4609,-6.9565
1880,-8.0473,1.5711,9.3502,26.7826,-62.7478,-11.5478
1885,-8.4688,2.2992,9.3885,30.6783,-57.8783,-14.2609
1890,-9.3885,2.2226,9.0436,30.9565,-56.2087,-17.8783
1895,-9.1586,2.7591,8.0856,28.5913,-57.4609,-24.0
1900,-7.5491,3.4105,8.2389,26.8522,-57.5304,-30.1217
1905,-5.5181,5.1732,7.6257,27.0609,-54.5391,-33.113
1910,-8.1239,2.6824,8.3921,24.4174,-52.8,-29.7043
1915,-7.5491,2.6058,8.6987,28.1043,-55.6522,-33.9478
1920,-6.936,2.4525,9.0436,31.2348,-53.4957,-34.1565
1925,-7.8557,1.0346,9.5418,30.7478,-51.5478,-33.3913
1930,-7.3192,0.5748,8.6604,33.0435,-54.6087,-36.2435
1935,-6.5528,0.7281,8.6604,33.6696,-56.9043,-38.2609
1940,-5.1349,1.1496,8.4305,31.7217,-57.7391,-37.2174
1945,-6.936,0.1533,8.5071,29.7739,-62.6087,-34.3652
1950,-6.7444,0.3832,8.0089,32.1391,-71.6522,-37.4261
1955,-6.2079,0.2299,7.9323,31.1652,-73.5304,-36.8696
1960,-6.8977,0.0383,7.5874,28.3826,-75.1304,-37.2174
1965,-6.2845,0.8047,6.821,28.8696,-77.7739,-40.3478
1970,-5.978,0.9197,6.8977,28.2435,-77.287,-42.6435
1975,-5.3265,1.3029,6.8593,29.6348,-76.1043,-44.1043
1980,-4.4835,1.2263,6.7444,29.5652,-74.7826,-46.6783
1985,-2.9123,1.7244,6.8593,29.7739,-72.487,-48.2783
1990,-2.989,1.5711,7.2425,29.0783,-68.2435,-48.487
1995,-2.4525,1.7627,6.6677,29.287,-68.1739,-48.3478
2000,-1.9543,2.1076,6.5528,29.913,-67.4783,-47.7217
2005,-1.6095,1.8394,6.8593,29.3565,-65.6696,-47.0261
2010,-0.9197,1.3412,7.0893,29.0087,-63.7913,-46.7478
2015,-0.6131,0.5365,7.3575,27.4087,-61.5652,-45.7043
2020,-0.2682,0.1533,8.0089,24.9043,-59.5478,-43.5478
2025,-1.1879,-0.8814,8.6221,22.6087,-59.9652,-40.6261
2030,-1.0346,-1.0346,8.2772,22.2609,-63.3043,-41.3217
2035,-0.8814,-1.073,7.779,22.9565,-64.2087,-42.4348
2040,-0.843,-0.9963,7.779,23.1652,-63.0261,-43.3391
2045,-0.7281,-0.958,7.3575,22.4,-60.9391,-43.8261
2050,-0.3832,-0.958,7.7024,20.7304,-57.8783,-44.4522
2055,-0.4598,-0.9963,8.2005,19.2,-54.3304,-45.4261
2060,-0.9963,-0.9963,8.1239,18.3652,-50.6435,-45.8435
2065,-1.073,-0.6898,8.2389,17.2522,-46.5391,-47.0957
2070,-1.1113,-0.8047,8.3155,16.3478,-41.8087,-47.5826
2075,-1.3029,-0.9963,8.3921,16.1391,-37.5652,-47.6522
2080,-1.4945,-0.9963,8.6221,16.9043,-33.9478,-47.6522
2085,-1.5328,-0.843,8.852,17.2522,-30.1913,-47.0261
2090,-2.2609,-1.4179,9.1586,16.9739,-27.5478,-44.9391
2095,-2.0693,-1.1496,9.0436,18.1565,-27.4783,-44.3826
2100,-2.031,-1.4945,9.5801,18.4348,-24.4174,-42.2957
2105,-2.4908,-1.5328,9.81,18.713,-23.0261,-42.713
2110,-2.2226,-1.3029,9.7717,18.1565,-21.913,-42.5739
2115,-2.3375,-1.6861,9.925,15.7913,-19.8957,-41.7391
2120,-2.4142,-1.5711,9.8483,13.913,-17.8087,-41.5304
2125,-2.2609,-1.5711,10.0782,12.4522,-15.3043,-40.9739
2130,-2.4525,-1.6095,9.925,10.9217,-12.3826,-40.487
2135,-2.3759,-1.8394,9.9633,8.9043,-9.7391,-40.0696
2140,-2.4525,-1.6095,9.8866,6.6087,-6.9565,-39.3043
2145,-2.5291,-1.6095,9.9633,4.5913,-4.0348,-38.0522
2150,-2.6441,-1.3795,9.7334,3.3391,-0.6261,-36.3826
2155,-3.0273,-1.7627,10.0782,1.8783,2.9217,-34.8522
2160,-3.1039,-1.8011,10.0016,1.8087,5.2174,-34.5043
2165,-3.1806,-1.8394,9.9633,2.2957,7.4435,-34.0174
2170,-2.9123,-1.6861,9.81,3.5478,9.2522,-33.6
2175,-3.1039,-2.1459,9.8483,4.7304,11.1304,-32.1391
2180,-3.2189,-1.6861,9.695,5.1478,11.9652,-32.2783
2185,-3.3722,-2.1459,9.9633,3.7565,13.5652,-31.0261
2190,-3.4871,-2.2226,9.8483,4.2435,12.8,-29.5652
2195,-3.4488,-2.1843,10.0016,6.4696,12.8,-27.7565
2200,-3.2189,-2.2226,10.1932,8.2087,13.4261,-26.087
2205,-3.2189,-2.3759,10.0782,8.5565,14.4696,-24.3478
2210,-3.1423,-2.2609,9.9633,7.7217,15.0957,-22.3304
2215,-3.0656,-2.031,9.8866,6.8174,15.7217,-20.5913
2220,-2.874,-1.9543,9.695,6.5391,16.4174,-19.0609
2225,-2.9507,-1.3412,9.0819,7.0261,17.0435,-17.9478
2230,-2.4525,-1.6095,8.737,7.3739,18.1565,-17.2522
2235,-2.4525,-1.7627,8.5071,8.0696,19.9652,-16.3478
2240,-2.4908,-1.7244,8.3921,8.8348,21.7739,-15.7913
2245,-2.5675,-1.8394,8.5454,9.2522,23.4435,-15.3043
2250,-2.6058,-1.8011,8.5454,9.9478,24.2783,-14.4696
2255,-2.874,-1.9927,8.5838,10.3652,25.0435,-12.4522
2260,-3.1039,-2.1459,8.8903,10.6435,25.2522,-10.6435
2265,-2.9507,-1.916,8.8903,10.4348,25.3913,-9.3913
2270,-3.3339,-2.031,9.0053,9.8783,25.8783,-8.0696
2275,-3.3722,-2.031,8.8137,10.3652,26.1565,-6.9565
2280,-3.832,-2.3375,9.2735,10.2261,26.5739,-6.0522
2285,-3.6404,-2.3375,9.2735,9.5304,26.9217,-5.6348
2290,-3.6021,-2.3759,9.1586,8.2087,28.3826,-4.9391
2295,-3.4105,-2.1843,9.1202,6.4696,30.2609,-4.2435
2300,-3.2955,-1.8394,8.8903,4.9391,31.7913,-3.6174
2305,-3.1423,-1.7244,8.852,3.8957,32.5565,-2.9217
2310,-3.2189,-1.4179,8.5071,3.7565,32.6261,-2.4348
2315,-3.2189,-1.2646,8.2389,2.9217,32.0696,-1.8783
2320,-3.1039,-1.2646,8.2389,2.7826,32.0696,-1.8087
2325,-3.3722,-1.3029,7.9706,3.0609,32.5565,-1.8783
2330,-3.7937,-1.4945,7.6257,3.8261,33.2522,-2.0174
2335,-3.6404,-1.5328,8.0473,4.8,34.0174,-1.9478
2340,-3.6404,-1.5711,8.2389,5.7043,34.713,-2.2957
2345,-3.6021,-1.7244,8.2389,6.5391,35.3391,-2.5739
2350,-3.6404,-1.6478,8.1239,7.513,35.8957,-3.2696
2355,-3.5638,-1.7244,7.8557,8.2087,36.4522,-4.0348
2360,-3.7171,-1.6861,8.1239,8.6957,37.2174,-5.0087
2365,-3.6787,-1.4945,8.3921,9.4609,38.1913,-6.3304
2370,-3.5255,-1.3795,8.6987,10.4348,38.9565,-7.513
2375,-3.1806,-1.5711,8.6221,11.5478,40.5565,-8.8348
2380,-3.1039,-1.7627,8.3155,11.687,42.713,-10.5043
2385,-2.8357,-1.9543,8.0089,10.6435,45.7043,-12.3826
2390,-2.989,-1.6861,7.8557,9.1826,49.113,-14.1217
2395,-3.0656,-1.5711,7.8173,7.7913,52.2435,-15.0957
2400,-3.6021,-1.4179,7.779,7.0261,54.6087,-15.1652
2405,-3.832,-1.2263,8.0473,6.4,56.3478,-14.8174
2410,-4.3302,-0.843,8.1622,5.4957,58.0174,-14.3304
2415,-4.905,-1.2263,8.5838,5.1478,59.7565,-14.0522
2420,-5.0966,-0.9963,8.737,7.3043,60.8,-13.913
2425,-5.2882,-0.958,8.6987,9.113,61.7043,-14.1217
2430,-5.748,-0.6131,8.9286,10.4348,62.6783,-14.5391
2435,-5.7864,-0.4982,8.9286,11.2696,63.0261,-15.2348
2440,-6.0546,-0.2682,8.6987,11.5478,63.1652,-15.5826
2445,-5.978,0.0,9.1202,11.1304,63.0957,-16.2087
2450,-5.7864,0.2299,9.1586,9.8087,63.6522,-17.113
2455,-5.6331,0.0383,8.6221,8.1391,64.8348,-18.2261
2460,-5.5181,-0.3832,8.1622,6.6783,67.2696,-19.4783
2465,-5.6714,-0.7281,7.7407,5.3565,70.6087,-20.6609
2470,-5.7097,-1.2263,7.7407,4.3826,74.2957,-21.4261
2475,-6.1696,-1.7244,7.6257,5.0783,76.8696,-21.2174
2480,-6.1696,-2.3375,7.5874,6.4696,76.9391,-19.7565
2485,-6.821,-2.7207,7.5874,7.8609,75.0609,-17.1826
2490,-7.3958,-2.7591,7.7024,9.6696,71.2348,-13.2174
2495,-7.779,-3.0656,7.9323,11.8957,66.087,-9.3217
2500,-7.4725,-3.1039,8.0856,15.1652,61.913,-6.6087
2505,-6.6677,-3.0273,8.3155,20.8696,58.8522,-5.4261
2510,-6.6294,-2.2226,8.6604,29.2174,57.7391,-4.8
2515,-6.5528,-1.3412,8.3538,37.5652,56.9739,-4.5217
2520,-6.7827,-0.7281,7.779,42.5739,55.5826,-4.7304
2525,-7.2042,-0.2299,7.5108,44.5913,53.1478,-4.9391
2530,-7.3575,-0.0383,6.936,44.4522,50.713,-5.4957
2535,-7.3192,0.0,6.5911,43.2696,49.2522,-6.7478
2540,-7.0509,0.0383,5.978,40.8348,49.3217,-8.8348
2545,-7.0509,0.115,6.1313,36.7304,50.2957,-11.4783
2550,-6.9743,-0.115,5.7864,31.8609,51.1304,-14.4696
2555,-6.8977,-0.1533,5.8247,26.0174,51.9652,-17.3913
2560,-6.936,-0.6131,5.4798,20.7304,52.1739,-20.313
2565,-6.9743,-1.1879,5.4032,15.513,51.6174,-22.6087
2570,-6.7061,-1.4179,5.1349,11.8957,50.087,-24.1391
2575,-6.5528,-1.5328,5.02,9.2522,48.0,-24.9043
2580,-6.1313,-1.2646,4.7134,7.0957,45.5652,-24.6261
2585,-6.1696,-1.4945,4.5984,4.3826,42.7826,-23.7913
2590,-6.3229,-1.5711,4.2919,2.713,39.5826,-22.6783
2595,-6.7061,-1.073,4.2152,2.087,36.0348,-21.8435
2600,-6.936,-0.8047,3.8704,0.6261,32.6957,-21.0783
2605,-8.2389,-0.5748,3.9087,-3.1304,29.3565,-20.2435
2610,-8.6987,-0.6898,3.6021,-8.0,26.5739,-19.4087
2615,-8.737,-1.0346,3.8704,-14.1217,24.6957,-19.8261
2620,-9.0436,-1.2646,4.2536,-20.313,23.513,-20.7304
2625,-8.7754,-2.1459,4.8284,-24.0696,22.3304,-21.8435
2630,-8.4305,-2.5675,5.4798,-23.6522,20.9391,-23.3043
2635,-7.3192,-2.9507,6.0546,-19.687,19.8261,-24.5565
2640,-6.5145,-2.9507,6.4378,-13.9826,19.3391,-24.5565
2645,-6.1696,-3.0656,6.8593,-8.9739,19.1304,-22.8174
2650,-6.5911,-3.2189,7.2042,-4.5913,18.3652,-19.2
2655,-7.0893,-3.4871,7.4725,0.0696,16.5565,-13.913
2660,-7.5874,-3.9087,7.5108,5.0783,14.1217,-7.9304
2665,-7.6257,-4.1003,7.8173,9.5304,11.6174,-2.2957
2670,-7.5491,-4.1003,7.779,12.7304,9.5304,2.5739
2675,-7.4341,-4.1386,7.4341,15.1652,8.487,6.5391
2680,-7.5874,-3.947,7.0893,16.9739,8.4174,9.3217
2685,-7.9323,-3.4488,6.5911,18.087,8.6957,11.6174
2690,-8.1622,-3.2572,6.2079,18.4348,8.6261,13.0087
2695,-8.2389,-3.0273,6.0546,18.087,7.9304,13.9826
2700,-8.2772,-2.7974,6.1696,17.5304,6.6087,14.4696
2705,-8.1239,-2.4908,5.978,17.2522,4.9391,14.2609
2710,-8.0473,-2.1459,5.863,16.6957,3.5478,13.9826
2715,-7.6257,-2.1076,5.9396,15.7913,2.6435,13.4957
2720,-7.2425,-1.9927,6.0163,14.5391,2.4348,13.1478
2725,-7.1659,-1.916,6.2462,13.0087,2.6435,12.7304
2730,-6.7827,-2.1459,6.5145,11.4087,2.9217,12.2435
2735,-6.6294,-2.1843,6.5911,9.8087,3.4087,11.4783
2740,-6.4378,-2.2226,6.4761,8.1391,3.687,10.713
2745,-6.2845,-2.3759,6.3995,6.887,4.0348,9.7391
2750,-6.1313,-2.2992,6.5145,5.913,4.2435,8.9739
2755,-6.0163,-2.2609,6.2845,5.287,4.3826,8.2087
2760,-6.1313,-2.2609,6.3229,4.9391,4.313,7.3043
2765,-6.2462,-2.3759,5.9396,4.4522,4.1043,6.3304
2770,-5.9396,-2.4525,6.0546,3.4783,3.6174,5.0087
2775,-5.9013,-2.4525,5.7864,2.6435,2.8522,3.5478
2780,-5.7864,-2.4525,6.0163,2.0174,2.087,2.087
2785,-5.7097,-2.4908,5.9396,1.8087,0.9739,0.6957
2790,-5.863,-2.4142,6.0546,2.0174,0.0,-0.3478
2795,-5.6714,-2.3375,5.9396,2.7826,-0.9739,-0.9739
2800,-5.7864,-2.4142,5.978,3.9652,-1.6,-1.3217
2805,-5.6331,-2.1843,6.2462,5.287,-2.2957,-1.5304
2810,-5.5181,-2.2226,6.1313,6.2609,-2.6435,-1.7391
2815,-5.3648,-2.1459,6.1696,6.887,-2.713,-2.1565
2820,-5.5181,-2.2609,6.3612,7.1652,-2.4348,-2.4348
2825,-5.9396,-1.9543,6.2462,7.3043,-1.8783,-2.9217
2830,-5.978,-2.031,6.3229,7.2348,-1.3217,-3.5478
2835,-6.2462,-1.9927,6.4761,7.3043,-0.6261,-4.1739
2840,-6.3229,-1.8394,6.2462,7.7913,0.0696,-4.6609
2845,-6.4761,-1.8394,6.4378,8.3478,0.6261,-4.9391
2850,-6.5528,-1.7244,6.4761,9.113,0.9043,-4.8
2855,-6.6294,-1.6478,6.7061,9.6696,0.7652,-4.6609
2860,-6.7827,-1.5711,6.7061,10.1565,0.5565,-4.313
2865,-6.7444,-1.5328,6.8977,10.5043,0.0696,-3.9652
2870,-7.0509,-1.4945,7.0893,10.6435,-0.5565,-3.3391
2875,-7.0509,-1.2646,7.0893,10.5739,-0.8348,-2.7826
2880,-7.2425,-1.3412,7.1276,10.2957,-1.1826,-2.4348
2885,-7.2042,-1.4179,7.0893,9.7391,-1.2522,-2.1565
2890,-7.2425,-1.3412,7.1276,8.9739,-1.113,-1.8783
2895,-7.2425,-1.3412,7.1659,8.0696,-1.0435,-1.7391
2900,-7.0509,-1.3795,6.9743,7.0957,-0.8348,-1.6
2905,-7.1659,-1.2646,7.0126,6.2609,-0.5565,-1.4609
2910,-7.0893,-1.4179,7.0126,5.3565,-0.2783,-1.5304
2915,-7.0893,-1.3412,6.936,4.8,0.0696,-1.5304
2920,-7.0509,-1.4945,6.8977,4.2435,0.4174,-1.3217
2925,-6.8977,-1.4562,6.8977,3.8261,0.487,-1.2522
2930,-7.0126,-1.5711,7.2809,3.4087,0.3478,-1.0435
2935,-6.9743,-1.4179,6.936,3.1304,0.0696,-0.9739
2940,-7.1276,-1.4179,6.936,3.0609,-0.487,-0.9043
2945,-6.9743,-1.4179,6.821,3.4087,-1.113,-1.0435
2950,-6.936,-1.3795,6.8977,4.1043,-1.7391,-0.9043
2955,-6.8977,-1.1879,6.8593,4.8,-2.5043,-1.0435
2960,-6.8593,-1.1113,6.7444,5.5652,-3.1304,-0.9739
2965,-6.936,-0.6514,7.0126,6.1217,-3.6174,-0.9739
2970,-6.7827,-0.6898,6.821,6.2609,-3.9652,-1.0435
2975,-6.7827,-0.5365,6.7444,6.2609,-4.4522,-0.9739
2980,-6.8977,-0.4598,6.8593,6.1217,-4.8696,-1.0435
2985,-6.8593,-0.3449,6.821,5.9826,-5.3565,-1.113
2990,-6.821,-0.4598,6.936,5.7739,-5.7739,-1.0435
2995,-6.7827,-0.4598,6.8977,5.4261,-5.9826,-0.9739
