timestamp,accX,accY,accZ,gyroX,gyroY,gyroZ
0,-2.2992,-9.3502,-1.4945,13.4957,9.0435,4.4522
5,-2.1076,-9.3885,-1.4562,14.6783,10.1565,2.2261
10,-1.9927,-9.5418,-1.4179,15.6522,11.2696,-0.0696
15,-1.7244,-9.695,-1.5328,16.487,11.9652,-2.3652
20,-1.6478,-9.7717,-1.4562,16.9043,12.1739,-4.5913
25,-1.6095,-9.81,-1.6478,17.113,12.1043,-6.5391
30,-1.5711,-10.1166,-1.4179,17.6696,11.687,-8.2783
35,-1.7244,-10.0782,-1.3412,18.7826,11.2,-9.5304
40,-1.6861,-10.0399,-1.3029,20.5913,10.7826,-10.4348
45,-1.8777,-9.9633,-1.2646,22.6783,10.5739,-10.713
50,-1.8777,-10.0782,-1.2646,25.0435,10.4348,-10.713
55,-1.916,-10.0399,-1.2646,27.7565,10.6435,-10.3652
60,-2.031,-9.8866,-0.958,30.7478,11.0609,-9.9478
65,-1.8011,-10.0016,-1.1113,33.6,11.6174,-9.6696
70,-1.6861,-10.0782,-1.073,35.8261,12.0348,-9.6
75,-1.7627,-9.925,-1.1496,36.6609,12.4522,-9.8087
80,-1.6861,-9.925,-0.958,36.2435,12.7304,-9.9478
85,-1.7244,-9.8866,-1.1113,34.5739,13.2174,-10.0174
90,-1.6478,-9.6184,-0.958,32.1391,13.9826,-10.1565
95,-2.031,-10.1549,-0.7664,29.5652,15.3043,-10.087
100,-2.1843,-10.3465,-0.7664,26.9217,16.8348,-9.7391
105,-2.4142,-10.653,-0.6898,24.3478,18.6435,-9.113
110,-2.7207,-10.8063,-0.6514,21.8435,19.8957,-8.3478
115,-3.1806,-11.0363,-0.3449,19.7565,20.6609,-7.0957
120,-3.6021,-11.3428,-0.3832,18.5043,20.0348,-5.7043
125,-4.1003,-11.4578,-0.115,18.3652,18.5043,-3.9652
130,-4.3302,-11.4961,0.1916,19.4087,15.5826,-2.2261
135,-4.5984,-11.4961,0.115,21.7043,12.1043,-0.2087
140,-4.79,-11.2662,0.115,24.7652,7.8609,1.9478
145,-4.9433,-11.0746,0.2299,27.8957,3.9652,4.5217
150,-5.2882,-10.7297,0.1916,30.6087,-0.2783,6.4696
155,-5.6714,-10.4998,-0.5748,33.3913,-5.0783,7.5826
160,-5.1732,-10.0399,-1.8777,34.8522,-9.3217,8.3478
165,-4.7134,-10.0399,-2.874,32.0696,-11.0609,8.487
170,-4.3685,-11.3811,-2.9123,27.0609,-9.8783,10.3652
175,-4.3685,-12.3008,-3.6021,22.4696,-8.3478,14.0522
180,-4.1769,-12.684,-4.905,14.1913,-7.1652,17.4609
185,-3.7937,-13.2971,-5.5564,1.0435,-5.8435,19.687
190,-3.0656,-14.4468,-5.0583,-12.7304,-6.6087,21.2174
195,-2.7591,-14.5617,-3.7937,-19.7565,-11.2,24.0
200,-3.947,-14.6767,-3.2189,-16.9739,-19.5478,28.8
205,-4.0236,-14.1019,-3.2189,-8.0,-29.1478,34.2957
210,-3.6787,-13.0289,-3.832,2.1565,-37.4957,39.0957
215,-3.0273,-11.9559,-4.4452,10.9217,-43.6174,43.3391
220,-2.5291,-10.8063,-4.8667,18.5043,-47.5826,47.0957
225,-1.9927,-9.4651,-5.5181,25.0435,-48.7652,50.8522
230,-1.5328,-8.2389,-6.0163,29.8435,-46.7478,54.6087
235,-0.2299,-6.7827,-6.0163,31.7913,-42.3652,56.6261
240,0.6898,-6.1696,-5.9396,32.0,-37.0087,56.6261
245,1.6478,-5.7097,-5.2882,31.4435,-30.887,55.3043
250,2.1843,-5.1349,-4.6368,30.6087,-24.9739,51.8957
255,2.5675,-5.2882,-4.1003,29.8435,-20.1739,46.5391
260,2.9123,-5.3265,-3.7937,27.4783,-15.9304,40.7652
265,2.8357,-5.8247,-3.4105,22.1913,-11.7565,34.5739
270,2.7974,-6.5145,-3.2955,13.5652,-7.1652,27.7565
275,2.5291,-7.3958,-3.3722,3.0609,-1.6,21.0087
280,2.031,-8.4305,-3.2572,-7.2348,4.7304,15.3043
285,1.1113,-9.7334,-3.2189,-16.2783,10.5739,10.9217
290,0.115,-10.4614,-3.1423,-23.7913,15.3043,7.1652
295,-0.8814,-11.1895,-3.1039,-30.6783,18.2261,3.8957
300,-1.8394,-11.6877,-3.0273,-37.2174,19.1304,0.5565
305,-2.6441,-12.1092,-3.2955,-43.687,18.2261,-2.7826
310,-3.4488,-12.4924,-3.1039,-50.0174,16.2087,-5.7739
315,-3.947,-12.684,-3.1423,-55.2348,13.3565,-8.3478
320,-4.5984,-12.9139,-3.3339,-58.713,9.9478,-10.713
325,-5.02,-12.7607,-3.1806,-59.8261,6.3304,-12.5217
330,-5.0966,-12.5307,-3.3722,-58.2261,2.713,-14.0522
335,-5.3648,-12.0326,-3.2955,-53.1478,-0.9043,-15.8609
340,-5.0583,-11.4578,-3.2572,-45.6348,-4.6609,-17.2522
345,-4.6368,-10.7297,-3.0656,-35.8261,-8.2087,-18.5739
350,-4.1769,-10.1166,-2.6441,-24.2087,-11.5478,-19.3391
355,-3.832,-9.4268,-2.6058,-12.4522,-13.9826,-20.1739
360,-3.2955,-8.6221,-2.3375,-1.9478,-16.7652,-21.0783
365,-2.7591,-8.2389,-2.1843,7.0261,-19.1304,-21.9826
370,-2.4525,-7.6257,-1.8394,14.5391,-21.2174,-23.0957
375,-2.1459,-7.2425,-1.6478,20.3826,-22.9565,-24.0696
380,-1.5711,-7.0509,-1.5711,24.487,-24.6261,-25.1826
385,-1.1879,-6.7827,-1.5711,26.713,-25.6696,-26.1565
390,-0.8047,-6.6294,-1.4945,26.5043,-26.0174,-26.5739
395,-0.5748,-6.5911,-1.5328,24.0,-25.5304,-26.713
400,-0.4598,-6.5528,-1.3029,19.687,-24.9739,-26.713
405,-0.4215,-6.6294,-1.3412,13.913,-24.2783,-26.1565
410,-0.3832,-6.7444,-1.5711,7.4435,-23.3739,-25.113
415,-0.2299,-7.0893,-1.3795,0.487,-22.6087,-23.7913
420,-0.3449,-7.1276,-1.2646,-6.6783,-22.4,-22.4
425,-0.5748,-7.2809,-1.1496,-13.4261,-22.9565,-21.0783
430,-0.7281,-7.5491,-1.0346,-18.7826,-23.9304,-19.8261
435,-0.8814,-7.7407,-0.8047,-22.2609,-25.0435,-18.8522
440,-0.8814,-7.7407,-1.0346,-24.2783,-26.5043,-18.0174
445,-1.1879,-7.779,-0.9963,-24.9043,-28.1043,-17.2522
450,-1.3029,-8.0856,-0.958,-24.4174,-29.6348,-16.6957
455,-1.3412,-8.2389,-1.0346,-23.0261,-30.6783,-16.1391
460,-1.3029,-8.3538,-1.1496,-21.0783,-31.0261,-15.7217
465,-1.4179,-8.4688,-1.0346,-18.5043,-31.3043,-15.513
470,-1.3029,-8.3538,-0.958,-15.6522,-31.6522,-15.7913
475,-1.4179,-8.5838,-0.7664,-12.6609,-32.0696,-16.2087
480,-1.2646,-8.3921,-0.8814,-9.7391,-32.6957,-16.3478
485,-1.1113,-8.2005,-0.5748,-6.8174,-33.6696,-16.7652
490,-0.843,-8.0473,-0.5365,-4.2435,-34.8522,-17.3217
495,-0.6514,-7.8173,-0.6131,-2.713,-36.1739,-17.5304
500,-0.5365,-7.779,-0.6131,-2.5043,-37.6348,-18.0174
505,-0.4598,-7.4341,-0.4215,-3.4087,-39.0261,-17.8783
510,-0.3832,-7.3575,-0.3449,-5.4957,-40.1391,-17.4609
515,-0.2682,-7.3192,-0.3066,-7.7913,-41.2522,-16.8348
520,0.0766,-7.1659,-0.6898,-10.087,-42.2957,-16.1391
525,-0.4598,-7.3192,-0.3832,-12.0348,-43.0609,-15.1652
530,-0.4598,-7.5491,-0.3449,-13.4957,-43.6174,-13.8435
535,-0.5365,-7.6641,-0.5748,-14.4,-43.687,-12.6609
540,-0.6514,-7.8557,-0.4598,-14.887,-43.3391,-11.3391
545,-0.6514,-8.2389,-0.4982,-14.6087,-42.713,-9.8087
550,-0.9197,-8.5454,-0.7281,-14.1913,-41.6696,-8.2087
555,-0.843,-8.6987,-0.6898,-13.7043,-40.2783,-6.5391
560,-1.0346,-8.852,-0.7664,-13.3565,-38.8174,-4.8696
565,-1.0346,-9.2735,-0.958,-13.2174,-37.2174,-3.2
570,-1.073,-9.3885,-1.2263,-13.0087,-35.5478,-1.7391
575,-1.2646,-9.4651,-1.3412,-12.6609,-34.087,-0.487
580,-1.1496,-9.4268,-1.5328,-11.9652,-32.9739,0.6261
585,-1.2263,-9.5418,-1.3795,-10.8522,-31.7913,1.6
590,-1.073,-9.5034,-1.3795,-9.1826,-30.8174,2.6435
595,-1.073,-9.3502,-1.4945,-7.1652,-29.913,3.3391
600,-1.073,-9.3885,-1.5328,-5.2174,-28.8,3.8957
605,-1.073,-9.3118,-1.5328,-3.5478,-27.0609,4.1739
610,-1.0346,-9.3118,-1.4562,-2.1565,-24.6261,4.5217
615,-0.958,-9.4651,-1.4179,-1.1826,-21.3565,4.5913
620,-0.9197,-9.695,-1.3412,-0.7652,-17.4609,4.1043
625,-0.9197,-10.1549,-1.2263,-0.5565,-13.5652,3.2
630,-1.3795,-10.6147,-0.9197,0.1391,-9.9478,1.6
635,-0.9197,-11.1129,-0.5365,1.6,-7.3043,-0.8348
640,-1.073,-11.841,-0.1916,3.8261,-5.4261,-3.9652
645,-1.1113,-12.1092,-0.2299,6.887,-4.313,-7.2348
650,-1.1496,-12.5307,0.0766,10.4348,-3.5478,-10.8522
655,-1.1879,-12.5691,-0.115,14.1913,-2.5739,-14.3304
660,-1.3795,-12.6457,-0.1916,17.6,-1.3913,-17.8087
665,-1.3412,-12.4924,-0.6131,20.9391,-0.1391,-21.287
670,-1.3029,-12.0709,-0.3832,24.0,0.8348,-24.4174
675,-1.3412,-11.8027,-0.3066,27.687,1.3913,-26.713
680,-1.4945,-11.5727,-0.0383,32.487,1.0435,-28.6609
685,-1.4945,-11.3428,0.5748,38.4,-0.4174,-30.2609
690,-1.4562,-11.1512,0.9963,45.287,-2.4348,-31.5826
695,-1.4179,-11.0363,1.073,52.0348,-4.8696,-32.4174
700,-1.4179,-10.8446,0.0,57.5304,-8.0,-32.8348
705,-1.073,-11.2662,-0.3449,60.3826,-10.5043,-33.1826
710,-1.2646,-12.1092,0.3066,62.6783,-13.913,-35.1304
715,-2.031,-13.2971,-0.5365,64.0696,-21.1478,-40.4174
720,-2.2992,-13.7187,-2.989,60.2435,-29.2174,-47.8609
725,-2.4142,-14.0636,-6.0163,47.5826,-34.1565,-57.3913
730,-3.1423,-14.6384,-7.9323,25.3913,-36.8696,-66.2261
735,-4.3685,-15.2898,-8.1622,1.8783,-36.0348,-70.7478
740,-4.2919,-15.5964,-8.1622,-10.8522,-28.1043,-73.113
745,-3.5638,-15.3664,-8.1239,-9.8087,-14.7478,-77.287
750,-3.6787,-14.4851,-8.0089,-2.5043,-2.1565,-82.4348
755,-3.8704,-13.5654,-7.779,4.9391,6.7478,-85.7739
760,-3.7554,-12.1092,-6.8977,12.5913,10.7826,-86.6783
765,-3.7937,-10.6914,-6.3229,22.0522,9.9478,-85.0087
770,-3.832,-9.0819,-6.4378,33.7391,4.3826,-81.3217
775,-4.3685,-6.9743,-6.7061,45.5652,-3.6174,-77.287
780,-4.4835,-5.2116,-6.7061,53.913,-11.6174,-73.6
785,-4.2919,-4.0236,-6.3995,57.8783,-19.5478,-70.7478
790,-4.2152,-3.1806,-5.6714,58.2957,-27.6174,-67.8957
795,-3.7937,-2.4908,-4.9816,56.6957,-36.0348,-63.9304
800,-3.3339,-2.5675,-4.2152,51.9652,-43.2696,-58.9217
805,-2.7591,-3.0656,-3.7171,43.687,-48.0696,-53.5652
810,-2.2226,-3.9087,-3.5255,32.2087,-49.8783,-49.0435
815,-1.4179,-4.8284,-3.6021,18.0174,-49.113,-44.5913
820,-0.8047,-6.3995,-3.4105,2.4348,-46.4,-39.8609
825,-0.0766,-7.7407,-3.4105,-12.2435,-43.2696,-35.9652
830,0.2299,-9.3885,-3.3339,-24.1391,-39.4435,-32.3478
835,0.958,-10.8446,-3.1806,-33.6,-35.8957,-28.9391
840,1.3029,-12.1092,-3.2572,-40.4174,-32.9043,-26.2957
845,1.8011,-12.9139,-3.2189,-45.3565,-30.1913,-24.487
850,1.8011,-13.642,-3.6787,-49.2522,-27.2,-23.3043
855,1.8011,-13.872,-3.5255,-50.9217,-24.2783,-22.7478
860,1.7244,-13.872,-3.3339,-48.8348,-22.2609,-22.9565
865,1.4179,-13.3738,-3.2572,-43.0609,-21.4957,-23.7913
870,0.9197,-12.8756,-3.1806,-34.713,-21.3565,-24.2783
875,0.4598,-12.4541,-3.0656,-25.8087,-21.7043,-24.2783
880,0.0383,-11.9176,-2.874,-16.5565,-21.8435,-23.7217
885,-0.0766,-11.6111,-2.3375,-7.1652,-21.5652,-22.9565
890,-0.6131,-10.9596,-2.4142,1.8783,-21.3565,-22.6783
895,-0.9963,-10.3848,-1.9927,10.2957,-21.4957,-22.6783
900,-1.4945,-9.695,-1.5711,18.713,-21.4957,-22.8174
905,-1.7627,-9.2735,-1.6861,27.2,-21.4261,-22.7478
910,-2.1459,-8.737,-1.5711,35.0609,-21.0087,-22.9565
915,-2.4525,-8.0473,-1.6861,41.1826,-19.8261,-23.1652
920,-2.4908,-7.3575,-1.8011,44.7304,-17.8087,-23.0957
925,-2.6824,-6.821,-1.9543,45.6348,-15.4435,-22.8174
930,-2.5675,-6.5145,-2.031,44.5217,-13.0087,-22.6783
935,-2.5291,-6.1696,-1.916,42.2957,-10.7826,-22.6783
940,-2.4908,-5.9013,-2.031,39.3739,-9.0435,-22.887
945,-2.4525,-5.5948,-1.7244,35.6174,-7.8609,-22.9565
950,-2.4908,-5.5181,-1.4945,31.6522,-7.2348,-23.2348
955,-2.0693,-5.7097,-1.6095,27.9652,-7.0957,-22.9565
960,-1.6095,-5.978,-1.3412,24.6957,-7.4435,-22.7478
965,-1.4179,-6.4761,-1.073,21.913,-8.0,-22.8174
970,-1.2263,-6.821,-1.073,19.7565,-8.8348,-23.5826
975,-1.0346,-7.5108,-0.958,17.6696,-9.4609,-24.0
980,-1.2646,-7.8557,-0.8814,14.9565,-9.8783,-24.3478
985,-1.7627,-8.4305,-1.1496,11.0609,-10.6435,-24.7652
990,-1.8777,-8.737,-1.073,6.5391,-11.0609,-25.0435
995,-2.2226,-9.1202,-0.958,2.6435,-12.2435,-26.1565
1000,-2.2992,-9.4268,-1.1496,0.8348,-13.8435,-27.4783
1005,-2.4142,-9.695,-1.1879,0.4174,-14.887,-28.1739
1010,-2.4525,-9.8483,-1.4179,0.7652,-16.0,-28.8696
1015,-2.4142,-9.5801,-1.6478,2.2957,-16.6261,-29.1478
1020,-2.4142,-9.5034,-1.6861,4.8,-16.6957,-29.287
1025,-2.2609,-9.4268,-1.7244,8.3478,-16.6261,-29.2174
1030,-2.2226,-9.0053,-1.8394,12.5913,-15.6522,-29.0783
1035,-2.2226,-8.6987,-2.031,17.6696,-14.2609,-29.0087
1040,-2.1843,-8.2389,-1.9543,23.0957,-12.9391,-29.0087
1045,-1.9543,-7.894,-1.9927,28.8696,-10.5043,-28.8
1050,-2.031,-7.7024,-2.031,34.5043,-8.0696,-28.8696
1055,-1.9927,-7.4341,-1.9543,39.7913,-5.5652,-29.0087
1060,-2.031,-7.0893,-2.2992,44.8,-2.7826,-29.287
1065,-2.031,-6.8977,-2.5675,49.0435,0.0696,-29.1478
1070,-1.8777,-6.3612,-3.2955,51.8957,2.9217,-29.0087
1075,-1.4945,-5.863,-4.2536,52.4522,5.7739,-28.3826
1080,-0.9963,-5.1349,-5.02,50.8522,9.5304,-27.2
1085,-0.5365,-4.2919,-5.2882,47.3739,14.4696,-25.3217
1090,0.0,-3.6404,-4.9816,44.4522,19.4783,-22.887
1095,0.4215,-2.7974,-4.4452,42.713,23.513,-20.1043
1100,1.3029,-1.8777,-3.0273,42.4348,26.087,-17.6
1105,1.8394,-0.7664,-1.7244,43.4783,27.8261,-15.1652
1110,2.031,0.3449,-0.5748,45.0783,28.9391,-12.5217
1115,2.3375,1.6478,0.4215,47.3739,29.4261,-9.6
1120,2.2226,2.7974,1.1496,49.7391,29.3565,-6.6087
1125,2.2992,3.9087,1.1113,51.4087,29.7739,-4.0348
1130,2.2226,4.8284,1.1496,50.0174,30.7478,-2.2957
1135,2.1843,5.2116,1.3795,45.1478,31.9304,-1.6696
1140,2.2226,5.0583,1.7244,37.5652,32.5565,-2.9913
1145,1.7244,4.6368,2.1459,29.287,32.0,-6.2609
1150,1.4945,3.832,2.4908,23.0261,29.7739,-11.4087
1155,1.3412,2.7207,2.4525,19.687,27.1304,-17.8783
1160,1.3412,1.5328,1.9927,19.1304,25.9478,-25.1826
1165,0.9197,0.2682,1.5328,21.0087,27.4783,-32.8348
1170,1.073,-0.6514,0.5748,23.7913,31.0261,-39.513
1175,1.0346,-1.9927,0.0,26.5739,36.2435,-45.287
1180,0.958,-2.6824,-0.6898,28.6609,42.0174,-50.2261
1185,0.958,-3.2955,-1.5711,29.8435,46.8174,-53.9826
1190,1.0346,-3.7171,-2.4525,30.3304,49.8783,-56.5565
1195,1.1879,-3.5638,-3.4105,29.0087,50.4348,-58.0174
1200,1.4179,-3.1423,-4.5601,24.5565,49.8087,-58.5739
1205,1.3412,-2.3375,-5.7097,15.6522,49.9478,-58.3652
1210,-0.1533,-0.4215,-9.1969,1.3217,50.9217,-57.0435
1215,0.8047,-0.4215,-6.821,-17.2522,52.6609,-51.5478
1220,1.3029,-1.2263,-6.8977,-33.8087,47.9304,-47.8609
1225,0.4215,-2.1843,-6.5528,-48.9043,40.9739,-47.7913
1230,-0.6898,-3.6787,-5.7097,-57.2522,32.2783,-48.2087
1235,-2.3375,-4.8284,-4.6751,-55.3739,21.0087,-48.0
1240,-3.4871,-6.2079,-2.6441,-47.6522,8.7652,-46.0522
1245,-5.1732,-7.3192,-1.1879,-35.8261,-3.4087,-43.687
1250,-6.2462,-7.7024,-0.8047,-23.3043,-14.2609,-42.7826
1255,-6.3995,-7.779,-0.4982,-12.5217,-22.1217,-40.9043
1260,-5.8247,-7.4725,-0.3832,-4.9391,-25.6,-37.3565
1265,-4.8284,-7.5108,-0.115,-1.0435,-25.1826,-32.6261
1270,-3.4488,-7.1276,-0.5365,-1.2522,-22.6783,-27.3391
1275,-2.0693,-7.1659,-0.4982,-5.4261,-18.087,-22.4696
1280,-0.3066,-7.2042,-0.5365,-10.9217,-11.7565,-19.1304
1285,1.4562,-7.4725,-0.1533,-15.3739,-4.313,-18.6435
1290,2.9507,-8.0473,0.3832,-16.1391,3.2696,-21.4261
1295,4.1769,-8.8903,0.9963,-11.7565,10.0174,-26.7826
1300,5.02,-9.7717,1.8011,-1.5304,15.9304,-33.6
1305,5.7864,-10.8446,2.4908,14.3304,21.8435,-40.5565
1310,6.0163,-11.9176,2.989,32.6957,27.3391,-46.4696
1315,6.0546,-12.5691,2.989,51.2696,32.0,-51.0609
1320,5.863,-12.7607,2.4525,68.8,35.1304,-54.5391
1325,5.7097,-12.5307,1.2646,82.9217,35.9652,-58.087
1330,5.02,-11.9559,-0.4598,91.8261,35.3391,-61.7739
1335,4.5218,-11.5344,-1.4945,95.7913,34.0174,-65.6696
1340,3.4871,-11.3428,-2.6058,98.4348,33.6,-69.7043
1345,2.6824,-11.2279,-2.874,100.8696,35.2,-73.1826
1350,2.0693,-11.3811,-2.7591,102.4,38.1913,-76.313
1355,1.2263,-11.726,-2.3375,103.3043,41.7391,-79.2348
1360,0.2682,-12.1859,-1.6095,105.1826,44.313,-82.713
1365,-0.9197,-12.3775,-1.3029,109.1478,45.5652,-86.1217
1370,-2.1076,-12.1859,-1.1496,114.0174,45.913,-89.3913
1375,-3.0656,-11.841,-0.9197,118.2609,45.5652,-93.1478
1380,-3.7937,-11.1129,-0.5365,121.4609,44.1043,-97.6696
1385,-4.4452,-10.0782,-0.6898,123.687,41.3217,-103.1652
1390,-4.9433,-9.5418,-0.0383,125.1478,37.5652,-109.0087
1395,-5.0583,-9.3118,0.3066,125.5652,32.4174,-115.2696
1400,-5.02,-8.7754,1.0346,125.5652,25.6,-122.5043
1405,-4.7134,-8.4305,1.6095,125.0783,16.9739,-130.2261
1410,-4.3685,-8.0089,1.9927,121.9478,7.5826,-138.7826
1415,-3.8704,-7.1276,2.2609,115.687,-1.0435,-147.1304
1420,-3.2955,-6.0163,1.9543,106.5043,-8.4174,-154.5043
1425,-2.3759,-4.6751,1.073,92.3826,-14.3304,-159.7913
1430,-1.073,-3.4871,0.6131,72.2087,-19.3391,-162.3652
1435,0.115,-2.5291,0.843,47.3043,-23.4435,-162.087
1440,1.4179,-2.1459,1.9543,22.0522,-25.4609,-159.2348
1445,2.989,-2.7207,4.0236,1.6696,-22.4696,-153.3217
1450,4.4068,-4.2919,6.0929,-9.3913,-17.3913,-145.5304
1455,5.4415,-6.8977,7.5491,-7.9304,-15.3043,-136.9043
1460,6.0163,-11.1512,7.6641,9.5304,-21.4957,-129.9478
1465,7.1659,-17.4741,9.5034,43.0609,-34.5043,-123.2696
1470,7.5874,-25.7896,13.6804,95.9304,-51.0609,-119.9304
1475,13.7187,-37.0557,19.7733,172.4522,-76.313,-121.8783
1480,27.3607,-50.9277,24.5633,270.1217,-109.0783,-141.5652
1485,46.6741,-65.2212,23.682,370.1565,-129.7391,-181.5652
1490,64.3015,-65.8343,11.7643,432.7652,-124.5913,-240.8348
1495,79.3614,-54.6831,-12.6457,388.5913,-105.2522,-279.3739
1500,97.9467,-53.6868,-24.6783,219.5478,-72.6261,-255.5826
1505,76.3341,-44.7964,-12.2242,47.513,-28.313,-211.1304
1510,40.3513,-33.5686,-6.1313,-6.6087,-1.9478,-167.7913
1515,16.4394,-24.9848,-2.7974,14.4696,9.3913,-118.0522
1520,0.3832,-16.7077,0.7281,54.6087,20.313,-91.0609
1525,-10.5381,-8.6221,7.9323,92.8696,32.3478,-82.5739
1530,-15.8646,-3.4488,11.0363,124.6609,32.7652,-91.4087
1535,-17.5124,-0.1916,9.5034,152.3478,1.5304,-115.2696
1540,-18.547,4.2536,9.7717,175.5826,-52.7304,-137.6
1545,-15.2515,7.894,11.7643,165.287,-106.0174,-153.6696
1550,-15.2132,8.0089,11.2662,134.1217,-136.5565,-166.8174
1555,-14.0636,5.7864,9.0819,101.7739,-143.6522,-178.7826
1560,-6.8593,4.1386,4.5984,72.3478,-138.6435,-200.2783
1565,0.6131,3.4488,-0.0766,35.8957,-121.7391,-226.9913
1570,5.2499,1.8394,-1.9543,-7.8609,-93.9826,-238.8174
1575,7.4725,-0.115,-2.4142,-45.0087,-68.7304,-238.887
1580,9.4651,-2.2992,-2.0693,-68.313,-52.1739,-233.8783
1585,10.9979,-4.4835,-0.115,-81.0435,-42.9217,-227.4087
1590,12.7223,-6.0929,2.7974,-87.7913,-38.7478,-223.1652
1595,14.2168,-6.7061,4.5218,-91.3391,-40.0,-219.8957
1600,16.6693,-6.8593,5.6331,-95.9304,-44.8696,-215.8609
1605,17.4357,-5.9396,6.2845,-100.5913,-53.7739,-210.9217
1610,17.3974,-5.3265,6.3612,-101.9826,-65.3913,-205.1478
1615,16.7843,-4.2919,5.8247,-98.7826,-75.8957,-200.0696
1620,15.6347,-2.3759,4.9816,-94.0522,-81.0435,-195.0609
1625,14.0636,-0.3449,4.5218,-92.5913,-79.513,-190.4
1630,12.0709,1.4945,4.79,-96.9739,-72.3478,-185.3217
1635,10.2315,2.989,4.79,-105.5304,-62.5391,-177.7391
1640,8.852,4.062,5.2116,-114.3652,-51.3391,-166.4696
1645,8.2389,4.3302,5.4798,-121.4609,-40.487,-153.9478
1650,7.6641,4.1003,5.5564,-124.9391,-32.2783,-143.1652
1655,7.2425,3.5638,5.3648,-123.5478,-27.1304,-132.0348
1660,6.821,2.9123,4.5984,-118.3304,-23.3043,-120.6261
1665,6.821,1.7627,4.062,-110.9565,-21.8435,-106.2261
1670,7.3192,-0.3449,3.6404,-101.913,-24.2087,-91.8957
1675,7.3958,-2.4525,3.3722,-93.2174,-30.887,-79.0261
1680,7.0509,-4.3302,3.3722,-85.4261,-40.3478,-66.0174
1685,6.8593,-5.5948,3.5255,-76.8696,-52.7304,-53.3565
1690,7.4341,-6.2462,3.2572,-69.1478,-66.9217,-41.4609
1695,7.8557,-6.4761,2.8357,-58.0174,-80.2783,-30.6783
1700,8.3538,-5.9396,2.1076,-46.0522,-91.2696,-21.4261
1705,8.737,-5.3265,1.8777,-33.6,-99.4783,-14.2609
1710,9.1969,-4.2919,1.8394,-21.913,-104.3478,-9.3217
1715,9.6184,-2.8357,1.6478,-10.9913,-105.4609,-6.6087
1720,9.7334,-1.2646,1.7244,-1.2522,-104.487,-5.2174
1725,10.0399,0.3449,1.6861,5.5652,-100.9391,-3.9652
1730,10.1549,1.6861,1.7627,8.4174,-95.1652,-3.3391
1735,11.2662,2.7974,1.7627,7.9304,-87.9304,-2.9913
1740,11.0746,3.3722,1.8777,5.7739,-81.113,-5.3565
1745,11.5344,4.1386,1.9927,2.713,-74.3652,-7.6522
1750,11.3428,4.4452,2.0693,-0.6261,-68.8,-11.0609
1755,11.4195,4.2152,2.031,-3.5478,-63.3739,-13.2174
1760,11.2279,3.6787,1.8777,-4.8696,-58.9913,-15.9304
1765,10.6147,2.7974,1.7627,-4.6609,-56.0696,-16.6957
1770,10.0016,2.0693,1.4179,-4.2435,-54.4,-14.8174
1775,9.5034,1.1879,1.3412,-3.7565,-53.4957,-11.5478
1780,8.9286,0.7281,1.1496,-2.713,-53.5652,-8.1391
1785,8.5838,0.2682,0.7664,-1.113,-54.2609,-4.7304
1790,8.3921,0.1533,0.9197,0.7652,-55.1652,-1.3217
1795,8.2389,-0.115,0.843,2.8522,-55.7913,1.6
1800,8.0856,-0.115,0.8814,5.3565,-55.6522,3.8261
1805,7.894,0.0,0.8047,8.0,-54.887,5.5652
1810,8.0089,-0.3066,1.2263,10.6435,-53.4261,6.887
1815,8.5071,-0.0383,1.1113,12.8,-51.1304,8.0
1820,8.852,0.0,1.0346,14.0522,-48.0696,8.4174
1825,8.967,0.3066,0.843,13.9826,-44.313,8.487
1830,9.1969,0.3066,0.7281,12.8696,-39.8609,8.0696
1835,9.3885,0.3449,0.4215,11.4087,-34.9217,7.0261
1840,9.1586,0.9197,0.0766,9.8087,-30.0522,5.0783
1845,9.1586,0.958,-0.2682,8.0696,-25.6696,2.8522
1850,8.8903,1.3412,-0.4982,6.1913,-21.8435,0.6261
1855,8.5071,1.2646,-0.6131,5.2174,-19.2696,-1.2522
1860,8.3921,0.9963,-0.6514,4.9391,-18.3652,-2.7826
1865,8.3155,1.1113,-0.9197,5.7739,-18.5043,-3.0609
1870,8.0856,0.7281,-1.0346,8.2087,-20.8696,-4.4522
1875,8.4688,0.2682,-0.9197,11.7565,-23.7217,-3.4783
1880,8.8903,-0.5748,-0.6131,15.9304,-26.4348,-0.8348
1885,10.0016,-1.9927,-0.115,21.3565,-28.5913,3.7565
1890,9.925,-2.4908,-0.115,28.8696,-29.0783,9.8783
1895,9.1586,-2.6058,-0.5365,35.9652,-29.9826,15.7913
1900,9.8483,-2.8357,-0.5365,40.0696,-31.4435,20.5217
1905,10.9596,-3.2955,-0.4215,41.7391,-32.0,24.6957
1910,12.2625,-3.7171,-0.115,42.6435,-31.513,27.9652
1915,12.3775,-3.832,-0.2299,43.6174,-30.6087,31.0957
1920,12.1859,-3.4105,-0.7281,43.7565,-29.7043,33.4609
1925,12.4924,-3.0656,-0.8814,42.9217,-28.1043,34.5043
1930,12.8373,-3.0656,-1.3795,41.4609,-25.7391,34.5043
1935,12.799,-2.9507,-1.6861,39.3043,-23.0261,34.5739
1940,12.2242,-2.5675,-1.916,37.0783,-21.0087,34.5043
1945,11.4578,-2.1843,-2.1459,35.1304,-19.9652,34.6435
1950,11.3428,-2.1459,-1.9927,33.2522,-19.0609,34.713
1955,11.4961,-2.2992,-1.7627,32.2783,-17.113,34.9217
1960,10.9979,-2.2226,-1.5328,32.6957,-14.4,36.0348
1965,10.4998,-2.1459,-1.5328,34.087,-12.4522,37.1478
1970,10.3465,-2.1843,-1.4179,35.8261,-11.2,37.7739
1975,9.925,-2.2226,-1.2646,37.1478,-10.8522,37.913
1980,9.7334,-2.6824,-1.1879,38.1217,-10.9217,37.913
1985,9.3118,-3.0656,-1.3795,39.3043,-10.5739,38.0522
1990,9.1586,-3.3339,-1.7244,40.8348,-9.6696,38.0522
1995,8.9286,-3.4871,-2.031,42.0174,-8.9043,37.3565
2000,8.0856,-3.2189,-2.2609,41.8087,-8.6261,34.9217
2005,8.5071,-3.6404,-1.8011,39.6522,-10.1565,30.3304
2010,8.5454,-4.2536,-1.4562,36.5913,-10.9913,25.9478
2015,8.2005,-4.6368,-1.3795,32.6957,-11.2,22.1913
2020,7.779,-4.9433,-1.4179,27.8957,-11.1304,18.713
2025,7.9323,-4.6368,-1.1113,22.6783,-10.5739,15.2348
2030,7.5108,-4.5984,-0.6898,18.3652,-8.7652,11.5478
2035,7.4725,-4.2536,-0.7281,16.2087,-5.7739,8.6957
2040,7.5874,-3.7937,-0.7281,16.4174,-2.087,6.6087
2045,8.0473,-3.4488,-0.6514,18.5043,1.9478,4.8
2050,8.5071,-2.9507,-0.5365,21.2174,5.5652,2.6435
2055,9.0819,-2.8357,-0.7281,23.7913,8.6261,0.0696
2060,9.5418,-2.5675,-0.7281,25.4609,10.8522,-2.8522
2065,9.8866,-2.4525,-0.7281,25.8087,12.2435,-5.6348
2070,10.3465,-2.5291,-0.8047,24.9739,13.0087,-8.1391
2075,10.768,-2.7591,-0.6898,23.2348,13.1478,-9.8087
2080,11.1129,-2.874,-0.843,20.9391,13.0087,-10.713
2085,11.2662,-3.2189,-0.8047,18.1565,12.7304,-10.9217
2090,11.3428,-3.4871,-1.1113,15.2348,12.5913,-10.3652
2095,11.3428,-3.8704,-1.3029,12.6609,12.1739,-9.2522
2100,11.2279,-4.1003,-1.3029,10.7826,11.6174,-7.4435
2105,11.0746,-4.0236,-1.1879,9.7391,11.1304,-5.3565
2110,10.768,-4.0236,-1.2646,9.6696,10.6435,-3.0609
2115,10.8063,-3.9853,-1.2646,10.3652,10.3652,-0.8348
2120,10.4614,-3.7937,-1.0346,11.7565,10.1565,1.2522
2125,10.0016,-3.5255,-0.9963,13.4261,9.9478,3.2696
2130,9.7334,-3.6021,-0.843,14.6087,9.7391,4.8696
2135,9.2735,-3.4105,-0.5365,15.513,9.4609,6.1217
2140,9.1202,-3.4105,-0.1533,16.3478,9.3217,7.0957
2145,8.737,-3.3339,-0.115,16.4174,9.4609,8.1391
2150,8.5071,-3.2189,0.115,15.4435,9.4609,8.6957
2155,8.3155,-3.3339,0.2682,13.913,9.3913,8.7652
2160,8.0473,-3.3722,0.3832,12.4522,9.1826,8.8348
2165,7.894,-3.4105,0.3832,11.5478,8.6261,8.7652
2170,7.5491,-3.1806,0.6898,10.713,8.2783,8.6957
2175,7.6641,-3.3339,0.3449,9.6696,8.2087,8.8348
2180,7.5874,-3.0656,0.1533,7.7217,8.7652,9.3217
2185,7.6641,-2.9507,0.0,5.2174,9.8783,9.9478
2190,7.7024,-2.989,-0.2299,2.2261,11.2,10.6435
2195,7.7024,-2.874,-0.2682,-0.7652,12.4522,11.4783
2200,7.7024,-2.8357,-0.4215,-3.6174,14.1217,12.3826
2205,7.9323,-2.9507,-0.4982,-6.2609,15.7217,13.2174
2210,8.0856,-3.0273,-0.4982,-8.487,17.3913,13.8435
2215,8.1239,-3.2955,-0.4215,-10.4348,18.8522,14.1913
2220,8.0473,-3.4105,-0.5365,-12.1043,20.313,14.5391
2225,8.1239,-3.6404,-0.4982,-13.1478,21.7043,14.9565
2230,8.1239,-3.947,-0.3832,-13.9826,22.8174,15.0957
2235,8.1239,-4.2919,-0.0766,-14.1913,23.1652,14.6087
2240,7.5874,-4.4835,-0.1533,-14.1217,22.8174,13.7043
2245,8.0856,-4.5218,0.4982,-13.4957,22.6783,13.0783
2250,8.2389,-4.6751,0.7664,-12.0348,21.6348,12.0348
2255,8.4688,-4.7517,0.8047,-10.087,20.1739,10.5739
2260,8.6604,-4.9433,0.8814,-7.3043,18.7826,9.3217
2265,8.852,-4.9816,1.1113,-4.0348,17.4609,8.5565
2270,9.1202,-5.02,1.1496,-0.5565,15.8609,7.3739
2275,9.3502,-4.905,1.2263,3.6174,13.913,6.2609
2280,9.7717,-4.905,1.3412,7.2348,11.8261,5.0087
2285,10.0399,-4.7134,1.3412,10.6435,9.6696,3.8261
2290,10.3465,-4.7134,1.1496,13.6348,7.513,2.713
2295,10.768,-4.5601,1.0346,15.513,5.287,1.8783
2300,10.7297,-4.5601,0.8047,16.0696,2.9217,0.487
2305,10.7297,-4.3302,0.8047,15.7913,0.1391,-0.7652
2310,10.9213,-4.4068,0.7281,14.6087,-2.7826,-1.9478
2315,10.653,-4.1769,0.4598,13.5652,-5.287,-3.1304
2320,10.6147,-4.2152,0.4215,11.3391,-7.513,-3.8261
2325,10.3848,-4.1769,0.1916,9.0435,-9.7391,-4.3826
2330,10.0782,-4.1003,0.0383,7.5826,-11.4783,-5.1478
2335,9.8483,-4.2536,-0.0766,6.1913,-12.9391,-5.4957
2340,9.4268,-4.1003,-0.0383,4.5217,-13.7043,-5.5652
2345,9.1202,-4.1386,-0.3449,3.6174,-14.8174,-5.287
2350,8.9286,-4.0236,-0.3449,3.2,-14.7478,-4.4522
2355,8.852,-4.0236,-0.5365,2.713,-14.4,-3.4783
2360,8.5454,-3.947,-0.4598,2.5739,-13.7043,-2.5739
2365,8.4688,-3.832,-0.3832,2.6435,-12.8,-1.5304
2370,8.3538,-3.8704,-0.4598,2.1565,-11.8261,-0.4174
2375,8.4688,-3.9853,-0.4598,1.8783,-10.713,0.7652
2380,8.3538,-3.7171,-0.5748,2.0174,-9.6696,1.3217
2385,8.3921,-3.5638,-0.6898,2.087,-8.4174,1.7391
2390,8.4305,-3.6021,-0.6514,1.7391,-6.6087,2.2261
2395,8.6604,-3.6787,-0.4598,1.4609,-5.1478,2.713
2400,8.7754,-3.6787,-0.6131,1.0435,-3.4087,3.0609
2405,8.8903,-3.6787,-0.6898,0.487,-1.6696,3.2696
2410,8.852,-3.5638,-0.8047,-0.0696,0.0696,3.3391
2415,8.967,-3.5638,-0.7281,-0.8348,1.8087,3.2696
2420,9.0053,-3.6021,-0.7281,-1.9478,3.5478,3.0609
2425,9.0819,-3.832,-0.7664,-3.0609,5.287,2.9913
2430,8.9286,-3.832,-0.8814,-4.1739,6.8174,2.7826
2435,8.967,-3.8704,-0.7281,-5.287,8.2783,2.8522
2440,9.0436,-3.8704,-0.6898,-6.1217,9.6,2.8522
2445,9.0053,-3.947,-0.5365,-6.6783,10.8522,2.9217
2450,9.0436,-4.0236,-0.7281,-6.6783,12.0348,2.7826
2455,9.1202,-3.9853,-0.6514,-6.4,13.0087,2.713
2460,9.0436,-3.7554,-0.4982,-5.8435,13.7043,2.5739
2465,9.0053,-4.062,-0.1533,-5.2174,14.1217,2.4348
2470,8.967,-4.062,-0.2299,-4.6609,14.4696,2.0174
2475,8.9286,-3.9853,-0.3066,-3.8261,14.6783,1.6696
2480,9.0436,-3.947,-0.2299,-2.8522,14.8174,1.3217
2485,9.0053,-3.9853,-0.115,-1.6696,14.7478,1.113
2490,9.1586,-3.9853,0.115,-0.5565,14.4,0.8348
2495,9.0436,-3.9087,-0.0383,0.6957,14.0522,0.7652
2500,9.0819,-3.947,0.0766,1.9478,13.7043,0.5565
2505,9.1202,-3.8704,0.115,3.3391,13.1478,0.6261
2510,9.2352,-3.7937,0.0,4.7304,12.5217,0.7652
2515,9.0819,-3.832,-0.0383,6.0522,11.687,1.113
2520,9.1969,-3.7937,0.3066,7.3739,10.713,1.4609
2525,9.1202,-3.832,0.0383,8.1391,9.3913,1.4609
2530,9.1586,-3.832,0.0766,8.5565,8.0696,1.4609
2535,9.1202,-3.8704,0.115,8.9739,7.0261,1.6
2540,9.1586,-3.7937,0.2299,9.3217,5.9826,1.7391
2545,9.1202,-3.8704,0.0766,9.5304,5.1478,1.9478
2550,9.1969,-3.8704,0.2299,9.7391,4.5217,2.2261
2555,9.0436,-3.7937,0.1916,9.5304,4.2435,2.6435
2560,9.1202,-3.8704,0.2682,9.0435,4.0348,2.713
2565,9.0436,-3.7554,0.2299,9.0435,3.8957,2.9913
2570,9.1969,-3.9087,0.2299,9.113,4.0348,3.2
2575,9.0436,-3.832,0.3449,9.0435,3.9652,3.3391
2580,9.1586,-3.7937,0.3066,8.6957,3.6174,3.3391
2585,9.0436,-3.8704,0.1533,8.1391,3.687,3.2
2590,9.1202,-3.8704,0.0766,7.5826,3.8957,3.2
2595,9.0436,-3.9087,0.1533,7.2348,3.687,2.9913
2600,9.0436,-3.7937,0.115,7.0261,3.2696,2.8522
2605,9.1202,-3.7937,0.2299,6.3304,3.3391,2.6435
2610,8.967,-3.7171,0.2682,5.4957,3.3391,2.3652
2615,8.8903,-3.832,0.0766,4.5913,3.2696,2.2957
2620,8.8137,-3.7171,0.2299,3.7565,3.0609,2.1565
2625,8.852,-3.7171,0.1916,2.9913,2.6435,1.9478
2630,8.8903,-3.7171,0.115,2.4348,2.5043,1.6696
2635,8.8137,-3.8704,0.2682,1.9478,2.3652,1.5304
2640,8.7754,-3.8704,0.1916,1.6,2.3652,1.3913
2645,8.852,-3.832,0.0,1.3217,2.3652,1.2522
2650,8.967,-3.9087,0.0766,1.1826,2.5043,1.0435
2655,8.9286,-3.8704,0.115,0.9043,2.7826,0.9043
2660,8.967,-3.7554,-0.0766,0.4174,2.9913,0.6957
2665,9.0053,-3.8704,0.0,-0.3478,3.2,0.487
2670,8.7754,-3.7937,0.1916,-0.9739,3.3391,0.2087
2675,8.9286,-3.9853,0.115,-1.4609,3.4087,-0.1391
2680,9.0053,-3.832,0.1916,-1.7391,3.4783,-0.4174
2685,8.9286,-3.7937,-0.0383,-2.0174,3.5478,-0.487
2690,8.967,-3.947,0.0383,-2.1565,3.5478,-0.6261
2695,8.8137,-3.8704,-0.115,-2.4348,3.5478,-0.7652
2700,8.9286,-3.947,0.0766,-2.5739,3.6174,-0.6261
2705,8.852,-3.9087,-0.0383,-2.5739,3.5478,-0.4174
2710,9.0053,-3.947,-0.0383,-2.4348,3.5478,-0.0696
2715,9.0436,-3.8704,-0.115,-2.2261,3.7565,0.1391
2720,9.1969,-3.832,-0.1916,-1.9478,3.8261,0.6261
2725,9.1202,-3.8704,-0.3449,-1.6696,3.8957,0.8348
2730,9.1969,-3.947,-0.1916,-1.6,3.8261,1.0435
2735,9.1586,-3.947,-0.4598,-1.4609,3.687,1.113
2740,9.0819,-3.9087,-0.2682,-1.4609,3.687,1.113
2745,8.967,-3.8704,-0.3832,-1.6,3.687,1.113
2750,9.0053,-4.0236,-0.3449,-1.8087,3.8261,0.9043
2755,8.9286,-3.947,-0.2299,-2.0174,3.9652,0.8348
2760,9.0053,-3.9853,-0.2682,-2.0174,4.2435,0.7652
2765,8.9286,-3.9087,-0.1916,-2.2261,4.5913,0.5565
2770,9.0053,-4.1003,-0.1533,-2.4348,4.7304,0.4174
2775,8.6987,-3.9853,-0.2299,-2.6435,5.0087,0.2783
2780,8.852,-4.1386,-0.0383,-2.7826,5.2174,0.2783
2785,9.0053,-3.832,-0.2682,-2.5739,5.4957,0.3478
2790,8.737,-4.062,0.0383,-2.713,5.4957,0.4174
2795,8.9286,-4.0236,-0.0383,-2.9217,5.4957,0.4174
2800,9.0053,-4.062,0.115,-2.8522,5.7043,0.3478
2805,8.9286,-4.062,-0.0383,-2.9217,5.8435,0.2783
2810,9.0053,-4.0236,-0.0766,-3.0609,5.913,0.2783
2815,9.0436,-4.062,0.115,-3.2,5.913,0.0696
2820,9.0436,-3.9853,0.0,-3.4087,5.913,-0.0696
2825,8.967,-4.1003,0.115,-3.3391,5.913,-0.3478
2830,9.0436,-4.0236,0.1533,-3.1304,5.8435,-0.487
2835,8.967,-4.0236,0.115,-2.713,5.6348,-0.6957
2840,9.0819,-3.9853,0.0766,-2.2261,5.4261,-0.8348
2845,8.967,-3.947,0.115,-1.8087,5.287,-0.8348
2850,9.1586,-3.9853,0.0766,-1.3913,5.1478,-0.9739
2855,9.0819,-4.062,0.0,-0.9043,4.8696,-0.8348
2860,8.9286,-3.9087,-0.1533,-0.7652,4.6609,-0.6957
2865,9.0053,-3.947,0.0,-0.4174,4.3826,-0.5565
2870,9.0053,-3.947,-0.0383,-0.2087,4.1739,-0.487
2875,9.0053,-3.947,0.0766,-0.2087,3.9652,-0.3478
2880,8.9286,-3.832,0.0383,0.0696,3.8261,-0.2783
2885,8.967,-3.947,-0.115,0.2783,3.5478,-0.0696
2890,9.0053,-3.9087,-0.0383,0.487,3.4783,-0.1391
2895,8.9286,-4.0236,0.1533,0.6261,3.3391,-0.1391
2900,8.9286,-3.832,0.0,0.6957,3.3391,-0.0696
2905,8.9286,-3.832,0.0,0.6261,3.2696,-0.0696
2910,8.852,-3.832,-0.115,0.6957,3.3391,-0.0696
2915,8.967,-3.7171,-0.115,0.7652,3.4087,-0.1391
2920,8.9286,-3.832,-0.115,0.7652,3.687,-0.0696
2925,8.7754,-3.7554,-0.115,0.7652,4.0348,-0.0696
2930,8.8903,-3.7554,0.0,0.9043,4.3826,0.0696
2935,8.967,-3.7937,-0.0766,0.8348,4.5913,0.1391
2940,8.967,-3.6787,0.0,0.6957,4.9391,0.2087
2945,9.0053,-3.7937,-0.0383,0.6261,5.1478,0.3478
2950,8.8903,-3.7171,-0.0383,0.487,5.0783,0.3478
2955,8.9286,-3.7937,-0.0766,0.4174,5.1478,0.5565
2960,9.0053,-3.832,-0.115,0.2087,5.2174,0.5565
2965,9.0819,-3.9087,-0.0383,0.0,5.1478,0.7652
2970,8.9286,-3.7937,0.0383,-0.2783,5.0783,1.0435
2975,9.1202,-3.9853,-0.115,-0.4174,5.1478,1.2522
2980,8.967,-3.947,-0.0383,-0.3478,5.1478,1.3217
2985,9.0819,-3.9087,-0.0383,-0.2783,5.2174,1.3913
2990,9.1586,-3.9087,0.0766,-0.0696,5.0783,1.3217
2995,9.0819,-4.0236,0.0383,0.0696,4.8696,1.113
