timestamp,accX,accY,accZ,gyroX,gyroY,gyroZ
0,-1.916,-9.8483,-1.2263,21.7043,20.5217,-7.6522
5,-1.916,-10.0782,-1.2263,22.4,21.2174,-8.9043
10,-2.031,-10.3848,-1.2263,22.8174,21.4261,-9.8087
15,-1.9543,-10.6914,-1.2646,22.8174,21.287,-10.713
20,-2.1076,-10.8063,-1.1879,23.0957,21.0087,-11.2696
25,-2.1843,-11.0746,-1.073,23.7913,20.1739,-11.5478
30,-2.0693,-11.1512,-0.9197,24.5565,18.9913,-11.6174
35,-2.1843,-10.9979,-0.843,25.5304,17.3913,-11.4783
40,-2.2609,-10.9979,-0.8047,26.2957,15.3739,-11.3391
45,-2.2226,-10.653,-0.843,26.713,13.1478,-10.713
50,-2.2609,-10.4231,-0.9197,26.4348,11.1304,-9.7391
55,-2.1843,-10.2315,-0.958,25.9478,9.3217,-8.6957
60,-2.031,-10.0782,-1.1496,25.6696,8.9739,-7.7913
65,-1.916,-10.1932,-1.3029,25.113,10.1565,-6.7478
70,-1.7627,-10.2315,-1.1879,23.7913,12.2435,-5.7739
75,-1.9543,-10.3848,-1.1496,21.8435,14.7478,-4.8
80,-1.9543,-10.7297,-0.843,19.0609,17.3217,-3.7565
85,-2.2609,-11.1895,-0.5748,15.7913,19.1304,-2.9913
90,-2.3759,-11.5727,-0.3449,13.0783,20.313,-2.3652
95,-2.4908,-11.9559,-0.0383,10.7826,21.0087,-1.5304
100,-2.6824,-12.3775,0.0766,9.8087,20.5913,-0.8348
105,-2.989,-12.5691,0.3066,10.9217,18.4348,-0.4174
110,-3.0273,-12.4541,0.2682,13.4957,15.0261,0.487
115,-3.1423,-12.4158,0.3066,16.6957,11.1304,1.6
120,-3.2955,-12.1475,0.5365,20.1739,7.2348,2.5043
125,-3.2572,-11.9176,0.4982,24.487,3.3391,3.6174
130,-3.4488,-11.6494,0.4598,29.4957,0.0,4.8
135,-3.4488,-11.2279,0.7281,34.8522,-2.9217,6.0522
140,-3.4105,-10.8063,0.8814,40.6261,-5.7043,7.0261
145,-3.3339,-10.3848,1.073,46.4696,-8.1391,7.8609
150,-3.5255,-10.0782,0.9963,51.8957,-10.1565,8.8348
155,-2.9123,-9.81,-1.1879,54.4,-12.313,9.4609
160,-1.8777,-9.695,-2.6824,48.4174,-13.287,7.8609
165,-2.4908,-10.5764,-2.031,39.4435,-8.3478,8.1391
170,-2.7591,-11.6494,-2.6058,32.487,-2.9217,12.5217
175,-2.7974,-11.9943,-4.6368,22.4,1.5304,17.6696
180,-2.7207,-12.1475,-6.3612,5.1478,10.4348,20.2435
185,-2.4908,-12.7607,-6.7061,-16.2783,18.8522,20.7304
190,-2.6824,-13.1055,-5.7097,-32.8348,19.3391,22.0522
195,-3.0273,-12.8373,-4.905,-36.0348,12.3826,25.0435
200,-3.0273,-11.9176,-5.4032,-29.3565,3.3391,28.8
205,-2.5291,-11.2662,-6.5528,-20.5913,-5.4957,32.4174
210,-1.6861,-10.6914,-6.936,-13.5652,-13.2174,35.6174
215,-0.843,-9.6184,-7.0893,-7.513,-18.9913,38.887
220,-0.0766,-8.6221,-7.4725,-1.8783,-23.1652,42.1565
225,0.3449,-7.3958,-7.7024,2.7826,-25.8087,45.0783
230,0.4598,-6.7061,-7.6641,5.4957,-27.2,47.2348
235,0.8814,-6.4761,-7.0509,5.913,-27.9652,48.1391
240,1.2646,-6.821,-6.1313,4.313,-29.2174,46.8174
245,1.3029,-7.2042,-4.9816,2.0174,-31.3739,44.1043
250,1.1496,-7.9706,-4.2536,-0.1391,-33.5304,41.113
255,1.4179,-8.737,-3.4488,-2.5043,-34.8522,38.0522
260,1.1496,-9.695,-3.2572,-5.913,-34.3652,34.5739
265,0.958,-10.4998,-3.2189,-9.6696,-31.5826,29.9826
270,0.5365,-11.2279,-3.0656,-12.6609,-27.2696,24.5565
275,0.0,-11.6111,-3.1039,-14.9565,-22.9565,18.713
280,-0.6514,-11.7643,-3.3339,-17.7391,-19.6174,12.5913
285,-1.1879,-11.841,-3.7171,-20.9391,-17.1826,6.1217
290,-1.6478,-11.8027,-3.8704,-26.2957,-15.5826,0.0
295,-2.2226,-11.6494,-4.1386,-32.487,-14.3304,-5.913
300,-2.4142,-11.6877,-4.2152,-38.4696,-13.7043,-11.7565
305,-2.4908,-11.7643,-3.947,-42.9913,-13.2174,-17.2522
310,-2.8357,-11.4578,-3.947,-44.8,-13.287,-22.0522
315,-2.989,-11.1895,-3.7937,-43.9652,-13.6348,-25.8783
320,-3.1039,-10.6914,-3.5638,-40.8348,-14.3304,-28.4522
325,-3.1039,-10.2315,-3.4105,-35.7565,-15.3043,-29.5652
330,-3.0273,-9.6184,-3.2189,-29.2174,-16.3478,-29.7739
335,-2.6441,-9.0436,-2.7591,-22.887,-17.4609,-29.1478
340,-2.5675,-8.3538,-2.6058,-16.9739,-18.5043,-27.687
345,-2.2609,-8.0089,-2.2609,-11.6174,-19.687,-26.1565
350,-1.916,-7.5874,-1.9927,-7.3739,-21.2174,-24.8348
355,-1.5328,-7.1659,-1.7627,-4.1043,-23.3043,-24.1391
360,-1.1496,-6.9743,-1.6861,-1.2522,-25.6,-23.7913
365,-0.6898,-6.4761,-1.3412,0.9739,-27.8957,-24.0
370,-0.6898,-6.5528,-1.5328,2.0174,-30.2609,-24.5565
375,-0.4598,-6.5145,-1.5711,1.7391,-32.6261,-25.3913
380,-0.115,-6.3612,-1.6478,0.487,-34.8522,-26.4348
385,-0.0766,-6.5911,-1.4945,-1.113,-36.6609,-27.1304
390,0.0766,-6.5911,-1.3795,-3.0609,-37.9826,-27.6174
395,0.0766,-6.7444,-1.4179,-5.3565,-39.4435,-28.2435
400,0.0,-6.8977,-1.4945,-7.7913,-40.4174,-28.6609
405,-0.115,-7.1276,-1.4945,-9.8783,-41.2522,-28.6609
410,-0.115,-7.1659,-1.4945,-12.0348,-41.8783,-28.4522
415,-0.1533,-7.2809,-1.5328,-13.7739,-42.5043,-28.1739
420,-0.3832,-7.5874,-1.4945,-15.3043,-42.9913,-27.8261
425,-0.5365,-7.7407,-1.4179,-16.3478,-43.5478,-27.2696
430,-0.3832,-7.894,-1.4945,-16.7652,-44.0348,-26.713
435,-0.6514,-7.9323,-1.3795,-16.6261,-44.5913,-26.4348
440,-0.6514,-8.0856,-1.4945,-15.513,-45.0087,-26.2957
445,-0.7664,-8.1239,-1.4179,-14.4,-45.1478,-26.3652
450,-0.6131,-8.2389,-1.2263,-13.0783,-44.8696,-26.087
455,-0.6898,-8.2772,-1.2646,-11.2696,-44.9391,-25.4609
460,-0.5748,-8.3921,-1.1879,-9.5304,-45.1478,-24.6957
465,-0.4215,-8.3155,-0.958,-8.0696,-45.6348,-23.7913
470,-0.4215,-8.2005,-0.9963,-6.6087,-46.4,-22.6783
475,-0.4598,-8.1239,-0.7664,-5.3565,-47.3739,-21.5652
480,-0.2299,-8.0856,-0.7664,-4.2435,-48.7652,-20.5217
485,-0.0383,-8.0473,-0.7664,-3.4783,-50.4348,-19.6174
490,-0.0766,-8.0856,-0.6131,-2.9217,-52.1739,-18.7826
495,0.0383,-7.9323,-0.6131,-3.0609,-53.7739,-17.9478
500,-0.0766,-7.7407,-0.5748,-2.713,-54.9565,-17.3913
505,0.0383,-7.7407,-0.6131,-2.5043,-55.8609,-16.9739
510,0.0,-7.7407,-0.6514,-2.5043,-56.8348,-16.3478
515,-0.0766,-7.779,-0.5365,-2.7826,-57.7391,-15.5826
520,-0.2299,-7.7407,-0.5748,-3.0609,-58.5739,-14.7478
525,-0.3449,-7.5874,-0.5365,-2.9913,-59.2696,-13.913
530,-0.5748,-7.779,-0.6898,-2.8522,-59.9652,-13.2174
535,-0.7664,-7.9706,-0.7664,-2.7826,-60.313,-12.2435
540,-1.0346,-8.0856,-0.9197,-3.4087,-60.4522,-11.0609
545,-1.1496,-8.2772,-0.9963,-4.9391,-60.1739,-9.4609
550,-1.4945,-8.6604,-1.073,-7.3739,-59.687,-7.5826
555,-1.6861,-8.967,-0.843,-9.4609,-58.713,-5.7043
560,-1.8394,-9.3502,-0.8814,-10.5043,-57.6696,-4.0348
565,-1.916,-9.5034,-0.9963,-10.5739,-56.6261,-2.4348
570,-1.9543,-9.7334,-0.8047,-10.4348,-55.9304,-0.9739
575,-1.916,-9.7334,-1.1113,-10.1565,-55.5826,0.4174
580,-1.7244,-9.81,-1.4562,-10.1565,-55.3043,1.2522
585,-2.031,-9.81,-1.8394,-10.2957,-55.513,1.5304
590,-1.6861,-9.5034,-1.8011,-10.5739,-55.9304,1.3913
595,-1.3795,-9.4651,-1.7627,-10.5739,-56.2087,0.7652
600,-1.3029,-9.5418,-1.7244,-10.0174,-56.1391,-0.4174
605,-0.9963,-9.8483,-1.3795,-8.2783,-56.2087,-2.2957
610,-0.843,-10.3082,-1.2263,-5.7739,-56.4174,-4.6609
615,-0.8047,-10.7297,-0.958,-2.5739,-56.5565,-7.6522
620,-0.7664,-11.2662,-0.7281,0.8348,-56.6957,-10.9217
625,-0.6514,-11.7643,-0.4982,4.2435,-56.4174,-13.8435
630,-0.6898,-12.2625,-0.1916,7.7217,-55.0957,-16.2087
635,-0.4215,-12.6457,-0.3066,11.0609,-53.0783,-18.2261
640,-0.2299,-13.0289,-0.1916,14.6783,-50.2261,-20.1739
645,0.0383,-13.3355,0.0383,18.5739,-47.0261,-22.2609
650,0.2682,-13.6037,0.115,22.6783,-44.2435,-24.3478
655,0.4598,-13.8336,0.3449,27.2696,-41.8783,-26.6435
660,0.7281,-13.7953,0.6514,32.7652,-40.2087,-28.8
665,0.843,-13.7187,1.073,38.9565,-39.3739,-30.7478
670,0.6898,-13.4888,1.3412,45.1478,-39.1652,-32.0696
675,0.8047,-12.9906,1.5328,51.2696,-39.6522,-32.7652
680,1.0346,-12.7223,1.6478,56.5565,-40.4174,-33.1826
685,1.0346,-12.1859,1.7244,60.8696,-41.5304,-33.8087
690,0.7664,-11.5344,0.115,63.0957,-43.4783,-34.6435
695,0.843,-12.3775,0.3832,61.913,-45.913,-35.4087
700,-0.1916,-13.3738,0.4982,64.3478,-50.1565,-37.913
705,-1.7627,-13.6037,-2.5291,63.7913,-57.8087,-43.3391
710,-2.1843,-13.0672,-6.4378,49.6,-61.1478,-48.5565
715,-2.5291,-13.1822,-8.9286,22.4696,-60.6609,-53.5652
720,-2.7974,-14.5617,-9.1969,-4.7304,-57.0435,-57.1826
725,-2.7591,-15.5197,-8.6987,-17.113,-45.5652,-58.1565
730,-1.9543,-15.4431,-7.9323,-12.0348,-26.5739,-61.287
735,-1.3029,-14.83,-7.3575,0.6957,-9.4609,-69.0087
740,-1.1879,-14.4084,-6.8977,13.5652,2.713,-77.3565
745,-1.5711,-13.5271,-6.6294,25.5304,9.7391,-84.1739
750,-1.9543,-12.0326,-7.2042,38.5391,11.1304,-86.8174
755,-2.0693,-10.2315,-8.5454,49.8087,9.3217,-86.9565
760,-2.3375,-8.0473,-9.5034,54.4696,7.1652,-86.6783
765,-2.2609,-6.5145,-9.3118,52.1739,4.7304,-86.0522
770,-2.4908,-5.5181,-8.1239,48.0696,0.6261,-83.8261
775,-3.0273,-4.9433,-6.5145,46.2609,-3.6174,-80.0696
780,-3.6787,-4.7517,-5.4798,45.4957,-5.6348,-74.4348
785,-3.7937,-4.905,-4.4068,42.4348,-6.5391,-67.3391
790,-3.7554,-5.3265,-3.7937,35.2696,-7.9304,-59.0609
795,-3.2572,-6.0546,-3.1806,24.4174,-10.5739,-50.4348
800,-3.1039,-6.5145,-3.0273,12.8696,-13.4957,-42.087
805,-2.4908,-7.3192,-2.989,2.087,-15.8609,-34.8522
810,-2.031,-8.3155,-2.989,-7.4435,-17.1826,-28.6609
815,-1.2646,-9.1969,-3.0273,-16.1391,-18.087,-23.3739
820,-0.6131,-9.8866,-3.0656,-24.6261,-18.2957,-18.3652
825,-0.0766,-10.8063,-2.874,-31.3739,-18.1565,-13.9826
830,0.4215,-11.4578,-2.8357,-35.4783,-18.2261,-10.5043
835,0.4598,-11.841,-2.7974,-36.6609,-18.2957,-7.6522
840,0.6514,-11.9943,-2.7591,-34.7826,-18.3652,-5.9826
845,0.6898,-11.9176,-2.7207,-29.9826,-18.5043,-5.4261
850,0.7664,-11.7643,-2.989,-22.8174,-18.6435,-6.3304
855,0.8814,-11.6877,-2.7974,-14.3304,-18.6435,-8.5565
860,0.5748,-11.4578,-2.5675,-4.9391,-18.1565,-11.1304
865,0.3832,-11.4961,-2.5675,4.313,-17.6,-13.8435
870,0.115,-11.1895,-2.5291,11.9652,-16.9043,-16.6957
875,0.0,-10.8063,-2.5291,18.0174,-15.9304,-19.687
880,-0.1533,-10.2315,-2.4525,23.3739,-14.3304,-22.2609
885,-0.3832,-9.5418,-2.2226,28.2435,-11.8957,-24.4174
890,-0.6131,-8.967,-2.3759,32.2087,-9.1826,-25.8087
895,-0.6131,-8.4305,-2.5291,34.0174,-6.0522,-26.713
900,-0.4215,-7.779,-2.3759,33.5304,-2.713,-26.9913
905,-0.7664,-7.0509,-2.6058,32.5565,0.4174,-26.9217
910,-0.4598,-6.7061,-2.1459,30.7478,3.1304,-26.5739
915,-0.4598,-6.3612,-1.8394,28.8696,5.287,-25.5304
920,-0.3449,-6.0929,-1.4945,26.6435,6.887,-23.9304
925,-0.2299,-5.9396,-1.1113,24.2783,7.7913,-21.7739
930,-0.0766,-5.748,-0.4982,23.0261,8.487,-18.5043
935,-0.0383,-5.863,-0.3449,22.3304,8.8348,-15.3043
940,-0.4215,-5.9396,0.0,22.3304,8.6957,-12.5913
945,-0.4598,-6.3995,0.1533,23.0261,8.9043,-9.4609
950,-0.8047,-6.7061,0.3449,24.0696,7.3043,-8.6957
955,-1.1113,-7.0126,0.2299,25.6,4.8,-9.2522
960,-1.4945,-7.4725,0.0383,26.5043,2.3652,-9.4609
965,-1.8011,-7.6641,-0.2682,26.1565,-0.0696,-10.3652
970,-1.9927,-8.1622,-0.3832,24.2087,-2.7826,-11.687
975,-2.2992,-8.2389,-0.5748,21.3565,-5.6348,-13.5652
980,-2.6058,-8.2389,-0.6898,18.2261,-8.3478,-15.1652
985,-2.9123,-8.0856,-0.7664,15.7913,-10.9913,-16.487
990,-3.2189,-7.7407,-0.8814,14.4,-13.0783,-17.5304
995,-3.1806,-7.6257,-1.0346,13.6348,-14.8174,-18.1565
1000,-3.2955,-7.4725,-1.2263,13.0783,-16.0,-18.4348
1005,-3.4105,-7.2809,-1.3795,12.1043,-16.9739,-18.713
1010,-3.4488,-7.1276,-1.2646,11.3391,-17.2522,-18.713
1015,-3.1423,-6.8977,-1.4945,11.1304,-17.2522,-18.5043
1020,-3.5255,-7.1659,-1.2263,11.687,-16.9043,-18.3652
1025,-3.6404,-7.2425,-1.2263,12.7304,-16.2783,-18.713
1030,-3.3722,-7.5491,-1.1496,14.1913,-15.513,-19.8261
1035,-3.4105,-7.5108,-1.2646,16.0,-14.7478,-21.4261
1040,-3.2189,-7.5108,-1.4562,17.6696,-14.0522,-23.6522
1045,-3.0656,-7.5491,-1.5711,18.9217,-13.287,-26.5043
1050,-2.989,-7.3575,-1.7244,19.4087,-12.2435,-29.7739
1055,-2.7974,-7.2042,-1.8777,18.8522,-10.5739,-33.2522
1060,-2.4908,-6.9743,-2.1459,17.8087,-8.3478,-36.5913
1065,-2.4525,-6.6677,-2.5675,16.4174,-5.6348,-39.4435
1070,-2.2992,-5.7864,-3.1039,14.9565,-2.1565,-41.3913
1075,-2.1459,-4.905,-3.832,12.5217,1.9478,-42.3652
1080,-1.6478,-4.0236,-4.3302,8.3478,6.4696,-42.7826
1085,-1.0346,-3.2189,-4.3302,3.4783,11.0609,-42.4348
1090,-0.6514,-2.3375,-3.947,0.3478,15.3739,-41.6
1095,-0.4982,-1.8011,-3.4871,-0.2783,19.3391,-40.2087
1100,-0.0383,-0.9963,-3.1423,0.8348,22.5391,-37.9826
1105,0.1916,0.0383,-2.5675,2.2261,25.3217,-34.5043
1110,0.2299,1.073,-2.031,3.1304,27.4783,-29.913
1115,0.7664,1.8394,-1.6095,4.3826,29.3565,-24.8348
1120,1.073,2.7974,-1.1496,6.4,30.9565,-20.3826
1125,1.6095,3.7171,-0.5365,8.9739,31.5826,-17.4609
1130,1.9927,4.3685,0.115,11.3391,30.8174,-16.2783
1135,2.3375,4.7517,0.9197,12.5217,28.3826,-17.1826
1140,2.6441,4.6368,1.4562,12.8,24.6261,-20.1043
1145,3.3339,3.7937,1.916,12.313,20.0348,-25.5304
1150,3.7171,2.6824,2.031,11.4783,16.0,-32.9739
1155,4.062,1.3795,1.6095,10.4348,14.4696,-40.7652
1160,4.4835,0.0766,0.6131,9.113,17.4609,-47.4435
1165,4.6751,-0.958,-1.2646,8.7652,24.9739,-52.313
1170,4.5984,-1.3795,-3.1423,7.9304,34.8522,-55.3739
1175,4.2919,-1.7244,-5.3265,4.0348,43.7565,-58.087
1180,3.947,-2.031,-7.6257,-3.8957,49.8087,-60.8696
1185,3.4105,-1.9543,-9.5034,-16.2783,53.0087,-63.513
1190,2.8357,-2.031,-11.4961,-32.487,52.9391,-65.3913
1195,2.2992,-2.1459,-12.9906,-51.687,49.4609,-66.1565
1200,1.6095,-2.874,-13.757,-72.2783,41.9478,-65.8087
1205,1.0346,-3.8704,-13.1055,-90.5043,31.2348,-64.7652
1210,0.1533,-5.5181,-11.7643,-101.5652,20.7304,-62.8174
1215,-1.6095,-7.3192,-9.5034,-103.0957,12.0348,-59.8957
1220,-3.832,-9.5034,-6.6294,-95.513,5.4957,-56.1391
1225,-5.8247,-11.5344,-3.2572,-79.6522,-1.1826,-51.4783
1230,-7.1659,-12.8373,-0.1916,-55.5826,-9.113,-45.7043
1235,-7.7024,-13.5654,1.8394,-25.8783,-18.8522,-39.1652
1240,-7.8173,-12.8373,1.6095,4.6609,-30.6087,-32.7652
1245,-7.2425,-10.9979,1.2263,26.9913,-40.7652,-25.3217
1250,-3.3722,-10.768,0.843,36.313,-48.4174,-17.2522
1255,-1.3029,-10.4998,2.1459,32.9043,-50.7826,-15.7217
1260,-0.1916,-9.7334,3.947,27.9652,-50.4348,-19.1304
1265,0.2299,-9.5034,5.3648,30.1913,-46.9565,-24.487
1270,0.8047,-8.5454,5.2116,37.913,-38.6087,-31.1652
1275,1.5711,-7.2425,4.4835,45.0087,-26.0174,-39.9304
1280,2.4142,-5.5181,3.7554,49.8087,-11.0609,-50.087
1285,3.0656,-4.4068,3.0273,53.0087,4.3826,-59.687
1290,4.2152,-3.8704,2.1076,54.2609,19.4783,-67.3391
1295,5.5564,-3.4871,0.9963,53.4261,32.4174,-73.1826
1300,7.1659,-3.3339,-0.6898,50.5043,40.8348,-78.887
1305,8.2772,-2.7974,-2.6441,46.4696,44.7304,-85.287
1310,8.737,-2.3759,-4.9433,41.113,47.0261,-92.313
1315,8.6221,-2.4525,-6.4761,34.9913,49.5304,-98.2957
1320,8.5071,-3.3722,-7.2425,31.0957,52.2435,-102.8174
1325,8.2389,-4.6751,-7.7407,31.9304,53.4957,-106.5043
1330,7.3575,-6.2462,-7.4725,36.9391,52.1739,-111.513
1335,5.4798,-7.9323,-6.3612,43.8261,49.1826,-116.6609
1340,3.7171,-9.5418,-5.1349,52.8,45.6348,-120.4174
1345,1.6861,-11.2279,-3.5255,64.5565,41.3217,-122.8522
1350,-0.4215,-12.3391,-2.7974,77.913,36.0348,-123.3391
1355,-2.7207,-13.2971,-2.1843,89.7391,30.4696,-120.7652
1360,-4.7517,-13.757,-2.1076,98.0174,26.2261,-115.6174
1365,-6.2462,-13.8336,-2.874,100.1043,24.5565,-107.7565
1370,-7.3958,-13.642,-3.3722,95.5826,26.5043,-97.9478
1375,-8.0856,-13.2588,-3.5255,85.4957,29.9826,-86.5391
1380,-7.9323,-12.9906,-3.3722,72.0,32.3478,-75.687
1385,-6.7827,-12.2242,-3.4105,57.9478,33.5304,-67.5478
1390,-4.9433,-11.4578,-3.1039,45.1478,32.5565,-64.8348
1395,-3.3339,-10.3465,-2.3759,37.9826,30.4,-67.7565
1400,-1.9927,-9.6184,-1.8011,38.5391,29.2174,-73.4609
1405,-1.073,-9.5034,-1.1113,42.5739,29.0087,-79.9304
1410,0.115,-8.6987,-1.1496,47.7217,29.913,-87.0261
1415,1.3029,-8.1239,-0.8814,53.7739,31.5826,-94.6783
1420,2.4142,-7.5491,-0.4598,60.8,32.6957,-102.2609
1425,3.2189,-7.0509,-0.5365,68.5217,33.4609,-109.4957
1430,3.6787,-6.4378,-1.1879,74.2957,33.9478,-115.2696
1435,3.8704,-5.7097,-1.4179,76.5217,35.6174,-119.513
1440,4.2919,-5.4032,-0.9197,75.4783,38.0522,-122.713
1445,4.7134,-5.5181,-0.7281,73.0435,40.6261,-124.8
1450,5.2116,-5.8247,0.1533,71.9304,45.2174,-125.1478
1455,5.0583,-6.8977,2.0693,75.0609,53.4957,-124.0348
1460,4.7134,-8.3538,3.4488,83.8261,60.7304,-122.5043
1465,5.5181,-10.6914,5.3648,94.2609,62.0522,-121.3217
1470,7.8557,-14.3318,7.3192,109.5652,59.2696,-123.1304
1475,7.4341,-20.0032,12.4924,139.1304,52.4522,-129.8783
1480,14.3318,-32.2657,19.8882,195.4087,36.6609,-145.6696
1485,28.7019,-49.8164,27.4757,282.9913,7.513,-172.1043
1490,45.9461,-64.1482,30.7329,396.1739,-28.1043,-228.8696
1495,67.7503,-71.8506,18.2021,487.0261,-44.5217,-315.5478
1500,92.0071,-65.5277,-14.2935,447.3043,-15.6522,-407.4435
1505,94.8428,-48.5902,-30.9628,230.4,-2.6435,-413.9826
1510,76.5257,-41.1177,-15.2132,13.8435,-1.6,-309.3565
1515,42.7271,-28.3187,-7.2042,-25.8087,16.9043,-215.0957
1520,14.6384,-19.0452,0.3066,13.0783,33.5304,-130.6435
1525,-1.2646,-14.9066,7.9323,61.9826,38.3304,-61.287
1530,-8.1622,-8.5071,14.4468,102.1217,37.5652,-35.8261
1535,-12.3775,-4.0236,15.2898,127.7913,21.7043,-36.7304
1540,-14.715,0.9963,12.8373,158.887,-22.2609,-66.087
1545,-13.3355,8.737,7.2425,196.4522,-73.2522,-98.9913
1550,-11.8793,13.2971,8.8903,212.1043,-102.887,-121.8783
1555,-8.8137,14.9832,2.3375,214.6783,-124.7304,-144.9043
1560,-5.1732,14.6767,-1.4562,188.4522,-130.0174,-165.2174
1565,0.5748,12.4541,-4.1386,146.3652,-119.0957,-179.1304
1570,8.3155,8.967,-2.031,95.6522,-98.713,-186.7826
1575,11.8027,5.4032,0.3449,55.0261,-90.5739,-200.1391
1580,12.6457,1.8394,0.7664,25.3913,-89.9478,-208.9043
1585,13.4888,-1.5711,4.2919,-8.8348,-82.9217,-205.8435
1590,14.2552,-4.5218,6.821,-37.2174,-72.1391,-203.3391
1595,15.3664,-7.0126,7.6641,-56.2783,-64.8348,-203.5478
1600,18.1255,-8.5838,6.821,-70.5391,-62.887,-206.4696
1605,19.0452,-8.967,4.4835,-84.3826,-68.4522,-212.7304
1610,17.0909,-7.6257,3.0273,-100.2435,-78.4,-217.113
1615,15.9029,-6.936,2.4142,-113.1826,-84.1739,-215.3043
1620,14.7916,-6.7827,2.2609,-117.287,-83.7565,-205.7739
1625,13.2588,-6.4378,2.1843,-111.513,-80.0,-192.8348
1630,11.4195,-5.9013,2.2226,-97.8783,-74.3652,-177.3913
1635,8.8903,-4.6368,1.4562,-81.1826,-69.7739,-160.8348
1640,7.2809,-3.2955,1.4945,-66.9913,-66.9217,-142.2609
1645,5.7097,-2.1843,2.1459,-56.7652,-67.3391,-125.4261
1650,4.3685,-1.3029,2.2992,-47.9304,-69.4261,-109.5652
1655,4.062,-0.2299,1.8394,-42.713,-70.4696,-93.1478
1660,4.1386,0.9963,2.2226,-42.7826,-70.6783,-78.1913
1665,4.062,2.2226,1.9543,-43.6174,-70.9565,-63.7913
1670,4.5984,3.1423,1.5328,-45.8435,-69.3565,-49.6
1675,5.3648,3.7554,1.3412,-50.8522,-66.087,-35.7565
1680,7.3958,3.3339,1.3795,-58.3652,-62.4696,-23.1652
1685,8.3921,2.7974,1.7627,-67.2,-58.4348,-13.6348
1690,9.695,1.9543,2.6058,-74.7826,-55.2348,-7.3739
1695,10.9596,1.073,3.2955,-76.8,-54.2609,-3.3391
1700,12.4541,0.115,3.7171,-72.3478,-54.9565,-1.4609
1705,13.9103,-0.4598,3.7937,-61.7739,-56.6957,-3.1304
1710,14.6767,-0.9963,3.4105,-45.0087,-58.6435,-7.3043
1715,14.9066,-1.5711,2.4142,-26.0174,-60.1739,-12.5217
1720,14.6384,-1.6095,1.9927,-10.7826,-59.687,-17.6
1725,14.1785,-1.4945,1.6861,0.6261,-55.8609,-22.5391
1730,13.4504,-0.8814,1.4945,8.5565,-49.6696,-26.5043
1735,12.6074,-0.115,1.4179,13.4261,-42.5043,-28.9391
1740,11.6111,0.2682,1.5328,14.887,-35.6174,-30.6087
1745,10.5764,0.7281,1.4562,13.9826,-28.9391,-31.4435
1750,9.8483,0.9197,1.4179,11.6174,-22.4696,-31.0261
1755,9.3885,1.2646,1.0346,8.0696,-17.1826,-28.7304
1760,8.852,0.9963,0.8047,3.9652,-12.313,-24.5565
1765,8.3155,1.6478,0.5748,0.0696,-7.2348,-19.1304
1770,7.8557,1.1496,0.3066,-3.0609,-3.0609,-12.2435
1775,7.3958,0.8047,0.5365,-6.2609,0.1391,-5.7739
1780,7.0509,0.4982,1.0346,-9.0435,1.3913,0.0696
1785,6.7827,0.3449,1.2263,-9.8087,1.6696,5.8435
1790,6.4378,0.3066,1.7627,-9.6696,0.6957,10.713
1795,6.1696,0.4982,2.3759,-8.487,-1.4609,14.4
1800,5.8247,0.4982,2.7591,-5.7043,-5.0783,16.9739
1805,5.4798,0.6514,2.7591,-2.2957,-9.6,18.713
1810,5.6331,0.6131,2.6058,1.6696,-13.8435,19.5478
1815,6.1313,0.6514,2.2992,6.6783,-17.5304,19.0609
1820,6.3995,0.6131,1.7627,11.8261,-19.8261,18.0174
1825,6.7827,0.7281,1.3795,15.4435,-20.1739,16.8348
1830,7.1276,0.8814,0.9963,17.1826,-18.8522,14.5391
1835,7.3575,0.9963,0.9197,17.0435,-15.7217,11.8261
1840,7.5108,1.5711,1.2646,15.513,-11.687,8.9739
1845,7.6257,1.916,1.1879,12.5217,-8.487,5.0783
1850,7.894,2.1076,1.3795,9.3217,-6.4696,1.1826
1855,7.894,2.1843,1.4562,7.8609,-5.913,-3.2696
1860,8.1622,1.916,1.3029,8.2783,-6.0522,-6.1913
1865,8.2389,1.5711,1.3029,9.4609,-7.0261,-7.2348
1870,8.6604,0.843,1.3029,10.713,-8.4174,-6.3304
1875,8.6221,0.4982,1.1496,11.5478,-9.7391,-3.1304
1880,8.967,0.2299,1.073,11.9652,-11.1304,1.9478
1885,9.3885,-0.3066,1.1879,12.313,-12.8696,7.513
1890,9.81,-0.6898,0.958,12.8696,-14.9565,13.0087
1895,10.0016,-0.9197,0.9963,13.4261,-17.6696,18.2957
1900,10.1932,-1.3029,0.9963,13.7739,-21.3565,22.8174
1905,10.0782,-1.2646,0.958,14.0522,-26.2957,26.713
1910,10.2315,-1.1879,1.0346,14.1217,-31.3739,29.6348
1915,10.1549,-1.073,0.843,14.1217,-35.8957,31.7913
1920,10.1549,-1.0346,0.843,14.1217,-39.2348,33.3913
1925,10.1932,-1.1113,0.8047,14.4,-41.8087,34.3652
1930,10.1932,-1.0346,0.6898,15.5826,-43.4783,34.9913
1935,9.9633,-1.073,0.5748,17.113,-44.7304,35.4783
1940,9.9633,-1.073,0.5365,17.8783,-45.5652,35.8957
1945,10.1166,-1.1496,0.3449,18.087,-45.4261,36.5217
1950,10.4998,-1.2646,0.0766,17.8087,-44.8,36.7304
1955,10.768,-1.7627,-0.1916,17.5304,-43.687,36.9391
1960,11.1512,-2.1459,-0.2299,16.6261,-41.9478,37.1478
1965,11.6111,-2.3759,-0.6514,14.4696,-39.0957,37.0087
1970,11.9559,-2.7591,-0.9963,11.0609,-35.2,36.9391
1975,12.4158,-3.3339,-0.6131,6.9565,-30.7478,36.9391
1980,10.9213,-3.3722,-0.958,3.0609,-26.713,37.3565
1985,10.8446,-3.0273,-0.843,-1.6696,-25.113,37.0087
1990,11.2662,-3.0273,-0.7281,-4.1043,-23.513,36.3826
1995,11.3811,-2.9123,-0.5365,-4.8,-21.913,35.5478
2000,11.0363,-2.8357,-0.4215,-4.1739,-19.687,34.9913
2005,10.8446,-2.7207,-0.1533,-3.4087,-17.5304,34.7826
2010,10.9979,-2.6824,-0.4215,-2.3652,-15.0957,34.5739
2015,11.0746,-2.4908,-0.5365,-1.4609,-12.5913,34.713
2020,11.2662,-2.4142,-0.5748,-0.5565,-10.1565,34.2957
2025,10.7297,-2.4908,-0.7664,0.2087,-8.6261,33.3217
2030,10.883,-2.7974,-0.4598,0.9739,-8.7652,31.9304
2035,10.2698,-3.1039,-0.6514,2.2957,-9.113,30.5391
2040,10.1166,-3.2189,-0.8047,3.687,-9.6696,29.7043
2045,10.7297,-3.6021,-0.843,5.0783,-9.5304,29.4261
2050,10.3848,-3.7171,-1.3029,7.1652,-8.2783,29.1478
2055,9.695,-3.7171,-1.8394,7.8609,-7.8609,28.6609
2060,9.5801,-3.9087,-2.031,7.2348,-8.9043,26.6435
2065,9.4651,-4.2152,-2.031,6.4696,-10.4348,23.7217
2070,8.7754,-4.7517,-1.8777,5.6348,-12.1739,21.0087
2075,7.9323,-5.2499,-1.3795,5.4957,-13.7043,19.687
2080,7.4725,-5.5181,-1.1496,6.1913,-14.0522,19.4783
2085,7.2042,-5.748,-1.073,7.5826,-12.8696,19.8957
2090,7.7407,-5.1732,-0.9197,9.6696,-10.2261,20.5217
2095,8.0856,-4.6368,-0.7664,12.5217,-6.2609,21.5652
2100,8.737,-4.062,-0.7664,15.7217,-1.0435,22.1913
2105,9.3502,-3.5255,-0.9197,18.0174,4.5217,21.9826
2110,10.0782,-2.9507,-0.8814,18.9217,10.2957,20.8696
2115,10.768,-2.4525,-0.8814,18.713,15.4435,18.5739
2120,11.3811,-2.1459,-0.8047,17.113,19.687,15.5826
2125,11.841,-2.031,-0.7664,14.9565,22.887,12.1739
2130,12.3775,-2.1076,-0.7664,11.2,24.9043,8.6957
2135,12.4158,-2.0693,-0.8047,6.6087,26.087,5.4261
2140,12.4541,-2.2992,-0.7281,1.6,26.713,2.2261
2145,12.1475,-2.6441,-0.6514,-3.687,26.2957,-0.6957
2150,11.8027,-2.874,-0.6898,-8.6957,25.0435,-3.2
2155,11.1512,-3.2189,-0.6514,-13.0783,23.4435,-5.0087
2160,10.3848,-3.5638,-0.5748,-16.2783,21.8435,-5.8435
2165,9.8483,-3.9087,-0.4598,-17.1826,20.8696,-5.1478
2170,9.1202,-4.1386,-0.3449,-16.3478,20.2435,-3.4783
2175,8.4305,-4.4068,-0.2682,-14.1913,20.0348,-1.1826
2180,7.9706,-4.6368,-0.3066,-11.2,19.8957,1.4609
2185,7.6257,-4.5601,-0.2299,-7.513,19.6174,3.8957
2190,7.4725,-4.6368,-0.2299,-3.4783,19.0609,6.1217
2195,7.2425,-4.7134,-0.3066,0.487,17.8087,8.1391
2200,7.2425,-4.6368,-0.1916,4.1739,16.487,9.9478
2205,7.1659,-4.5218,-0.0383,7.3739,14.6087,11.4783
2210,7.4341,-4.3685,0.1533,9.8783,12.1739,12.8
2215,7.2809,-4.3685,0.3066,11.8957,10.0174,13.4957
2220,7.5108,-3.9853,0.2682,13.7739,8.0696,13.7043
2225,7.7024,-3.8704,0.3832,15.0261,6.4696,13.6348
2230,7.8557,-3.6404,0.3066,15.7217,5.7043,13.6348
2235,7.8557,-3.4488,0.4982,15.3739,5.4957,13.287
2240,8.0473,-3.1423,0.3449,13.9826,5.5652,13.0783
2245,8.2772,-3.0656,0.3066,11.8957,6.1913,12.8696
2250,8.3155,-3.1039,0.4215,9.113,6.9565,12.3826
2255,8.2772,-3.0273,0.5748,6.0522,7.8609,12.1739
2260,8.3921,-3.1806,0.5748,2.8522,8.6957,12.5913
2265,8.5454,-3.4488,0.6898,0.0696,9.7391,13.287
2270,8.5838,-3.6404,0.6898,-1.7391,10.713,14.2609
2275,8.6604,-3.7937,0.6514,-2.1565,11.4087,15.3739
2280,8.6604,-4.0236,0.5748,-1.8783,11.9652,16.8348
2285,8.8903,-4.062,0.6514,-1.2522,12.4522,18.3652
2290,8.967,-4.1769,0.6131,-0.487,12.313,19.8261
2295,8.9286,-4.2919,0.6131,-0.2783,11.8261,21.0783
2300,9.0053,-4.4068,0.5365,-0.487,10.7826,22.2609
2305,9.1586,-4.4068,0.4982,-1.1826,9.113,22.6783
2310,9.1202,-4.4835,0.5365,-2.087,7.1652,22.8174
2315,9.2352,-4.5984,0.5365,-3.1304,5.287,22.3304
2320,9.1969,-4.5601,0.4982,-4.5217,3.0609,21.6348
2325,9.3502,-4.5218,0.4598,-5.8435,0.8348,20.8
2330,9.1586,-4.5984,0.4982,-7.1652,-1.0435,19.8261
2335,9.4268,-4.5601,0.4598,-8.2087,-2.713,18.8522
2340,9.3885,-4.5984,0.0766,-8.9739,-3.7565,17.7391
2345,9.4268,-4.6751,-0.0383,-9.7391,-4.2435,16.5565
2350,9.5801,-4.6368,-0.1533,-10.5739,-3.9652,15.2348
2355,9.3502,-4.4835,-0.3832,-11.1304,-3.1304,13.9826
2360,9.1969,-4.4452,-0.4982,-11.9652,-1.8783,12.9391
2365,9.1202,-4.4835,-0.5748,-13.1478,-0.2087,11.6174
2370,9.2352,-4.4068,-0.6131,-14.4696,1.5304,10.713
2375,9.1969,-4.5601,-0.5365,-15.3043,3.2696,9.7391
2380,9.1202,-4.4835,-0.6131,-15.3739,4.9391,8.8348
2385,9.1586,-4.3302,-0.5748,-14.8174,6.6087,8.2783
2390,9.3118,-4.4452,-0.6514,-13.6348,8.2087,7.7217
2395,9.2735,-4.5218,-0.6514,-12.1739,9.5304,7.3739
2400,9.5801,-4.5218,-0.7664,-10.7826,10.4348,6.887
2405,9.6567,-4.4068,-0.6898,-9.5304,11.0609,6.1217
2410,9.6184,-4.1003,-0.843,-8.2087,11.3391,5.3565
2415,9.5801,-4.3302,-0.8047,-7.2348,11.2696,4.5217
2420,9.4651,-4.3685,-0.7281,-6.5391,10.9217,3.4087
2425,9.2735,-4.3302,-0.8814,-5.913,10.3652,2.4348
2430,9.1586,-4.5218,-0.6898,-5.6348,9.9478,1.8783
2435,9.0053,-4.4835,-0.7664,-5.0783,9.8087,1.1826
2440,8.6604,-4.5218,-0.6514,-4.5913,10.1565,0.6261
2445,8.4688,-4.5984,-0.6514,-3.8261,10.7826,0.2783
2450,8.3155,-4.7517,-0.6131,-3.0609,11.8261,-0.2783
2455,8.0089,-4.7517,-0.6131,-2.2957,13.3565,-0.9043
2460,7.9706,-4.8667,-0.3832,-1.6,15.513,-1.1826
2465,7.9706,-4.905,-0.1533,-0.9043,17.8087,-1.3217
2470,7.7407,-4.7517,-0.2299,-0.0696,20.0348,-1.1826
2475,7.7024,-4.7517,-0.0383,1.113,21.8435,-0.9739
2480,7.6641,-4.6751,0.115,2.0174,23.0261,-0.9739
2485,7.8173,-4.5984,0.3066,2.7826,23.9304,-0.8348
2490,7.7407,-4.5218,0.4598,3.4087,24.2783,-0.5565
2495,8.0089,-4.4452,0.5748,3.9652,24.1391,-0.3478
2500,8.0856,-4.4452,0.843,4.1043,23.513,0.0696
2505,8.1239,-4.4068,0.958,4.313,22.4696,0.4174
2510,8.2005,-4.4452,0.8814,4.5913,21.3565,0.9739
2515,8.2772,-4.4068,1.1113,4.9391,19.8957,1.2522
2520,8.4305,-4.5218,1.073,5.5652,18.2957,1.7391
2525,8.3538,-4.5218,1.2646,6.2609,16.3478,2.2261
2530,8.5071,-4.5601,1.1113,6.6087,14.1217,2.2957
2535,8.5838,-4.5218,1.2646,6.9565,12.1739,2.5043
2540,8.5454,-4.4068,1.1496,7.6522,10.2957,2.8522
2545,8.6604,-4.4452,1.3412,8.3478,8.5565,3.2696
2550,8.8137,-4.4068,1.3795,8.9739,7.0261,3.8261
2555,9.0053,-4.5218,1.0346,9.4609,5.287,4.1043
2560,8.9286,-4.2919,0.9963,9.4609,3.5478,4.2435
2565,9.2735,-4.4068,0.8814,9.1826,2.087,4.5217
2570,9.0819,-4.2536,0.7664,8.6957,0.2783,4.5913
2575,9.0436,-4.1003,0.6131,7.8609,-1.4609,4.4522
2580,9.1202,-4.1769,0.6131,6.5391,-3.0609,4.2435
2585,9.0819,-4.1386,0.4598,5.287,-4.3826,4.0348
2590,9.1202,-4.2536,0.3832,4.1043,-5.3565,3.8261
2595,9.1586,-4.4068,0.2299,3.0609,-5.9826,3.7565
2600,9.0819,-4.4068,0.3832,2.1565,-6.3304,3.687
2605,8.9286,-4.4068,0.3832,1.5304,-6.1913,3.5478
2610,8.9286,-4.5984,0.2299,1.113,-6.1913,3.4087
2615,8.7754,-4.5984,0.115,0.9739,-6.1217,3.3391
2620,8.6604,-4.6751,0.1916,1.0435,-6.0522,3.2696
2625,8.6987,-4.6368,0.115,1.4609,-6.1217,3.1304
2630,8.5071,-4.6368,0.0766,2.087,-6.0522,3.2696
2635,8.3921,-4.5984,0.2682,2.6435,-6.0522,3.3391
2640,8.4688,-4.5218,0.115,3.4087,-5.9826,3.4087
2645,8.4305,-4.5601,0.0766,4.0348,-5.913,3.6174
2650,8.4688,-4.4835,0.1916,4.8,-5.6348,3.8957
2655,8.5454,-4.4452,0.0383,5.4957,-5.287,4.1043
2660,8.5454,-4.2536,0.0,6.2609,-5.0087,4.1043
2665,8.6221,-4.1769,-0.0766,6.7478,-4.3826,3.9652
2670,8.7754,-4.1386,-0.1916,7.1652,-3.8957,3.687
2675,8.8137,-4.1003,-0.0766,7.0957,-3.2696,3.2696
2680,8.8137,-3.9853,-0.1533,6.887,-2.8522,2.713
2685,9.0436,-3.9853,-0.0766,6.3304,-2.1565,2.087
2690,8.967,-4.0236,-0.1916,5.287,-1.6,1.3217
2695,9.0053,-4.0236,-0.2682,4.2435,-0.9043,0.5565
2700,8.852,-4.1386,-0.115,3.2696,-0.1391,-0.3478
2705,8.967,-4.1769,-0.1533,2.5043,0.487,-1.113
2710,9.0436,-4.1003,-0.1533,1.8783,1.2522,-2.0174
2715,9.0819,-4.1769,-0.1916,1.4609,2.087,-2.7826
2720,9.1969,-4.2536,-0.3449,0.9739,2.9913,-3.4087
2725,9.0053,-4.2536,-0.1533,0.3478,3.7565,-4.1043
2730,8.967,-4.1769,-0.2299,-0.2783,4.313,-4.7304
2735,9.0436,-4.2152,-0.1916,-0.9043,4.8696,-5.3565
2740,9.0436,-4.2919,0.0383,-1.2522,5.2174,-5.8435
2745,8.9286,-4.2152,0.115,-1.4609,5.3565,-6.1217
2750,8.9286,-4.2152,0.0766,-1.3217,5.4261,-6.1913
2755,8.9286,-4.4068,-0.0766,-0.6957,5.6348,-5.8435
2760,8.8137,-4.2919,0.0383,-0.4174,5.6348,-5.9826
2765,8.7754,-4.2536,0.0383,-0.3478,5.6348,-6.1217
2770,8.737,-4.2536,0.0383,-0.1391,5.7043,-5.913
2775,8.6987,-4.2536,0.0,0.2087,5.8435,-5.7043
2780,8.737,-4.2536,0.115,0.487,5.913,-5.3565
2785,8.6987,-4.2152,0.1533,0.5565,5.8435,-5.0087
2790,8.8137,-4.2152,0.3066,0.6261,5.7043,-4.8
2795,8.737,-4.1769,0.2682,0.6957,5.5652,-4.5217
2800,8.737,-4.062,0.3066,0.6957,5.3565,-4.5217
2805,8.6604,-4.062,0.2682,0.9043,4.9391,-4.4522
2810,8.6987,-4.1003,0.3832,0.8348,4.5913,-4.2435
2815,8.8137,-3.9853,0.3832,0.8348,4.1043,-4.1043
2820,8.8137,-3.9853,0.1916,0.6957,3.687,-3.9652
2825,8.8137,-4.0236,0.2299,0.5565,3.1304,-3.8261
2830,8.8903,-3.8704,0.2299,0.5565,2.5739,-3.687
2835,8.8903,-4.062,0.3832,0.4174,2.2261,-3.4783
2840,8.8903,-4.062,0.2299,0.2783,1.8087,-3.3391
2845,8.967,-4.062,0.2299,0.0696,1.6,-2.9913
2850,8.7754,-4.062,0.0766,-0.1391,1.4609,-2.7826
2855,8.852,-4.062,0.1533,-0.3478,1.2522,-2.5739
2860,8.9286,-4.2152,0.0766,-0.7652,1.113,-2.2261
2865,8.852,-4.1769,0.2682,-1.0435,0.9739,-2.1565
2870,8.852,-4.1769,0.2299,-1.3913,0.9043,-1.9478
2875,8.737,-4.1003,0.1533,-1.7391,0.8348,-1.4609
2880,8.8903,-4.2152,0.2682,-1.9478,0.9739,-1.113
2885,8.8137,-4.1769,0.2682,-2.087,0.9043,-0.9043
2890,8.9286,-4.2152,0.3449,-1.9478,0.8348,-0.6957
2895,8.7754,-4.2919,0.2682,-1.7391,0.5565,-0.4174
2900,8.6987,-4.2919,0.1533,-1.6696,0.2783,-0.2783
2905,8.9286,-4.2536,0.2682,-1.4609,0.0,-0.3478
2910,8.852,-4.2152,0.3449,-1.2522,-0.2783,-0.2087
2915,8.8903,-4.1769,0.2299,-1.3217,-0.5565,-0.2783
2920,8.8903,-4.062,0.1916,-1.1826,-0.6957,-0.487
2925,8.852,-4.1003,0.3066,-1.2522,-0.7652,-0.4174
2930,8.852,-4.1003,0.115,-0.9739,-0.7652,-0.5565
2935,9.0053,-4.2152,0.1916,-0.8348,-0.8348,-0.6957
2940,8.9286,-4.1386,0.1533,-0.5565,-0.8348,-0.8348
2945,8.967,-4.1003,0.0766,-0.4174,-0.6957,-0.8348
2950,8.8903,-4.1386,-0.0383,-0.2783,-0.487,-0.9043
2955,8.967,-4.1769,-0.115,-0.2783,-0.2783,-1.1826
2960,8.8903,-4.062,0.0383,-0.487,0.0696,-1.3217
2965,8.9286,-4.0236,-0.0766,-0.6957,0.3478,-1.3217
2970,8.8903,-4.0236,-0.1533,-1.113,0.5565,-1.4609
2975,8.967,-4.0236,-0.0383,-1.4609,0.8348,-1.4609
2980,9.0436,-4.1003,-0.0766,-1.9478,1.3913,-1.4609
2985,9.0053,-4.1003,-0.115,-2.2261,1.7391,-1.5304
2990,9.1202,-4.1769,-0.1916,-2.5043,2.2957,-1.6
2995,8.967,-4.2536,-0.3066,-2.7826,2.713,-1.7391
