timestamp,accX,accY,accZ,gyroX,gyroY,gyroZ
0,-0.8814,-8.2772,-6.0929,-27.6174,39.3043,8.1391
5,-0.6898,-8.4688,-6.0163,-27.0609,34.9217,9.4609
10,-0.6131,-8.5071,-6.0163,-26.9217,31.6522,10.5739
15,-0.6898,-8.5071,-5.863,-26.713,28.9391,11.6174
20,-0.6131,-8.5071,-6.0929,-26.087,26.3652,12.1739
25,-0.4982,-8.4688,-6.0929,-25.2522,24.0696,12.4522
30,-0.4982,-8.4688,-6.0929,-23.8609,22.3304,12.3826
35,-0.4598,-8.4688,-6.0546,-22.6087,21.4957,12.1739
40,-0.3066,-8.4688,-6.2079,-21.6348,21.287,11.6174
45,0.0,-8.4305,-6.3229,-21.4957,21.5652,11.0609
50,0.1533,-8.5071,-6.2079,-22.4696,22.1217,10.3652
55,0.3066,-8.6221,-6.2079,-23.5826,22.8174,9.2522
60,0.3066,-8.737,-6.1313,-24.2783,23.0261,8.0696
65,0.4215,-8.8137,-6.2462,-24.5565,22.8174,6.887
70,0.4598,-8.7754,-6.2462,-24.487,22.4,5.7043
75,0.6131,-8.6987,-6.2079,-24.2783,21.7739,4.5217
80,0.6514,-8.737,-6.1313,-23.7913,21.0783,3.1304
85,0.843,-8.737,-6.2845,-22.6783,20.2435,1.8783
90,0.6131,-8.6221,-6.3612,-21.287,19.8957,0.5565
95,0.5748,-8.5838,-6.4378,-20.3826,19.8957,-0.3478
100,0.4598,-8.4688,-6.4761,-19.7565,20.1739,-1.113
105,0.5365,-8.3921,-6.5528,-19.5478,20.6609,-1.7391
110,0.4982,-8.3155,-6.6294,-19.687,21.2174,-2.2957
115,0.4598,-8.1239,-6.6294,-19.9652,21.7739,-2.6435
120,0.3066,-8.0856,-6.4761,-20.5217,22.4696,-2.9913
125,0.5365,-8.0089,-6.4761,-20.9391,23.0261,-3.2696
130,0.4598,-8.0089,-6.4378,-21.4957,23.5826,-3.4783
135,0.5365,-7.8557,-6.3229,-21.913,24.2087,-3.4783
140,0.4598,-7.779,-6.4761,-22.3304,24.8348,-3.3391
145,0.4598,-7.8173,-6.3995,-22.7478,25.1826,-3.0609
150,0.4215,-7.7024,-6.2845,-23.0957,25.113,-2.9913
155,0.4982,-7.5874,-6.4761,-23.3739,24.9739,-2.9217
160,0.4598,-7.6257,-6.5911,-23.3043,24.7652,-2.7826
165,0.4598,-7.5108,-6.7061,-23.2348,24.8348,-2.5043
170,0.6131,-7.4725,-6.5528,-23.4435,24.9739,-2.2957
175,0.6514,-7.5108,-6.5145,-23.8609,24.8348,-2.087
180,0.7281,-7.3192,-6.5528,-24.0,24.4174,-2.3652
185,0.7281,-7.2809,-6.2845,-24.0696,23.9304,-2.8522
190,0.7664,-7.4341,-6.2079,-24.0,23.0957,-3.6174
195,0.7281,-7.5491,-6.3229,-23.513,22.6783,-4.7304
200,0.8047,-7.5491,-6.3229,-23.3043,22.887,-5.7043
205,0.8047,-7.7024,-6.2079,-23.3739,23.5826,-6.6087
210,0.8047,-7.779,-6.3612,-23.8609,25.0435,-7.3739
215,1.073,-7.894,-6.5528,-24.487,26.8522,-7.9304
220,1.2263,-8.0089,-6.8977,-25.3913,29.0783,-8.2783
225,1.4179,-8.0089,-6.7061,-26.4348,31.4435,-8.487
230,1.5711,-8.0473,-6.7061,-27.4783,33.7391,-8.1391
235,1.6478,-7.9706,-6.7827,-28.4522,35.7565,-7.6522
240,1.5328,-8.0856,-6.7444,-29.0783,37.4957,-7.3739
245,1.3029,-8.1239,-6.8977,-29.4957,38.887,-7.3739
250,1.3029,-8.1239,-6.6294,-29.6348,39.7217,-8.0
255,1.1879,-8.2772,-6.3229,-29.3565,40.0696,-9.2522
260,1.0346,-8.3921,-6.3995,-28.9391,40.6261,-11.0609
265,1.0346,-8.737,-6.1696,-28.8,41.6,-13.3565
270,0.8047,-8.7754,-6.2079,-29.2174,43.1304,-16.0
275,0.4982,-8.737,-6.3612,-30.3304,45.4261,-18.9217
280,0.5748,-8.8903,-6.7827,-32.3478,48.1391,-21.4261
285,0.3066,-8.6987,-6.9743,-36.1739,51.3391,-23.3043
290,0.2299,-8.6221,-7.0126,-41.3913,54.9565,-24.0696
295,0.1916,-8.5838,-7.0893,-46.8174,58.0174,-23.8609
300,0.1916,-8.5838,-7.1659,-50.9913,59.4783,-22.7478
305,0.2299,-8.5454,-7.3192,-52.9391,59.4783,-19.7565
310,0.1916,-8.7754,-7.2042,-52.313,58.087,-16.2087
315,0.2299,-8.9286,-7.2809,-48.2783,53.8435,-12.8
320,0.1916,-8.8137,-7.3958,-41.4609,46.0522,-10.1565
325,0.4215,-8.737,-7.5108,-32.7652,36.3826,-7.3739
330,0.4982,-8.5071,-7.8557,-23.1652,26.0174,-4.5217
335,0.5748,-8.1239,-8.0473,-13.4957,13.7043,-2.3652
340,0.6131,-7.7407,-8.1239,-5.4261,5.7739,-0.4174
345,0.5748,-7.2425,-7.9323,0.7652,-0.1391,1.2522
350,0.5748,-7.0126,-7.8173,5.287,-4.2435,2.6435
355,0.6131,-6.6677,-7.6257,7.8609,-6.8174,3.5478
360,0.6514,-6.2845,-7.3192,8.6957,-8.0696,4.0348
365,0.7664,-6.3612,-7.1276,8.0696,-8.2087,4.1739
370,0.843,-6.3612,-6.8593,6.5391,-7.3739,4.0348
375,0.9963,-6.4761,-6.936,4.1739,-5.8435,3.5478
380,1.1113,-6.4761,-6.7827,1.2522,-4.0348,2.6435
385,1.1879,-6.5528,-6.7827,-2.0174,-2.2261,1.3217
390,1.3412,-6.6677,-6.7444,-5.5652,-0.3478,-0.3478
395,1.4562,-6.821,-6.6294,-8.9043,1.4609,-2.1565
400,1.4179,-6.9743,-6.6677,-12.1739,3.4783,-4.0348
405,1.5711,-7.2809,-6.6294,-14.887,5.6348,-5.8435
410,1.3795,-7.5108,-6.6677,-16.7652,7.513,-7.4435
415,1.5328,-7.8173,-6.4761,-18.2261,9.2522,-8.6957
420,1.6095,-8.2389,-6.4378,-18.9913,10.713,-9.7391
425,1.4945,-8.3538,-6.5528,-19.1304,11.8261,-10.6435
430,1.4562,-8.5454,-6.6294,-18.9913,12.8696,-11.4783
435,1.3412,-8.737,-6.6677,-18.2957,13.4261,-12.3826
440,1.1496,-8.6604,-6.8593,-16.9043,13.4957,-13.1478
445,1.1113,-8.6987,-6.8977,-15.0957,13.6348,-13.9826
450,1.073,-8.5838,-7.1276,-13.1478,13.6348,-14.7478
455,1.1113,-8.4305,-7.0893,-10.713,13.9826,-15.5826
460,0.9963,-8.2772,-7.3192,-8.2087,14.4,-16.3478
465,0.9197,-8.1239,-7.2042,-5.7043,15.1652,-16.9739
470,0.8047,-8.0089,-7.3192,-3.5478,16.0,-17.5304
475,0.9963,-8.0856,-7.2425,-1.3913,16.8348,-17.9478
480,0.8047,-7.9323,-7.4341,0.1391,17.8783,-18.2957
485,0.9197,-7.9706,-7.3575,1.113,18.7826,-18.6435
490,0.9963,-7.9706,-7.3192,1.6696,19.4783,-18.9913
495,0.8814,-7.6641,-7.2809,2.087,19.8261,-19.3391
500,0.8814,-7.7024,-7.2425,2.2261,20.1739,-19.8957
505,0.9197,-8.0856,-6.821,1.9478,20.5217,-20.4522
510,0.8814,-7.5108,-7.1659,1.6696,20.8,-20.8
515,1.1113,-7.5491,-6.9743,1.3217,20.9391,-21.1478
520,0.9963,-7.5491,-7.0893,0.7652,20.8696,-21.287
525,0.9197,-7.5108,-6.8977,0.3478,20.6609,-21.1478
530,0.7664,-7.4725,-6.8977,0.0696,19.8957,-20.8696
535,0.7664,-7.4725,-6.7061,0.0696,18.9217,-20.313
540,0.8814,-7.3958,-6.5911,0.2087,17.6696,-19.7565
545,0.9197,-7.3575,-6.4761,0.1391,16.4174,-19.1304
550,0.8814,-7.3575,-6.5911,0.2087,14.9565,-18.2261
555,0.8047,-7.2809,-6.5145,-0.0696,13.3565,-17.1826
560,0.4215,-7.4725,-6.2079,-0.5565,12.0348,-16.0696
565,0.9963,-7.1276,-6.4761,-1.3217,10.8522,-14.7478
570,0.958,-7.1276,-6.5145,-2.1565,10.0174,-13.6348
575,0.958,-7.0893,-6.5145,-3.0609,9.3913,-12.2435
580,1.073,-7.1276,-6.5145,-4.313,9.0435,-10.9913
585,1.073,-7.0893,-6.3995,-5.7043,8.9739,-9.7391
590,1.1113,-7.3192,-6.5911,-7.3043,9.3217,-8.7652
595,1.0346,-7.2809,-6.6294,-8.6261,10.2957,-8.0696
600,0.9963,-7.2042,-6.7444,-10.087,11.4087,-7.3739
605,1.2646,-7.2042,-6.8977,-11.4783,12.9391,-7.0261
610,1.2263,-7.1276,-6.7444,-12.8,14.6087,-6.6783
615,1.3795,-6.8977,-7.7024,-14.4,16.2783,-6.1913
620,1.3412,-7.0126,-7.1659,-16.2087,18.2261,-5.7043
625,1.4945,-7.0126,-7.2809,-17.8783,20.2435,-5.0087
630,1.5711,-7.1276,-7.2042,-19.4087,22.1217,-4.4522
635,1.5328,-7.1276,-7.0893,-20.2435,23.8609,-3.8957
640,1.6095,-7.3192,-6.9743,-20.8,25.0435,-3.4087
645,1.6478,-7.5491,-6.8977,-21.1478,26.087,-2.6435
650,1.6478,-7.6257,-6.9743,-21.0783,26.5739,-2.0174
655,1.6478,-7.779,-6.9743,-20.5217,26.713,-1.3217
660,1.6095,-7.8557,-6.821,-19.687,26.713,-0.7652
665,2.1076,-7.8173,-6.821,-18.4348,26.4348,0.0696
670,1.8011,-7.9706,-7.0509,-17.2522,26.1565,1.113
675,1.8394,-7.9706,-7.0893,-15.7217,26.0174,2.2261
680,1.8394,-7.894,-7.0509,-14.1217,26.0174,3.4783
685,1.9543,-7.8557,-7.0893,-12.9391,26.3652,4.8696
690,1.9927,-7.779,-7.0893,-11.7565,27.0609,6.3304
695,2.0693,-7.6641,-7.2042,-10.6435,27.9652,7.8609
700,2.0693,-7.5108,-7.0509,-9.4609,29.2174,9.3913
705,2.031,-7.3192,-7.0126,-8.4174,30.3304,10.713
710,2.2609,-7.3192,-6.8593,-7.1652,31.513,11.9652
715,2.1459,-7.2425,-6.821,-6.0522,32.7652,12.5217
720,1.5328,-7.1659,-6.9743,-4.8696,34.0174,13.2174
725,2.1076,-7.1276,-6.821,-4.2435,35.1304,13.4261
730,2.1076,-7.0509,-6.7444,-3.5478,36.313,13.6348
735,1.9543,-7.0509,-6.6677,-2.9217,37.287,13.8435
740,1.9543,-7.0126,-6.8593,-2.5043,38.5391,13.8435
745,1.9543,-6.936,-6.8977,-2.2261,40.0,13.9826
750,2.0693,-6.936,-6.9743,-2.1565,41.8087,14.0522
755,2.031,-6.8593,-6.8593,-2.4348,43.7565,14.6783
760,2.1076,-6.7444,-7.0126,-2.6435,45.8435,15.513
765,2.1076,-6.7061,-6.8977,-3.0609,47.5826,16.3478
770,2.1076,-6.7444,-7.0126,-3.4783,49.113,17.3217
775,2.3375,-6.7061,-7.0893,-4.0348,50.713,18.1565
780,2.031,-6.5911,-6.8977,-4.7304,52.1739,19.0609
785,2.031,-6.5528,-6.8593,-5.7043,53.5652,19.6174
790,2.031,-6.5911,-6.936,-6.8174,54.4696,19.8261
795,1.9543,-6.4378,-6.7444,-8.0,54.887,19.9652
800,2.031,-6.4761,-6.4378,-8.8348,54.8174,19.687
805,1.916,-6.3612,-6.2845,-9.7391,54.2609,19.0609
810,1.8777,-6.4761,-6.2079,-10.7826,53.4957,18.4348
815,2.2226,-6.2845,-6.4761,-11.3391,52.7304,17.7391
820,2.2609,-6.0546,-6.5145,-12.1739,51.7565,17.1826
825,2.2992,-5.6331,-7.0893,-13.4957,50.3652,17.1826
830,2.7591,-5.2499,-7.2809,-16.0696,48.6261,17.4609
835,2.3375,-4.6751,-7.5491,-20.313,46.4,18.2957
840,2.2609,-4.4068,-7.6641,-25.6,44.0348,19.6174
845,2.1459,-4.1386,-7.7024,-30.9565,42.1565,21.3565
850,1.916,-3.7171,-7.3575,-35.8261,40.5565,23.0957
855,1.8777,-3.832,-7.2425,-39.4435,39.0957,24.5565
860,1.8777,-3.9087,-7.3192,-41.1826,38.1217,25.5304
865,1.8394,-3.8704,-7.2809,-42.5739,37.0087,25.8783
870,1.7244,-4.062,-7.2425,-42.9217,36.313,26.2261
875,1.7244,-4.1386,-7.2425,-43.1304,35.6174,26.4348
880,1.7244,-4.2919,-7.3575,-43.2696,35.1304,27.2696
885,1.916,-4.4068,-7.1659,-44.1043,34.713,28.6609
890,2.2226,-4.5984,-7.3192,-44.9391,34.9217,31.0957
895,2.3375,-4.79,-7.1276,-46.1913,35.7565,33.3913
900,2.4525,-4.9433,-6.8593,-47.3739,36.2435,35.687
905,2.6058,-5.2116,-6.6294,-48.0,36.3826,38.0522
910,2.7591,-5.5181,-6.5145,-47.7913,35.9652,40.0696
915,2.7591,-5.7097,-6.2462,-46.5391,34.713,41.113
920,2.6441,-5.9013,-6.2845,-44.6609,32.6957,41.113
925,2.4525,-5.863,-6.3995,-41.6,30.3304,40.0696
930,2.031,-5.7864,-6.3229,-39.4435,27.8261,38.6783
935,1.8394,-5.6714,-6.3612,-37.7739,25.113,37.4261
940,1.6861,-5.3265,-6.5145,-35.4087,22.1217,35.8957
945,1.3412,-4.8667,-6.7444,-34.3652,19.4087,33.9478
950,1.6478,-4.6368,-6.821,-34.5739,17.113,31.6522
955,1.3412,-4.1769,-6.7827,-36.5217,15.3739,28.6609
960,1.3795,-3.947,-6.4761,-38.5391,13.8435,25.1826
965,1.3412,-3.7171,-6.4761,-38.6783,12.9391,21.4261
970,1.4945,-3.9087,-6.4761,-37.0783,13.6348,17.0435
975,1.6861,-3.832,-6.7827,-33.1826,16.6957,12.6609
980,1.7244,-3.6787,-6.821,-28.2435,21.8435,9.0435
985,1.8777,-3.7554,-7.0126,-23.2348,28.313,5.5652
990,2.1843,-3.7937,-6.936,-17.8087,34.8522,3.7565
995,2.4908,-4.062,-6.6294,-13.2174,40.4174,3.2696
1000,3.3339,-4.1769,-6.3229,-9.6696,44.7304,3.0609
1005,4.0236,-4.4068,-6.1696,-7.7217,48.2087,2.1565
1010,4.4835,-4.6751,-6.0546,-7.2348,51.5478,1.113
1015,4.9816,-5.02,-5.9013,-6.8174,54.0522,-0.6261
1020,5.3648,-5.1349,-5.9396,-6.887,56.0696,-2.7826
1025,5.5564,-5.2116,-5.9396,-7.0261,57.2522,-3.8261
1030,5.4798,-5.1349,-6.0163,-7.9304,57.1826,-4.4522
1035,5.3648,-4.7517,-6.2462,-9.8087,55.8609,-4.3826
1040,4.905,-4.4835,-6.2845,-12.313,52.9391,-3.6174
1045,4.5218,-4.062,-6.2462,-14.1217,49.6696,-2.3652
1050,4.2152,-3.832,-5.9396,-14.9565,46.3304,-0.487
1055,3.6021,-3.5255,-5.8247,-14.887,43.2696,1.4609
1060,3.0273,-3.2955,-5.4798,-14.1913,40.4174,3.1304
1065,2.4908,-3.0656,-5.5948,-13.0783,37.913,4.2435
1070,2.1459,-3.1039,-5.4415,-12.6609,36.1739,5.0087
1075,1.9927,-2.9123,-5.4798,-13.0087,35.4087,5.6348
1080,2.031,-2.9507,-5.4798,-14.3304,36.1739,5.3565
1085,1.916,-3.2189,-5.5181,-16.2087,38.3304,4.5217
1090,1.6095,-3.4488,-5.4032,-17.6,41.3913,2.9913
1095,1.4945,-3.7554,-5.748,-17.5304,44.3826,1.0435
1100,1.8011,-4.1003,-5.4415,-16.9739,46.6087,-1.2522
1105,1.6095,-4.5601,-5.0966,-16.2783,47.7913,-3.3391
1110,1.2263,-5.02,-4.8667,-14.4,47.3043,-5.1478
1115,0.8814,-5.4798,-4.9433,-11.4087,45.8435,-6.7478
1120,0.8047,-5.8247,-4.9433,-8.4174,43.6174,-8.2087
1125,0.3449,-6.1696,-4.9433,-7.0957,40.2087,-9.1826
1130,-0.115,-6.2462,-5.02,-6.8174,35.0609,-9.5304
1135,-0.4982,-6.2079,-5.0966,-6.5391,28.5217,-9.3913
1140,-0.843,-5.9013,-5.2499,-5.913,21.5652,-8.2783
1145,-1.3029,-5.6714,-5.2499,-5.7043,15.2348,-7.0261
1150,-1.6478,-5.3648,-5.2499,-5.5652,9.3217,-5.7739
1155,-1.9927,-5.3265,-5.2499,-4.5913,3.687,-4.3826
1160,-2.1076,-5.2499,-5.2116,-1.3217,-1.7391,-3.3391
1165,-2.2609,-4.9433,-5.4032,2.2261,-6.3304,-2.5043
1170,-2.2226,-4.8667,-5.4798,5.8435,-10.1565,-1.9478
1175,-2.3759,-4.8284,-5.978,8.9739,-12.7304,-2.6435
1180,-2.031,-4.6368,-6.2462,11.4783,-14.4,-3.2696
1185,-1.8394,-4.79,-6.3612,12.2435,-15.0261,-4.313
1190,-1.2646,-4.8667,-6.6677,12.313,-14.9565,-6.1217
1195,-1.1496,-4.9433,-6.6677,10.713,-13.287,-8.0
1200,-0.6514,-5.0966,-6.7827,9.3913,-10.8522,-9.7391
1205,-0.0383,-5.4798,-6.5528,9.6696,-8.9739,-11.7565
1210,0.2682,-5.7097,-6.4378,11.8261,-8.487,-14.9565
1215,0.5748,-5.7864,-6.7061,14.887,-9.3913,-18.3652
1220,1.2263,-5.9396,-6.7061,17.5304,-10.7826,-20.8
1225,1.5711,-6.0929,-6.8593,20.3826,-12.4522,-22.5391
1230,1.8011,-6.1313,-6.7444,23.513,-15.2348,-24.4174
1235,1.8777,-6.2462,-7.0126,27.4087,-18.7826,-26.713
1240,1.8394,-6.1696,-7.1659,31.3739,-22.6087,-29.287
1245,1.7244,-5.5948,-7.779,35.2,-26.7826,-31.7913
1250,1.7627,-5.2116,-7.9706,38.3304,-30.7478,-33.8783
1255,1.7244,-5.02,-8.0473,42.4348,-34.3652,-35.4087
1260,1.8394,-4.2919,-8.3538,47.8609,-36.5913,-37.6348
1265,2.0693,-3.4488,-8.6604,52.6609,-36.1739,-40.7652
1270,2.0693,-2.9123,-8.9286,55.2348,-33.7391,-43.2696
1275,1.8394,-2.2992,-9.3885,56.487,-31.0957,-45.7739
1280,1.4179,-2.0693,-10.3465,55.6522,-29.0783,-47.7913
1285,1.1496,-1.6478,-11.4961,52.3826,-27.4087,-49.0435
1290,0.4598,-1.4179,-12.8373,44.7304,-23.8609,-51.0609
1295,0.2299,-1.5711,-14.0636,35.4087,-18.1565,-52.6609
1300,0.3449,-2.0693,-14.5234,24.9739,-10.2957,-55.4435
1305,0.8814,-2.7591,-15.0599,15.513,-2.2261,-59.0609
1310,1.8777,-3.9853,-14.4851,8.2783,6.8174,-62.6087
1315,3.7171,-5.5564,-13.5271,5.0783,19.687,-66.8522
1320,5.3648,-7.1659,-11.9176,7.4435,36.8696,-71.9304
1325,7.4341,-8.9286,-10.3465,14.1913,56.8348,-78.3304
1330,8.9286,-10.4998,-9.1586,23.9304,77.5652,-85.6348
1335,10.2315,-11.3045,-7.9323,34.087,96.2783,-93.4261
1340,11.0746,-11.841,-6.7061,44.9391,114.713,-98.4348
1345,11.6877,-11.4961,-5.9013,55.9304,130.713,-101.8435
1350,11.9943,-10.8063,-5.02,64.9739,144.2087,-101.0087
1355,12.1092,-9.5801,-4.3302,71.513,154.0174,-95.5826
1360,11.3811,-7.4725,-4.1769,74.2957,157.8435,-89.6
1365,10.4998,-5.5948,-4.4452,71.4435,156.9391,-83.8261
1370,9.925,-3.4488,-4.905,61.5652,155.0609,-75.5478
1375,7.2042,-2.6441,-4.062,43.8261,152.6261,-68.1739
1380,4.9433,-2.2992,-4.9433,31.8609,141.2174,-72.2087
1385,2.9507,-1.2646,-5.02,19.5478,130.6435,-79.9304
1390,2.3375,-2.0693,-5.0966,9.8783,125.0087,-81.2522
1395,1.9927,-3.7937,-5.2499,5.3565,122.4348,-79.3043
1400,1.8777,-5.8247,-5.2882,5.1478,122.087,-81.0435
1405,3.5255,-8.1239,-5.5948,13.9826,120.7652,-83.8261
1410,5.3648,-9.7334,-5.4798,26.6435,120.9739,-87.3739
1415,7.2042,-10.8446,-5.1349,38.2609,122.4348,-91.2696
1420,10.0399,-11.3428,-5.02,48.1391,126.1913,-92.9391
1425,10.4998,-12.1475,-4.6368,55.8609,133.287,-94.4
1430,11.4578,-12.0326,-4.6751,64.5565,141.1478,-94.4696
1435,12.799,-11.0746,-4.5218,71.7217,149.6348,-91.4087
1440,13.6804,-9.81,-4.5601,76.2435,159.3739,-86.3304
1445,16.2861,-9.8866,-5.4415,78.6087,174.1913,-84.313
1450,17.589,-9.2735,-5.978,76.3826,189.2174,-89.2522
1455,19.0069,-9.7334,-6.936,74.9913,208.6261,-93.2174
1460,18.7386,-11.0746,-7.3575,75.7565,228.5217,-98.2957
1465,18.6237,-12.1092,-7.779,78.8174,245.913,-104.2783
1470,19.735,-14.2168,-8.3538,81.7391,261.7043,-105.7391
1475,20.1565,-16.2861,-9.1202,83.8957,276.0348,-102.887
1480,23.3371,-18.3171,-10.0399,90.3652,291.4087,-103.2348
1485,24.9082,-19.1985,-10.2315,99.4087,306.087,-110.9565
1490,25.9045,-20.2331,-9.925,112.0,315.0609,-121.2522
1495,28.7402,-21.651,-8.6987,128.2783,319.2348,-135.8609
1500,31.3077,-23.2221,-6.7827,144.6957,318.6087,-154.5043
1505,30.6179,-24.41,-4.5218,158.4,308.8,-172.0348
1510,28.3187,-24.6783,-3.1039,170.5739,289.8783,-185.113
1515,26.5943,-24.2568,-2.7974,174.9565,263.7913,-187.0609
1520,21.0762,-22.4557,-2.1459,169.4609,237.287,-180.4522
1525,17.2825,-21.4977,-1.1113,154.8522,215.3043,-157.7043
1530,12.4924,-19.1985,0.6898,145.6,201.8783,-127.7913
1535,7.3192,-15.2132,2.3759,144.6261,191.3043,-105.4609
1540,5.02,-10.0016,2.7591,137.4609,176.4174,-92.9391
1545,1.6478,-7.1659,3.6787,117.9826,159.7217,-81.6
1550,-0.7664,-4.2152,2.9507,92.9391,136.6957,-76.7304
1555,-0.3066,-1.916,2.9507,62.0522,115.6174,-78.8174
1560,0.6898,-1.2646,2.989,31.6522,99.6174,-82.1565
1565,1.4562,-1.6861,2.7591,7.7217,88.9739,-85.1478
1570,2.4525,-2.9123,3.0656,-7.0957,85.4957,-91.3391
1575,3.7171,-4.79,2.4908,-12.1739,87.3043,-96.2783
1580,3.7554,-6.2079,1.8011,-10.0174,93.287,-102.4
1585,3.4488,-6.7827,0.8047,-4.0348,100.0348,-108.1043
1590,4.1769,-6.7827,0.1916,0.7652,105.2522,-110.4
1595,4.6751,-6.1696,-0.5365,3.4087,108.313,-110.2609
1600,5.4798,-5.2499,-0.4982,3.7565,108.8,-109.0087
1605,6.0546,-4.2536,0.1916,2.087,108.1043,-106.7826
1610,5.978,-3.1423,0.5365,-0.2087,106.5739,-103.6522
1615,5.4032,-2.2226,0.5748,-1.3913,103.8609,-101.913
1620,5.5181,-1.5711,0.4982,-1.4609,103.0957,-98.1565
1625,4.8284,-1.2646,0.5365,-3.3391,105.8783,-90.6435
1630,4.0236,-1.7244,0.6131,-5.3565,108.8696,-86.7478
1635,4.0236,-2.2226,0.5365,-5.5652,112.9739,-86.2609
1640,3.3339,-3.3722,0.9197,-3.3391,120.0696,-83.4783
1645,2.6441,-4.8284,1.6095,2.7826,127.0261,-81.9478
1650,2.874,-6.5911,1.7627,13.8435,130.7826,-84.0348
1655,2.6824,-7.5108,1.4562,28.0348,131.6174,-87.513
1660,2.1843,-8.0089,1.3412,40.5565,129.9478,-87.7913
1665,2.2992,-8.0473,1.6095,51.2,126.1913,-86.1217
1670,3.1423,-7.6257,1.5328,60.5217,122.9217,-86.0522
1675,3.4488,-6.6294,1.3795,68.8,121.1826,-85.0783
1680,4.0236,-5.2116,1.6095,76.4522,117.913,-86.4696
1685,4.2536,-4.5984,2.2609,84.5913,115.1304,-86.9565
1690,5.2882,-4.1769,2.7207,89.2522,112.487,-85.287
1695,6.1696,-4.2536,3.5638,90.4348,111.4435,-84.313
1700,5.7864,-4.1769,4.0236,90.9913,110.7478,-85.6348
1705,4.5984,-4.1769,4.5984,91.8261,110.4,-87.0957
1710,4.6751,-4.4452,5.2499,92.5217,109.6348,-87.7913
1715,5.9013,-3.832,6.2462,94.8174,107.2,-90.3652
1720,6.8593,-3.0656,6.3612,97.1826,103.4435,-92.8
1725,7.8557,-2.874,6.2079,95.0261,99.1304,-94.6783
1730,8.1239,-2.7207,5.6714,92.5913,95.6522,-98.1565
1735,7.4725,-2.5291,6.1313,93.7739,94.2609,-101.4261
1740,8.1239,-2.2609,6.936,98.4348,93.913,-105.8087
1745,7.3958,-2.0693,7.7024,101.5652,95.5826,-112.2783
1750,7.4341,-1.9927,7.8557,102.1913,96.5565,-117.0783
1755,8.3155,-1.9927,7.8173,101.5652,98.0174,-119.1652
1760,8.5071,-1.6095,7.6257,100.9391,100.4522,-121.3913
1765,8.5454,-1.3412,7.3192,100.6609,102.4696,-124.8
1770,7.6641,-1.1113,7.7407,101.0087,105.0435,-128.9043
1775,8.2772,-0.7664,7.8557,101.4261,107.4087,-130.7826
1780,8.4305,-0.4215,7.9706,101.1478,109.0087,-132.9391
1785,8.5838,-0.3449,8.0089,100.3826,108.0348,-133.287
1790,8.4305,-0.3066,7.894,100.2435,102.2609,-131.8957
1795,8.6987,0.0,7.3958,100.0348,93.0783,-128.2087
1800,8.6604,0.5365,7.2809,99.9652,83.7565,-124.3826
1805,8.9286,1.3412,7.3958,100.6609,76.8,-119.0261
1810,8.852,2.3375,7.5491,99.5478,72.487,-112.7652
1815,8.6604,2.9123,8.0856,96.8348,68.8696,-106.4348
1820,9.0819,2.9123,8.7754,94.3304,63.5826,-100.6609
1825,9.1202,3.3339,9.0819,91.5478,56.7652,-96.3478
1830,9.1969,3.7554,9.81,86.887,48.2087,-90.8522
1835,9.5801,3.7554,10.3848,78.887,37.287,-83.3391
1840,9.6567,3.5638,10.2698,69.9826,23.6522,-74.1565
1845,9.4651,2.9123,9.0053,61.5652,11.6174,-64.7652
1850,9.2352,2.1459,8.6604,52.5913,1.5304,-56.8348
1855,8.737,1.6095,7.8557,44.6609,-9.5304,-49.9478
1860,8.1239,0.4215,7.779,38.8174,-22.1217,-43.2
1865,6.8593,0.2299,6.7061,37.4261,-36.3826,-36.8
1870,6.2079,-0.115,5.5181,38.6087,-48.2087,-28.2435
1875,4.6368,0.0383,4.5601,40.487,-56.0,-21.2174
1880,4.1769,0.4598,4.6368,41.7391,-60.1043,-15.7217
1885,2.7974,1.3029,4.5601,43.1304,-63.2348,-11.3391
1890,2.2992,1.7244,5.1349,43.2696,-67.7565,-7.4435
1895,2.4142,2.2992,5.1349,41.9478,-73.0435,-3.9652
1900,3.6021,2.9507,5.2116,37.2174,-77.9826,-1.7391
1905,3.0273,3.3339,5.3265,30.7478,-82.9913,-2.5739
1910,3.6021,3.1806,6.0546,23.6522,-89.9478,-1.4609
1915,3.7171,3.0273,6.4761,18.3652,-100.313,-1.3217
1920,4.8284,2.5675,7.2042,14.6087,-112.487,-2.2261
1925,5.748,2.1076,6.6677,12.9391,-125.0087,-5.913
1930,6.7444,1.8011,5.4798,12.313,-134.6087,-11.8261
1935,6.7061,1.5328,4.9433,10.2261,-134.1913,-15.0261
1940,6.9743,0.6898,3.9087,7.0957,-128.8348,-16.1391
1945,7.3575,0.4598,3.2189,4.4522,-121.1826,-19.8261
1950,6.1696,0.7664,2.7207,4.6609,-111.1652,-24.8348
1955,6.2079,1.0346,2.2992,6.1913,-100.9391,-28.1043
1960,5.3648,1.7244,2.1076,8.5565,-90.9217,-30.2609
1965,6.1696,1.916,1.9927,10.0174,-80.7652,-30.3304
1970,6.4378,2.7207,2.5675,11.0609,-71.9304,-31.4435
1975,6.7444,3.3339,2.8357,11.3391,-65.4609,-32.6261
1980,7.3192,3.7937,3.2955,11.4783,-60.313,-32.9043
1985,7.9706,4.3302,3.6404,11.8261,-56.0696,-33.3217
1990,8.4305,4.3302,4.1769,13.0783,-52.6609,-32.4174
1995,8.7754,4.0236,4.1769,14.6087,-50.4348,-31.3739
2000,9.0053,4.4068,3.9087,15.8609,-48.9739,-30.4
2005,8.967,4.3302,3.7937,16.0,-48.487,-27.5478
2010,8.9286,4.2152,3.8704,15.4435,-49.113,-23.6522
2015,9.1202,3.3339,3.947,13.9826,-51.8261,-19.2696
2020,9.1202,3.2189,4.1003,13.0087,-55.7217,-17.0435
2025,9.1969,3.3339,3.6787,12.8,-59.3391,-14.9565
2030,9.0819,3.4488,3.3722,11.8261,-62.3304,-11.6174
2035,9.1969,3.5638,3.3722,11.1304,-64.7652,-9.7391
2040,8.5071,3.8704,2.8357,11.3391,-66.5043,-8.7652
2045,8.6987,3.9087,2.7207,10.9217,-66.4348,-6.9565
2050,8.6987,3.8704,2.5675,10.2261,-65.113,-5.9826
2055,8.6221,4.0236,2.5291,10.5043,-63.1652,-5.6348
2060,8.5838,3.7937,2.4142,10.9913,-61.287,-5.4261
2065,8.7754,3.1423,2.5291,12.4522,-59.6174,-5.5652
2070,8.8137,2.7207,2.4142,15.9304,-58.5043,-5.9826
2075,8.9286,2.3759,2.4908,20.4522,-58.2261,-5.2174
2080,9.2352,2.3375,2.2992,26.087,-59.1304,-4.1043
2085,9.2735,2.4525,2.2226,31.513,-60.7304,-1.9478
2090,9.2352,2.4525,2.2226,35.9652,-62.3304,0.2783
2095,9.2352,2.7207,2.2226,39.5826,-64.2087,2.3652
2100,9.4268,2.7207,2.2226,42.4348,-66.1565,3.9652
2105,9.3118,2.9123,2.3759,44.5217,-67.7565,5.287
2110,9.1969,3.0273,2.4908,46.4,-69.7043,6.4
2115,9.1586,2.989,2.6058,47.6522,-72.0696,7.9304
2120,8.967,3.1806,2.4142,47.7913,-74.1565,9.113
2125,8.8137,3.2572,2.1076,47.7217,-75.1304,10.2957
2130,8.737,3.1039,2.0693,46.5391,-75.1304,11.2
2135,8.8137,3.1806,2.1076,45.2174,-74.4348,11.4087
2140,8.737,3.0273,2.1843,42.8522,-72.9739,10.9217
2145,8.852,2.7974,2.1076,39.7913,-71.3043,10.7826
2150,8.737,2.6058,1.916,36.9391,-70.3304,10.8522
2155,8.6987,2.3375,1.8394,34.9217,-70.5391,11.0609
2160,8.4688,2.1076,1.8777,33.8783,-71.3739,10.9913
2165,8.5071,1.8394,2.1843,33.6696,-72.8348,10.9913
2170,8.4688,1.6478,2.1076,34.087,-73.9478,10.6435
2175,8.5838,1.4945,1.8777,35.0609,-75.4783,10.1565
2180,8.5454,1.5711,1.8011,37.0783,-77.1478,9.4609
2185,8.6987,1.7244,1.5328,39.5826,-79.3043,8.9739
2190,8.8137,2.031,0.958,41.5304,-81.7391,9.0435
2195,9.0053,2.1843,0.8814,43.9652,-84.1739,9.113
2200,9.0819,2.4908,0.8814,47.1652,-86.7478,9.5304
2205,9.1969,2.6441,0.7664,50.8522,-88.4174,10.2957
2210,9.2352,2.7207,0.115,53.913,-88.487,11.4783
2215,9.3885,2.9507,-0.3449,53.3565,-87.7217,12.6609
2220,9.9633,3.5255,-1.1879,49.6696,-85.0783,13.4261
2225,10.3848,3.9853,-2.0693,43.2,-79.7913,13.6348
2230,10.9213,4.4835,-2.6824,34.8522,-72.487,13.4957
2235,11.8793,4.9433,-3.4105,24.8348,-64.3478,13.7739
2240,13.0289,5.02,-3.5638,14.3304,-55.6522,14.2609
2245,13.642,4.905,-4.2919,4.5913,-47.0261,15.8609
2250,13.7953,4.6751,-4.6751,-3.687,-39.0261,18.6435
2255,14.0252,4.2536,-5.2116,-10.713,-32.487,22.0522
2260,14.2168,3.8704,-5.6714,-16.3478,-25.8087,25.9478
2265,14.2168,3.4105,-5.6331,-20.5217,-17.8783,29.3565
2270,14.2168,2.874,-5.1732,-22.887,-9.2522,31.2348
2275,13.6804,2.5291,-4.5984,-22.5391,-1.3217,31.6522
2280,13.4121,2.1843,-3.947,-20.1043,5.0087,31.6522
2285,12.799,1.9927,-3.3722,-17.3217,9.5304,31.9304
2290,12.2625,1.7627,-2.7974,-14.6087,11.3391,31.4435
2295,11.8027,1.6095,-2.1076,-12.0348,11.5478,28.8
2300,11.3428,1.5711,-1.5328,-8.6261,10.5739,25.3217
2305,10.768,1.4945,-1.1879,-4.6609,8.487,21.8435
2310,10.3848,1.3029,-0.6514,-2.0174,4.6609,18.6435
2315,9.9633,1.0346,0.0766,-0.487,0.0,15.513
2320,9.8866,0.4982,0.3066,0.6261,-4.8,12.6609
2325,9.6567,0.4215,0.6131,0.7652,-9.0435,10.0174
2330,9.3118,0.2682,0.843,-0.1391,-12.2435,8.2087
2335,9.3502,0.0766,1.1879,-1.4609,-14.4696,7.2348
2340,9.5801,-0.0383,1.3029,-2.5739,-15.7217,6.4
2345,9.3885,0.3449,1.5711,-4.1043,-16.0696,5.287
2350,9.695,0.4215,1.4945,-6.3304,-15.7217,5.4957
2355,9.2735,0.958,1.3029,-9.2522,-14.8174,5.7739
2360,9.7334,1.4945,0.9963,-12.4522,-13.3565,7.1652
2365,9.8483,1.7627,0.5365,-16.487,-11.2,9.113
2370,10.1549,1.9543,0.3449,-20.5913,-8.6261,10.5739
2375,9.925,2.031,0.1533,-24.3478,-6.1913,10.5043
2380,10.3848,1.7627,-0.115,-27.6174,-4.313,10.2261
2385,10.8063,1.6095,-0.3066,-29.6348,-2.4348,8.9043
2390,10.653,1.1879,-0.4598,-30.6087,-2.4348,7.3739
2395,11.3811,0.8814,-0.3832,-30.7478,-3.5478,6.6087
2400,11.3428,0.8047,-0.4215,-27.8261,-2.3652,6.1913
2405,10.1166,0.7281,-0.4982,-24.0,-2.4348,6.1913
2410,10.2698,0.4215,-0.6131,-22.4,-5.287,7.9304
2415,10.2315,0.6131,-0.1533,-21.7043,-6.6087,8.7652
2420,10.0782,0.5365,-0.0383,-19.4087,-5.7739,8.4174
2425,9.4268,0.6898,0.0383,-17.6,-6.4,7.0957
2430,9.0436,0.6898,0.2299,-17.1826,-8.1391,7.0261
2435,9.2352,0.8814,0.3066,-18.6435,-9.3217,7.8609
2440,9.1586,1.073,0.5748,-20.8,-9.7391,7.3043
2445,8.4688,1.1496,0.6514,-23.1652,-10.1565,6.6087
2450,8.5071,1.1879,0.3832,-26.0174,-11.1304,8.4174
2455,9.3885,1.1879,0.4215,-29.3565,-10.1565,10.1565
2460,9.2735,1.2263,0.3449,-31.513,-7.9304,10.1565
2465,9.4268,1.3412,0.0,-32.4174,-5.4957,11.4087
2470,10.1932,1.0346,0.0,-33.8783,-2.5739,14.4696
2475,10.8063,0.7664,-0.2299,-34.713,0.6261,17.2522
2480,10.9213,0.4982,0.0383,-33.4609,3.5478,18.8522
2485,10.653,0.1916,0.2299,-30.1913,4.8,19.8957
2490,10.1932,-0.0766,0.2682,-25.7391,3.3391,20.7304
2495,10.1166,-0.1916,0.3066,-21.8435,0.7652,21.7043
2500,9.4651,0.0383,0.2299,-18.6435,-1.8783,21.7739
2505,10.0399,0.1533,0.3066,-16.0696,-4.0348,22.6087
2510,9.3885,0.8047,0.3066,-14.6087,-4.8,24.2087
2515,9.3885,1.0346,0.3449,-13.7043,-6.1217,26.6435
2520,9.2735,1.1496,0.3066,-12.6609,-8.2783,27.4783
2525,9.3502,1.2646,0.0383,-12.313,-10.6435,26.6435
2530,9.3885,1.3412,-0.2682,-13.0783,-11.687,25.6696
2535,9.6184,1.073,-0.2682,-14.6783,-12.1043,25.3913
2540,9.925,0.7281,-0.115,-15.513,-11.1304,25.113
2545,10.1166,0.958,-0.3066,-14.2609,-9.6696,24.6957
2550,10.1166,1.0346,-0.7664,-12.8696,-8.8348,23.5826
2555,10.0399,1.1496,-0.7281,-11.9652,-8.0696,21.5652
2560,9.7717,0.9197,-0.958,-11.8261,-6.1913,19.6174
2565,9.81,0.7281,-0.958,-12.0348,-3.4783,19.0609
2570,9.925,0.4598,-0.9197,-12.7304,-0.487,19.2696
2575,10.2698,0.3832,-0.9197,-13.7739,1.6,19.1304
2580,10.5381,0.3449,-0.958,-15.2348,2.8522,18.1565
2585,10.6147,0.4982,-1.073,-16.6957,3.8261,16.6957
2590,11.1129,0.3832,-0.7664,-17.5304,5.4261,15.3043
2595,11.2279,0.4598,-0.8047,-17.113,6.6087,13.0783
2600,11.4195,0.8047,-1.0346,-16.6957,8.0,11.0609
2605,11.6494,0.7281,-1.1496,-17.3913,10.087,10.2261
2610,11.841,0.5365,-1.073,-18.713,11.687,9.3913
2615,11.6877,0.4215,-0.8814,-18.2957,11.7565,8.0696
2620,11.8793,0.0766,-0.6131,-16.2087,11.5478,7.4435
2625,11.4578,0.0,-0.6514,-13.0783,10.5739,6.3304
2630,11.4195,-0.3449,-0.4982,-10.2261,9.6,6.6087
2635,10.7297,-0.3449,-0.4598,-8.0,9.0435,7.0957
2640,10.5764,-0.3832,-0.3832,-6.7478,8.8348,6.9565
2645,10.0399,-0.3449,-0.2299,-5.4261,8.3478,6.6783
2650,10.0016,-0.2299,-0.3832,-4.5913,7.6522,6.1913
2655,9.5418,0.0,-0.4982,-4.8,8.0,5.9826
2660,9.5418,0.0,-0.3832,-5.6348,8.487,5.913
2665,9.3118,0.0766,-0.3832,-5.1478,9.4609,4.8
2670,9.3502,-0.0766,-0.2682,-4.1739,10.5043,4.1043
2675,9.5034,-0.1533,0.0,-3.3391,11.7565,3.9652
2680,9.8483,-0.1916,0.0383,-2.8522,12.5913,3.9652
2685,9.8866,-0.0766,-0.0766,-1.9478,13.4261,3.4783
2690,9.925,-0.1533,-0.115,-1.5304,14.1913,3.8261
2695,10.0016,-0.3066,-0.115,-2.1565,14.9565,4.5913
2700,10.0016,-0.3066,0.1916,-2.5043,15.513,4.9391
2705,9.9633,-0.1533,0.115,-1.8087,15.1652,4.9391
2710,9.9633,0.0,0.1916,-1.113,14.7478,4.8
2715,9.8866,0.0383,0.1533,-0.8348,14.1913,4.6609
2720,9.8866,0.0766,0.2299,-0.8348,13.913,4.5217
2725,9.8866,0.2299,0.3449,-0.6261,13.2174,4.1739
2730,9.9633,0.2299,0.3066,-0.1391,12.2435,3.6174
2735,10.0399,0.1916,0.3066,0.2087,10.9913,3.1304
2740,10.0399,0.3066,0.3066,0.3478,9.6696,2.7826
2745,10.1166,0.2299,0.3066,0.487,8.5565,2.5739
2750,10.1166,0.1533,0.3832,0.5565,7.1652,2.1565
2755,10.0782,0.2682,0.4215,0.6957,5.9826,1.7391
2760,10.1166,0.2682,0.3832,0.6261,5.1478,1.3913
2765,10.1166,0.2682,0.4215,0.5565,4.4522,0.9739
2770,10.0782,0.3066,0.4598,0.3478,3.8261,0.5565
2775,10.0399,0.3066,0.3832,0.0,3.2696,0.1391
2780,10.0399,0.3066,0.5365,-0.487,2.5739,-0.2783
2785,10.0399,0.3449,0.6131,-1.2522,1.9478,-0.8348
2790,9.8866,0.3066,0.4215,-2.0174,1.3217,-1.3913
2795,10.0016,0.4598,0.5365,-2.5739,0.5565,-1.8783
2800,10.0399,0.4598,0.6898,-3.1304,-0.5565,-2.4348
2805,10.0016,0.3832,0.5365,-3.5478,-2.0174,-3.1304
2810,10.0399,0.3066,0.7281,-3.9652,-3.6174,-3.7565
2815,9.9633,0.3449,0.6131,-4.1739,-5.3565,-4.3826
2820,10.1166,0.4215,0.6514,-4.0348,-6.887,-5.0783
2825,10.0016,0.3066,0.3832,-3.8261,-8.1391,-5.7043
2830,9.9633,0.3066,0.5365,-3.687,-9.3217,-6.3304
2835,9.8483,0.3066,0.3832,-3.2,-10.0174,-6.8174
2840,9.925,0.3066,0.4215,-2.3652,-10.5043,-7.3739
2845,9.9633,0.3449,0.4215,-1.8783,-10.7826,-7.6522
2850,9.81,0.3066,0.3066,-1.5304,-11.1304,-8.0
2855,9.6567,0.3066,0.2299,-0.8348,-11.2696,-8.5565
2860,9.7334,0.5365,0.2299,-0.2087,-11.3391,-8.8348
2865,9.8483,0.4982,0.3832,0.2087,-11.0609,-8.4174
2870,9.7717,0.6514,0.3066,0.4174,-10.9217,-8.0696
2875,9.8483,0.6514,0.1916,0.487,-11.1304,-7.7913
2880,9.81,0.6898,0.115,0.2087,-11.3391,-7.6522
2885,9.8483,0.8814,0.3066,0.1391,-11.6174,-7.513
2890,9.5801,0.6898,0.3066,0.2087,-12.1739,-7.9304
2895,9.925,0.9963,0.3066,1.113,-12.8,-9.5304
2900,9.925,0.9963,0.1916,0.9739,-12.6609,-8.6261
2905,10.0016,1.1496,0.2682,0.8348,-12.8696,-7.4435
2910,9.81,1.1879,0.1916,0.4174,-13.4261,-6.5391
2915,10.0782,1.073,-0.0766,0.0696,-13.913,-5.913
2920,10.0399,1.1879,0.1533,-0.3478,-14.4,-5.4261
2925,10.0782,1.1113,0.1533,-0.6261,-15.0261,-5.0783
2930,10.0016,1.1496,-0.115,-1.0435,-15.7217,-4.8696
2935,10.1166,1.1496,0.0766,-1.4609,-16.0696,-4.8696
2940,10.2315,1.1113,-0.1533,-2.2261,-16.2783,-4.8
2945,10.2698,1.0346,-0.1916,-2.9217,-16.3478,-4.5913
2950,10.4231,0.958,-0.115,-3.8261,-16.1391,-4.5217
2955,10.3848,0.9963,-0.4982,-4.7304,-15.5826,-4.5913
2960,10.2698,0.8814,-0.5748,-5.2174,-14.7478,-4.5217
2965,10.3082,0.843,-0.5748,-5.3565,-13.8435,-4.5217
2970,10.3848,0.6898,-0.6514,-4.7304,-12.8696,-4.4522
2975,10.3082,0.6514,-0.7281,-3.5478,-11.6174,-4.3826
2980,10.3848,0.8047,-0.8814,-1.8783,-10.2261,-4.1043
2985,10.3848,0.6514,-0.9197,0.0696,-8.7652,-3.8261
2990,10.2698,0.6898,-0.9963,1.9478,-7.3739,-3.6174
2995,10.4231,0.8047,-0.9197,3.687,-6.1913,-3.4087
