timestamp,accX,accY,accZ,gyroX,gyroY,gyroZ
0,2.1843,-9.4651,-3.2955,13.2174,-70.7478,-7.9304
5,2.1076,-9.2735,-3.2572,14.3304,-68.5217,-9.6
10,1.8777,-8.967,-3.1039,15.2348,-66.9217,-10.7826
15,1.6861,-8.4688,-3.1423,15.9304,-64.9043,-11.5478
20,1.4945,-8.0856,-2.989,16.4174,-61.6348,-12.0348
25,1.1113,-8.0089,-2.6824,16.6261,-57.3913,-12.0348
30,0.6514,-7.9706,-2.6441,16.487,-52.8,-11.9652
35,0.3449,-8.0473,-2.6824,16.2783,-48.6957,-11.687
40,0.1916,-8.0473,-2.6441,15.5826,-45.2174,-11.4783
45,-0.3449,-8.3538,-2.5675,14.5391,-42.2261,-11.3391
50,-0.7664,-8.6604,-2.4908,13.4957,-40.1391,-11.2
55,-1.1496,-8.7754,-2.4142,12.6609,-38.9565,-11.1304
60,-1.2646,-8.6221,-2.4908,11.7565,-38.4,-11.1304
65,-1.1496,-8.6604,-2.5675,10.6435,-38.4,-11.6174
70,-1.1496,-8.6987,-2.3759,9.113,-38.9565,-11.9652
75,-1.0346,-8.6987,-2.5675,7.3043,-39.7217,-12.313
80,-1.073,-8.7754,-2.4142,5.1478,-40.3478,-12.9391
85,-1.1113,-8.9286,-2.4525,3.4783,-40.8348,-13.4957
90,-1.3029,-9.0819,-2.3375,2.5043,-40.9043,-14.0522
95,-1.3412,-9.1969,-2.2992,2.4348,-40.4174,-14.6783
100,-1.4945,-9.3502,-2.1843,3.2696,-40.0696,-14.9565
105,-1.3795,-9.4651,-2.3375,4.5913,-39.8609,-15.1652
110,-1.2263,-9.5034,-2.4142,6.1217,-39.5826,-14.9565
115,-1.1496,-9.5418,-2.5291,6.887,-39.0261,-14.5391
120,-1.0346,-9.6184,-2.7207,7.3739,-38.4,-13.9826
125,-0.9197,-9.7334,-2.6824,7.3739,-37.8435,-13.1478
130,-0.843,-9.5801,-2.874,6.887,-36.8696,-12.1739
135,-0.6131,-9.7717,-2.6058,6.5391,-35.8261,-10.9217
140,-0.4982,-10.0399,-2.6058,6.6087,-34.1565,-9.4609
145,-0.4598,-10.0016,-2.6058,6.9565,-32.487,-7.8609
150,-0.3832,-9.9633,-2.7591,7.3739,-31.0957,-6.2609
155,-0.2682,-10.0016,-2.7974,7.6522,-29.5652,-4.5217
160,-0.0383,-10.0399,-2.6824,7.7217,-27.4783,-3.1304
165,0.0383,-10.0399,-2.9123,7.3739,-25.113,-1.8087
170,0.0,-9.925,-2.6441,6.8174,-23.1652,-1.0435
175,0.0766,-10.0782,-2.4908,5.9826,-21.3565,-0.487
180,0.115,-10.1932,-2.3759,5.0087,-19.5478,-0.2783
185,0.115,-10.1932,-2.1843,4.1739,-17.1826,-0.0696
190,0.0766,-10.2698,-2.1843,3.5478,-14.6087,0.0
195,0.0766,-10.3082,-2.1459,2.713,-11.7565,-0.1391
200,0.0383,-10.4231,-2.2226,2.1565,-8.7652,-0.6957
205,0.2682,-10.4998,-2.4142,2.3652,-6.1913,-0.6957
210,0.3449,-10.2698,-2.5291,2.713,-3.5478,-0.7652
215,0.6131,-10.0782,-2.4908,2.713,-0.6261,-0.9043
220,0.5365,-9.8483,-2.4525,2.2261,2.713,-0.9043
225,0.6898,-9.6567,-2.3375,1.3913,5.9826,-0.7652
230,0.8814,-9.6567,-2.0693,0.6957,9.4609,-0.2783
235,0.7664,-9.6184,-2.031,0.2783,12.8696,0.3478
240,0.9197,-9.4651,-1.7244,0.1391,15.8609,1.1826
245,0.958,-9.3885,-2.031,0.2087,18.6435,1.8783
250,0.8047,-9.3118,-1.9543,0.0696,21.5652,2.5043
255,0.7664,-9.0819,-2.1076,-0.2783,24.2783,3.2696
260,0.6898,-8.852,-2.2992,-0.7652,26.5043,3.8261
265,0.6514,-8.6987,-2.2609,-1.3913,28.5913,4.1043
270,0.6131,-8.5454,-2.5675,-2.0174,30.2609,4.5217
275,0.6131,-8.3921,-2.5675,-2.9913,31.7217,4.8
280,0.2682,-8.1622,-2.4908,-3.8957,32.8348,5.0087
285,0.0,-8.0089,-2.3759,-5.1478,33.1826,5.3565
290,0.0,-8.2389,-2.4525,-6.2609,33.2522,5.913
295,-0.1533,-8.3538,-2.2226,-7.2348,33.113,6.3304
300,-0.2682,-8.737,-2.1076,-7.9304,33.113,6.6087
305,-0.3066,-8.967,-2.0693,-8.5565,33.0435,6.8174
310,-0.4215,-9.1202,-1.8777,-8.7652,32.4174,7.0957
315,-0.4598,-9.1969,-1.8777,-8.2783,31.513,7.3043
320,-0.4598,-9.3118,-1.9927,-7.4435,30.6783,7.3043
325,-0.4982,-9.3885,-1.9927,-5.9826,30.0522,7.1652
330,-0.4215,-9.3885,-1.8394,-4.8696,29.7043,7.2348
335,-0.3449,-9.4651,-1.8011,-3.6174,29.8435,7.2348
340,-0.2682,-9.4651,-1.6478,-2.2957,30.0522,7.0957
345,-0.2682,-9.3502,-1.6478,-0.9739,29.8435,6.7478
350,-0.115,-9.3885,-1.4945,-0.2783,29.0087,6.2609
355,-0.2682,-9.4651,-1.3795,-0.2087,27.7565,5.913
360,-0.3066,-9.5034,-1.3029,-0.7652,25.8087,5.6348
365,-0.4215,-9.7717,-0.9963,-1.6,23.5826,5.6348
370,-0.6131,-10.0399,-1.2263,-2.6435,21.4261,5.7043
375,-0.7664,-10.4231,-1.4562,-3.5478,19.2,5.7043
380,-1.073,-10.5764,-1.4945,-4.1739,17.1826,5.913
385,-1.1113,-10.7297,-1.5711,-4.7304,15.2348,6.0522
390,-1.3029,-10.8063,-1.8394,-5.287,13.4261,6.3304
395,-1.3029,-10.9213,-2.1459,-5.7739,11.8261,6.6087
400,-1.4945,-10.9596,-2.1843,-6.1217,10.087,6.7478
405,-1.5711,-11.0746,-2.2226,-5.9826,8.0696,7.0957
410,-1.4945,-11.0363,-2.2992,-5.6348,5.913,7.5826
415,-1.6095,-10.9596,-2.2992,-4.8696,3.6174,7.9304
420,-1.4179,-10.8063,-2.4525,-3.9652,1.6,8.2783
425,-1.4562,-10.6914,-2.4142,-2.7826,-0.4174,8.5565
430,-1.2646,-10.4998,-2.3759,-1.4609,-2.087,8.9043
435,-1.073,-10.1549,-2.4142,-0.2783,-3.4087,9.1826
440,-0.8814,-9.81,-2.2992,0.6957,-4.1739,9.3913
445,-0.5365,-9.5034,-2.2609,1.4609,-4.9391,9.4609
450,-0.1533,-9.3885,-2.1459,1.8783,-5.7043,9.3913
455,0.0383,-9.1586,-2.1459,1.8087,-6.6783,9.2522
460,0.2299,-8.852,-1.8777,1.3913,-7.7217,8.9043
465,0.4215,-8.737,-1.8011,0.7652,-8.5565,8.487
470,0.4215,-8.6604,-1.9927,-0.2783,-9.113,8.0696
475,0.6514,-8.737,-1.6478,-1.5304,-9.4609,7.6522
480,0.6514,-8.852,-1.4179,-2.5043,-9.5304,7.1652
485,0.6898,-9.1586,-1.2646,-3.0609,-9.3913,6.887
490,0.5365,-9.1586,-1.2263,-3.4087,-9.1826,6.6783
495,0.7281,-9.2352,-1.3412,-3.5478,-8.5565,6.4696
500,0.7664,-9.2352,-1.3795,-3.8957,-7.6522,6.4
505,0.7664,-9.1202,-1.4945,-4.1043,-6.8174,6.2609
510,0.7664,-9.0436,-1.6095,-4.6609,-5.7739,6.2609
515,0.5748,-8.9286,-1.6478,-5.4957,-4.8696,6.1913
520,0.5365,-8.852,-1.5711,-6.4,-3.687,6.2609
525,0.4598,-8.6987,-1.6095,-7.3043,-2.6435,6.3304
530,0.2299,-8.6604,-1.5328,-7.8609,-1.4609,6.2609
535,0.115,-8.5071,-1.3412,-8.0696,-0.4174,6.0522
540,0.0,-8.5071,-1.3029,-7.8609,0.2783,5.8435
545,-0.0383,-8.3921,-1.4945,-7.1652,0.8348,5.4957
550,-0.1533,-8.3538,-1.6095,-6.4696,1.1826,5.0087
555,-0.115,-8.3538,-1.5711,-5.8435,1.3217,4.5217
560,-0.0766,-8.2389,-1.3795,-5.1478,1.4609,4.1043
565,0.0,-8.1622,-1.3795,-4.6609,1.6,3.6174
570,0.0,-8.2389,-1.4562,-4.2435,1.6696,3.2
575,0.115,-8.2389,-1.4562,-3.9652,1.6,2.5739
580,0.3832,-8.4305,-1.3412,-3.8261,1.5304,1.9478
585,0.115,-8.3921,-1.4179,-3.4783,1.4609,1.4609
590,0.2299,-8.5071,-1.2646,-3.3391,1.3913,1.113
595,0.2682,-8.5454,-1.3795,-2.9913,1.1826,0.9043
600,0.4215,-8.852,-1.1879,-2.2957,1.1826,0.9043
605,0.3832,-8.852,-1.1496,-1.5304,1.3913,1.0435
610,0.5365,-9.0436,-1.1879,-0.6261,1.7391,1.3217
615,0.6131,-9.0053,-1.1879,0.487,2.087,1.6696
620,0.5748,-9.0053,-1.073,1.3913,2.4348,2.3652
625,0.4215,-8.8137,-1.1113,2.087,2.9217,3.2
630,0.4982,-8.8137,-1.1879,2.713,3.4783,4.0348
635,0.2682,-8.6987,-0.9963,3.4087,3.8957,5.0783
640,0.115,-8.5454,-0.958,4.313,4.1739,6.0522
645,0.0383,-8.2389,-1.1113,5.1478,4.1739,7.0957
650,0.0766,-8.2005,-1.1496,5.4957,4.2435,8.0
655,0.0766,-8.1622,-1.073,5.7043,4.3826,8.7652
660,0.0383,-8.1239,-0.9963,5.913,4.6609,9.3217
665,0.115,-8.0473,-0.9197,6.4696,5.0087,9.9478
670,0.1916,-7.9323,-1.0346,6.887,5.287,10.4348
675,0.1916,-7.894,-1.073,6.887,5.1478,10.7826
680,0.1916,-8.0089,-0.9963,6.4696,4.5913,10.9217
685,0.1533,-8.0473,-0.958,6.1913,3.7565,10.9217
690,0.1533,-8.2005,-0.7281,6.0522,2.9913,10.9217
695,-0.0766,-8.2005,-0.6898,6.1913,2.4348,10.9913
700,-0.1916,-8.5454,-0.6131,6.4,2.0174,11.3391
705,-0.5365,-8.6221,-0.4982,7.0261,1.7391,12.0348
710,-0.4982,-8.8137,-0.1916,8.8348,1.4609,13.0783
715,-0.5748,-8.5071,-0.3066,11.2,1.3913,14.3304
720,-0.6131,-8.0856,-0.6514,12.9391,0.9739,16.0
725,-0.6131,-7.7407,-0.843,13.3565,0.8348,18.1565
730,-0.5365,-7.5108,-1.1113,12.4522,0.7652,20.5913
735,-0.4982,-7.2809,-1.0346,10.7826,0.7652,22.887
740,-0.5365,-7.1276,-0.958,9.0435,0.0,25.1826
745,-0.4982,-7.1276,-0.9963,7.0261,-1.1826,27.4087
750,-0.5365,-7.2809,-0.8814,5.6348,-2.2957,29.4957
755,-0.5748,-7.3575,-0.958,4.8,-3.2696,31.2348
760,-0.5748,-7.3958,-1.073,4.8,-4.5217,32.6261
765,-0.6898,-7.4341,-0.9963,4.8,-6.0522,33.8783
770,-0.7664,-7.5108,-0.9197,5.0087,-8.2087,34.5739
775,-0.6514,-7.894,-0.9963,5.6348,-11.2,34.7826
780,-0.843,-8.0089,-0.958,7.0957,-13.8435,34.5043
785,-1.073,-8.1239,-1.3412,8.6261,-16.3478,33.8783
790,-1.3029,-8.0856,-1.6095,8.9739,-18.5043,33.3217
795,-1.3795,-7.9706,-1.9543,8.2087,-20.2435,32.6957
800,-1.2263,-7.8557,-1.8011,6.7478,-21.9826,32.0696
805,-1.6095,-8.2005,-1.4179,5.5652,-24.2783,31.3739
810,-1.3795,-8.5454,-1.2263,4.8696,-26.8522,30.887
815,-1.3412,-9.1202,-0.7664,4.5217,-29.5652,30.6087
820,-1.2263,-9.5418,-0.5748,4.7304,-32.2087,30.7478
825,-1.1113,-10.0399,-0.2682,5.8435,-34.0174,31.1652
830,-0.9197,-10.2698,-0.5748,7.1652,-35.4087,31.9304
835,-0.8814,-10.0399,-0.7664,7.513,-36.313,32.9043
840,-0.6898,-9.8866,-0.8814,6.9565,-36.9391,34.087
845,-0.6898,-9.695,-1.4179,5.9826,-37.0783,35.2696
850,-0.6131,-9.3885,-1.4562,5.4957,-37.1478,36.1043
855,-0.4982,-9.3885,-1.5711,5.8435,-37.3565,36.4522
860,-0.3832,-9.3502,-1.4562,6.7478,-37.8435,36.5217
865,-0.4982,-9.1202,-1.6095,8.487,-38.5391,36.1739
870,-0.5748,-8.8903,-1.8011,10.7826,-39.3043,35.8957
875,-0.6898,-8.6604,-1.6861,12.9391,-40.487,35.3391
880,-0.7664,-8.6221,-1.6095,14.1913,-42.2261,34.3652
885,-0.843,-8.6221,-1.4179,14.1913,-44.3826,33.113
890,-0.8814,-8.6221,-1.1879,13.7739,-46.6783,31.4435
895,-0.8814,-8.852,-0.7281,13.913,-49.1826,29.6348
900,-0.7281,-8.9286,-0.6131,14.8174,-51.4783,27.9652
905,-0.9197,-8.9286,-0.4598,15.6522,-54.0522,26.4348
910,-0.9197,-9.0819,-0.2682,15.5826,-57.0435,25.6
915,-0.7281,-8.967,-0.5365,14.8174,-59.9652,25.5304
920,-0.5365,-8.852,-0.2682,13.7739,-61.7739,26.087
925,-0.0383,-8.8137,0.1533,13.3565,-62.6087,26.4348
930,0.2299,-8.5454,0.1533,13.4957,-62.8174,26.9217
935,0.7281,-8.3921,0.1916,13.2174,-63.0957,27.3391
940,0.8814,-8.2005,-0.2299,11.9652,-62.9565,27.8261
945,1.1496,-8.0856,0.0,9.5304,-62.1217,28.4522
950,1.2646,-8.2389,0.0383,7.2348,-61.1478,29.2174
955,1.2646,-8.1239,-0.1916,5.4261,-61.0783,29.8435
960,1.4179,-7.8173,-0.3449,3.8261,-61.2174,30.2609
965,1.0346,-8.3538,-0.6514,1.9478,-61.7043,30.4
970,0.7281,-8.5071,-0.7664,0.0,-62.1913,30.4
975,0.5365,-8.737,-0.7281,-1.3913,-63.0261,30.1217
980,0.4598,-8.7754,-0.7664,-2.1565,-63.6522,29.5652
985,0.1533,-8.852,-0.7281,-2.3652,-64.0696,28.8
990,0.0383,-9.1202,-0.7281,-2.3652,-64.487,28.1043
995,0.0383,-9.1586,-0.6898,-2.2957,-64.9739,27.5478
1000,-0.0766,-9.2735,-0.5365,-1.9478,-65.6,26.9913
1005,-0.3066,-9.2735,-0.4982,-1.2522,-65.7391,26.5043
1010,-0.4215,-9.3118,-0.4598,-0.2783,-65.3913,26.3652
1015,-0.6131,-9.2735,-0.6131,0.2783,-64.9739,26.5043
1020,-0.4598,-9.4268,-0.5748,0.4174,-64.6957,26.9913
1025,-0.4598,-9.3118,-0.3832,0.487,-64.6957,27.8261
1030,-0.3066,-9.3885,-0.2299,1.1826,-64.9043,29.1478
1035,-0.1533,-9.2735,-0.2299,2.3652,-64.9043,30.6087
1040,0.1916,-9.5034,-0.1916,3.6174,-64.9043,31.9304
1045,0.1533,-9.4268,-0.3066,4.4522,-65.3217,32.7652
1050,0.2682,-9.3502,-0.3449,4.8696,-66.3652,33.113
1055,0.0,-9.3885,-0.0383,4.9391,-67.687,33.113
1060,0.0,-9.4268,-0.2299,5.2174,-69.4957,33.0435
1065,-0.1916,-9.3118,-0.2682,5.287,-71.8609,33.1826
1070,-0.4215,-9.0436,-0.2299,4.3826,-74.2261,33.113
1075,-0.5365,-8.9286,-0.3449,2.1565,-76.0348,32.9043
1080,-0.6131,-8.852,-0.0766,-0.2783,-77.4261,32.6261
1085,-0.5748,-8.6987,-0.0766,-2.4348,-78.3304,32.4174
1090,-0.3449,-8.737,-0.115,-4.2435,-78.7478,32.1391
1095,-0.1533,-8.6604,-0.1533,-5.7739,-78.8174,31.4435
1100,0.0,-8.5071,-0.3066,-7.0957,-78.6087,30.9565
1105,0.0,-8.5454,-0.3832,-8.3478,-78.0522,30.4
1110,0.0383,-8.4305,-0.4215,-8.9739,-77.2174,30.1913
1115,0.1533,-8.4688,-0.4982,-9.1826,-75.5478,30.9565
1120,0.3832,-8.5454,-0.5748,-9.1826,-73.6,32.3478
1125,0.2682,-8.5454,-0.8047,-9.2522,-72.2783,33.113
1130,0.4982,-8.4688,-0.7664,-9.8087,-71.513,33.6
1135,0.5748,-8.3921,-0.7664,-10.2261,-70.8174,35.2696
1140,0.5748,-8.5838,-0.6898,-11.1304,-69.7739,37.0783
1145,0.5748,-8.5838,-0.4598,-12.5913,-69.0087,38.8174
1150,0.4598,-8.852,-0.5365,-14.1913,-68.7304,40.6261
1155,0.3066,-8.7754,-0.3832,-15.5826,-69.7739,42.2957
1160,0.0766,-8.9286,-0.6514,-16.5565,-71.6522,43.7565
1165,0.0,-8.8137,-0.8814,-17.6,-73.9478,45.0087
1170,-0.4598,-8.737,-1.2646,-19.4783,-76.1739,46.1217
1175,-0.958,-8.5454,-1.5711,-22.6783,-78.0522,46.8174
1180,-1.4562,-8.5838,-2.1459,-26.0174,-79.8609,46.887
1185,-1.6478,-8.3921,-2.3375,-29.0087,-81.6,46.5391
1190,-1.6095,-8.2389,-2.3375,-31.5826,-83.8957,45.7739
1195,-1.5328,-8.1622,-2.7591,-34.2957,-86.7478,45.1478
1200,-1.3029,-8.1239,-2.7591,-37.0783,-90.2957,44.8696
1205,-1.2263,-8.0089,-2.9123,-39.1652,-94.3304,44.7304
1210,-1.6861,-8.2389,-2.3759,-40.6957,-97.9478,47.3043
1215,-1.7244,-8.2389,-2.7974,-40.8348,-103.7217,47.6522
1220,-1.5328,-8.2389,-3.1806,-40.7652,-110.3304,46.7478
1225,-1.1879,-8.2772,-3.2572,-42.713,-114.1565,46.8174
1230,-0.8047,-8.2005,-3.2572,-45.913,-117.1478,47.3739
1235,-0.5748,-8.2772,-3.2955,-49.113,-119.3739,48.4174
1240,-0.3832,-8.0473,-3.2955,-51.8261,-121.4609,50.2261
1245,-0.0766,-7.8173,-3.4488,-54.1217,-122.6435,53.8435
1250,0.0383,-7.5108,-3.832,-57.113,-123.6174,56.6261
1255,0.2682,-7.0893,-4.0236,-59.6174,-124.313,59.1304
1260,0.3449,-6.8593,-3.7937,-61.287,-124.6609,61.6348
1265,0.0383,-6.5145,-3.7554,-61.7739,-126.1913,63.7217
1270,-0.1916,-6.4378,-3.5638,-61.2174,-128.0,66.4348
1275,-0.3832,-6.0163,-3.6787,-61.0783,-129.7391,69.7739
1280,-0.3066,-6.1313,-3.832,-63.3043,-130.2957,74.9217
1285,-0.6514,-5.978,-3.947,-68.8,-131.7565,77.4957
1290,-0.7281,-5.978,-3.9087,-73.5304,-133.9826,78.0522
1295,-0.843,-5.8247,-4.0236,-77.4957,-136.8348,78.887
1300,-0.958,-5.9013,-3.9853,-81.8783,-139.1304,81.8087
1305,-1.6478,-6.3995,-3.8704,-87.8609,-143.0957,83.7565
1310,-2.031,-6.7444,-3.832,-92.9391,-148.313,84.8696
1315,-1.916,-7.1276,-3.4488,-95.1652,-152.6957,87.6522
1320,-1.4179,-7.0509,-3.5638,-93.2174,-153.5304,94.2609
1325,-1.8777,-7.2042,-3.5255,-89.6696,-150.4,103.6522
1330,-2.7974,-7.2042,-3.3722,-83.2696,-151.8609,106.0174
1335,-3.3339,-7.0893,-3.4488,-76.8696,-157.287,105.2522
1340,-3.4488,-6.7827,-3.1423,-69.4261,-160.0,108.3826
1345,-3.4488,-6.2462,-3.1806,-58.7826,-157.913,113.9478
1350,-4.4835,-5.8247,-2.6058,-48.7652,-159.3043,110.8174
1355,-4.8284,-4.8284,-2.7207,-38.3304,-163.6174,104.1391
1360,-4.8667,-3.832,-2.5675,-27.8957,-165.0783,101.4957
1365,-5.2882,-2.9507,-2.4908,-19.2,-165.287,100.313
1370,-5.6331,-2.4908,-1.7244,-11.4783,-165.0087,102.2609
1375,-6.1696,-2.2226,-1.2263,-2.2957,-165.4261,104.5565
1380,-7.3575,-1.9543,-0.7664,6.887,-170.4348,101.5652
1385,-6.8977,-2.2226,-0.7281,15.0261,-177.0435,100.7304
1390,-6.5911,-1.916,-0.8047,18.3652,-183.0957,100.4522
1395,-7.3958,-1.3795,-0.0383,13.7739,-190.2609,95.3043
1400,-7.8173,-0.5365,0.3449,3.9652,-201.6696,89.5304
1405,-7.5491,-0.4215,0.843,-6.1217,-214.1913,87.2348
1410,-7.5491,-0.1916,0.8814,-10.8522,-224.2087,86.887
1415,-6.7444,0.3066,0.843,-14.5391,-231.513,89.113
1420,-5.978,0.6131,0.3449,-26.5043,-234.8522,90.0174
1425,-4.062,-0.0766,1.6478,-46.8174,-233.6696,90.2957
1430,-3.3722,-1.1879,2.7591,-61.0783,-230.4696,86.4
1435,-3.832,-2.989,2.7591,-64.2783,-231.513,82.5739
1440,-5.5948,-4.7134,1.6861,-63.0261,-237.9826,83.7565
1445,-7.4341,-6.6677,0.8814,-58.5739,-245.7739,92.6609
1450,-9.5418,-8.4688,-0.0383,-47.513,-247.513,102.5391
1455,-10.4998,-10.768,-0.7664,-34.6435,-243.8261,104.0696
1460,-11.9943,-12.799,-0.3832,-22.9565,-239.8609,97.3913
1465,-15.2515,-13.5271,1.3029,-10.4348,-235.8261,94.5391
1470,-18.1638,-15.3281,2.7591,4.2435,-238.4,95.7913
1475,-19.505,-17.8956,3.9087,16.1391,-253.2174,94.5391
1480,-23.1838,-20.7696,5.5948,24.5565,-275.9652,89.9478
1485,-28.3954,-25.4064,8.5071,39.3043,-303.513,86.4
1490,-33.6069,-30.6946,12.3391,72.6957,-326.4,87.7217
1495,-37.8605,-35.408,16.0945,124.1043,-345.6,93.3565
1500,-39.6998,-37.0941,18.3938,178.2957,-349.0087,95.0957
1505,-39.4699,-35.7145,15.4814,207.6522,-337.5304,92.6609
1510,-30.6562,-33.6069,10.4614,184.0,-318.1217,90.7826
1515,-16.2095,-31.0778,8.737,123.9652,-294.3304,74.1565
1520,-8.2005,-26.4793,9.695,86.1217,-271.9304,45.8435
1525,-5.5181,-19.1602,7.7024,96.2783,-267.0609,42.7826
1530,-3.7554,-11.4961,9.5418,124.8696,-274.4348,70.4696
1535,-0.4215,-7.7407,15.9029,170.087,-270.887,109.6348
1540,-0.3066,-5.863,18.7386,240.5565,-247.513,151.3043
1545,-3.6404,-4.4068,18.5087,296.3478,-223.3739,186.3652
1550,-5.7097,-1.8394,20.1182,321.6,-206.4,202.3652
1555,-5.1349,-3.947,19.0452,333.2174,-178.2957,209.1826
1560,-5.3265,-4.6751,17.589,324.6609,-154.2261,206.2609
1565,-5.9013,-5.6714,12.8373,302.4696,-140.7304,190.4696
1570,-7.2809,-6.4761,7.779,269.3565,-145.113,157.2174
1575,-6.2079,-7.1276,3.7937,237.2174,-159.7913,126.6783
1580,-4.79,-7.779,2.0693,219.5478,-164.6609,104.0696
1585,-4.79,-8.4305,2.5291,220.0348,-158.1217,84.6609
1590,-4.5601,-8.5454,-0.1533,231.7913,-150.1217,65.8087
1595,-4.7134,-8.6604,-1.1113,239.0957,-138.5739,60.1739
1600,-4.3685,-9.0819,0.0,235.7565,-132.313,61.0087
1605,-4.062,-8.3155,1.2646,227.2,-136.0,58.5739
1610,-3.6787,-7.4725,1.9927,215.1652,-142.1217,55.7217
1615,-3.4488,-6.7827,2.6824,196.5913,-150.4696,53.4261
1620,-4.4068,-5.0966,3.5638,175.4435,-159.7913,49.8087
1625,-5.4798,-3.2955,4.3685,157.9826,-167.1652,48.6261
1630,-5.748,-1.1113,4.79,147.7565,-172.3826,50.087
1635,-5.2116,0.6898,5.1732,141.2174,-175.2348,51.3391
1640,-4.905,2.2609,5.863,138.8522,-175.3739,51.5478
1645,-5.2882,3.1423,7.0509,137.0435,-171.7565,52.8696
1650,-5.3648,3.4105,8.5838,135.1652,-168.487,52.7304
1655,-5.02,3.6021,9.2352,131.8261,-170.5043,47.3043
1660,-5.02,3.6787,10.5381,124.1739,-169.8783,37.0087
1665,-5.5181,3.3339,10.5764,116.8,-164.7304,25.8087
1670,-6.4378,2.989,10.7297,108.5217,-157.5652,16.7652
1675,-7.5491,2.3375,11.2279,98.7826,-152.8348,8.8348
1680,-7.9323,1.3412,12.7607,90.0174,-152.2783,6.2609
1685,-7.8173,0.2682,13.4504,83.2,-157.0087,3.4087
1690,-8.2389,0.1916,12.7607,78.7478,-160.5565,-1.3913
1695,-8.2005,0.7281,11.8027,72.487,-162.5739,-4.6609
1700,-8.0856,1.1496,11.4961,64.8348,-167.0261,-7.7913
1705,-7.0893,1.1879,12.4924,59.2696,-174.9565,-10.3652
1710,-5.5948,2.1076,12.3008,57.8783,-183.3739,-12.8
1715,-4.3302,3.2572,11.0746,55.7217,-187.7565,-18.7826
1720,-2.989,4.3685,9.925,48.5565,-185.7391,-26.087
1725,-1.3029,5.1732,8.9286,38.887,-182.6087,-33.113
1730,-0.6898,5.5564,8.4688,31.1652,-180.3826,-39.3043
1735,0.0766,6.2079,7.6641,29.0087,-180.6609,-42.087
1740,1.7627,6.6294,6.7827,30.4696,-181.2174,-40.6957
1745,2.4525,7.0509,6.0163,32.7652,-179.8261,-40.6957
1750,2.7207,6.8977,5.9013,32.3478,-175.4435,-38.6087
1755,3.1039,6.7827,6.2462,29.5652,-168.0696,-34.0174
1760,3.2189,6.8977,6.7061,26.713,-160.0696,-27.687
1765,2.8357,6.4761,6.9743,25.8783,-152.8348,-22.887
1770,3.6404,6.3995,6.8593,25.1826,-147.9652,-19.6174
1775,4.0236,6.4378,7.2809,22.2609,-141.4957,-18.8522
1780,3.947,5.8247,8.5071,16.8348,-133.1478,-18.5043
1785,4.5984,4.5601,9.4268,12.2435,-127.8609,-18.3652
1790,4.8284,3.2572,9.695,10.087,-123.3391,-19.0609
1795,4.2152,2.3759,8.967,9.7391,-116.313,-19.2696
1800,4.2536,1.1496,8.3921,8.2783,-107.9652,-16.3478
1805,3.947,0.958,7.8173,7.0957,-97.2522,-11.7565
1810,3.7171,0.6514,7.779,6.1913,-87.9304,-5.2174
1815,3.8704,0.3066,7.779,5.7043,-81.9478,0.6261
1820,3.832,0.1916,8.0856,6.3304,-76.3826,4.5913
1825,3.4871,0.2682,8.0856,8.1391,-70.8174,8.5565
1830,3.1806,0.4598,8.2772,9.6,-66.087,13.2174
1835,2.989,0.843,8.0089,10.087,-62.6087,17.5304
1840,2.7207,1.4945,7.8173,10.3652,-58.713,20.5913
1845,2.6824,1.8394,7.6257,9.8783,-53.913,23.513
1850,2.6824,2.031,7.8173,9.8087,-48.5565,26.713
1855,2.9507,1.9927,7.9323,9.6696,-43.1304,30.3304
1860,2.9123,2.031,7.8173,8.6957,-38.6783,32.7652
1865,2.4142,2.1843,8.2389,6.4,-35.3391,34.9913
1870,2.2609,1.4562,8.3538,3.2,-34.4348,37.5652
1875,2.3759,1.5328,8.852,-0.0696,-36.1739,39.3043
1880,2.3375,1.6478,9.0053,-3.5478,-40.5565,39.0261
1885,1.916,1.5711,9.1202,-7.513,-46.4696,37.913
1890,1.8011,1.6095,8.967,-12.313,-53.0087,36.8696
1895,1.3412,1.8394,8.967,-18.2957,-58.5043,35.3391
1900,1.3029,1.8777,9.0053,-24.2783,-61.6348,33.8783
1905,1.4179,1.6478,9.1202,-27.8261,-61.7043,32.4174
1910,1.4179,1.3412,9.0436,-28.1739,-59.0609,30.9565
1915,1.5711,1.5328,8.7754,-26.5739,-54.6087,29.7739
1920,1.5711,1.7627,8.3155,-25.5304,-49.8783,29.2174
1925,1.916,1.6861,8.2005,-24.9739,-44.9391,28.9391
1930,2.3375,1.5328,8.5454,-26.2261,-40.487,28.5913
1935,2.5675,1.3412,8.737,-27.687,-37.4957,28.313
1940,2.9507,1.2263,8.8137,-28.7304,-35.2696,28.1043
1945,3.3722,1.2646,8.737,-30.8174,-33.7391,27.8261
1950,3.6021,1.3029,8.8137,-34.9217,-33.2522,27.1304
1955,3.9853,1.5711,8.8903,-39.8609,-33.113,26.2261
1960,3.832,1.6861,8.8137,-44.7304,-32.5565,25.3217
1965,3.9853,1.6095,8.6604,-48.7652,-32.7652,25.4609
1970,4.062,1.6861,8.5838,-52.8,-33.113,25.8783
1975,4.0236,1.5711,8.0089,-55.8609,-33.6696,26.1565
1980,3.4105,1.6478,8.3155,-57.3217,-32.8348,26.2957
1985,3.3722,1.073,8.6987,-56.6261,-31.0957,27.2696
1990,3.2955,0.6514,8.6604,-53.7739,-29.0783,27.1304
1995,3.5255,0.5748,8.4305,-52.313,-26.2957,26.3652
2000,4.1003,0.3449,8.1239,-53.1478,-22.8174,25.6696
2005,4.79,0.3449,8.3538,-54.4,-20.0348,24.2783
2010,4.9433,0.3066,9.1586,-54.5391,-18.713,22.7478
2015,5.1732,0.3066,9.695,-52.5913,-18.6435,22.2609
2020,5.1732,0.3066,9.3502,-49.5304,-18.713,21.8435
2025,5.3648,0.5748,9.3885,-47.9304,-17.6,21.4957
2030,5.7097,0.3449,9.9633,-48.1391,-16.3478,21.8435
2035,6.5528,0.0,10.5764,-47.4435,-14.8174,20.8696
2040,6.3229,-0.4215,10.768,-44.7304,-13.0087,18.3652
2045,5.9396,-0.8814,10.4231,-40.9043,-10.9217,17.7391
2050,4.9433,-0.843,10.2698,-37.3565,-8.4174,18.1565
2055,4.6751,-0.8814,10.2698,-34.7826,-6.8174,19.6174
2060,4.2152,-0.9963,10.6914,-32.3478,-5.0087,20.1043
2065,3.6787,-1.2263,10.9596,-28.8,-2.087,20.2435
2070,3.5638,-1.6095,10.8446,-24.5565,0.9043,20.313
2075,3.5255,-1.6095,10.4614,-21.0087,4.2435,20.0348
2080,2.8357,-1.4562,10.2315,-19.5478,7.3739,19.4783
2085,2.5675,-1.073,10.4231,-19.5478,10.4348,20.6609
2090,2.6058,-1.1113,10.653,-18.713,12.7304,22.8174
2095,2.7207,-1.0346,10.4231,-16.4174,14.4,24.6957
2100,2.7591,-1.3029,9.9633,-15.0957,15.2348,26.2957
2105,2.6441,-1.7244,9.4268,-16.3478,16.2087,27.8957
2110,2.5291,-2.0693,9.2735,-19.0609,17.6,29.0087
2115,2.8357,-2.3759,9.3118,-21.913,19.4087,29.913
2120,3.1423,-3.1039,9.0819,-22.6087,21.0087,30.0522
2125,3.1806,-3.6021,8.8137,-20.7304,21.9826,29.7739
2130,3.6404,-3.4488,7.779,-15.0957,25.8087,29.1478
2135,3.3339,-3.4105,8.5071,-9.9478,33.8783,26.5043
2140,3.6021,-3.2572,8.3538,-5.1478,38.0522,24.8348
2145,3.7937,-3.4105,8.4305,-2.087,37.287,25.113
2150,3.4871,-3.1423,7.894,2.5739,36.3826,24.9739
2155,2.4525,-2.6824,7.9323,6.2609,38.4696,24.7652
2160,2.1459,-2.1076,8.3921,7.8609,40.487,24.1391
2165,2.0693,-1.6478,9.1586,4.7304,42.5043,22.8174
2170,1.9543,-1.6095,9.5418,-1.9478,46.1217,21.287
2175,1.916,-1.8011,9.5034,-8.6261,49.8783,19.6174
2180,1.8777,-1.8011,9.1202,-14.3304,53.0087,17.9478
2185,1.916,-1.8777,8.852,-18.9217,55.0261,16.5565
2190,1.7244,-2.1076,8.5838,-22.6087,56.6957,16.1391
2195,1.6861,-2.4525,8.6221,-22.1913,57.7391,16.0
2200,1.3795,-3.0656,8.6987,-18.9217,57.4609,15.2348
2205,1.5328,-3.0273,8.852,-15.1652,56.8348,14.6783
2210,1.2646,-3.5638,9.2735,-14.0522,56.8348,13.7043
2215,1.3412,-4.062,9.3885,-11.2696,56.3478,13.7739
2220,0.9197,-4.1769,9.5034,-6.4696,55.8609,13.1478
2225,0.6131,-4.1769,8.967,-2.8522,54.1217,12.313
2230,0.5365,-3.9853,8.852,-3.0609,51.8957,10.5043
2235,0.115,-3.7937,8.9286,-3.9652,49.8087,8.4174
2240,0.1916,-3.9087,8.8903,-4.1043,48.4174,6.5391
2245,0.0383,-3.6021,8.737,-2.2261,48.2087,3.8261
2250,0.1533,-3.0273,8.6221,-2.087,48.0,1.113
2255,0.0383,-2.7974,8.0856,-4.313,47.5826,-1.7391
2260,0.0,-2.8357,8.3921,-7.513,46.9565,-3.2
2265,-0.2299,-2.7974,7.7407,-8.9043,45.6348,-5.0783
2270,-0.843,-2.874,7.2809,-11.3391,44.7304,-8.3478
2275,-0.9197,-3.4105,7.4341,-14.6087,44.5217,-10.5043
2280,-0.843,-3.9853,7.5874,-16.4174,46.4696,-12.313
2285,-0.4215,-4.1769,8.0089,-17.7391,50.5739,-13.4261
2290,0.0383,-4.6368,8.737,-18.1565,54.5391,-14.0522
2295,0.2299,-4.2152,9.1202,-14.9565,57.1826,-17.0435
2300,0.0766,-3.7554,8.8903,-10.8522,56.7652,-19.9652
2305,0.1916,-3.3339,9.3118,-8.0,54.6783,-21.913
2310,-0.0766,-3.1423,9.3118,-4.5913,51.3391,-23.2348
2315,-0.2682,-3.2955,9.0053,-0.6957,47.6522,-22.3304
2320,-0.7281,-3.6404,9.1202,2.5739,46.5391,-22.5391
2325,-1.1113,-3.6021,9.1969,5.4261,47.6522,-23.7217
2330,-0.9197,-3.6021,9.3885,6.0522,49.2522,-23.6522
2335,-0.8047,-3.7171,9.4651,3.8957,50.2261,-24.7652
2340,-0.7281,-3.7937,9.8866,1.113,48.4174,-27.8261
2345,-0.4598,-3.1806,9.4651,0.7652,43.0609,-31.7217
2350,-0.2682,-3.0656,9.2352,-1.0435,38.4696,-32.3478
2355,0.4982,-3.0656,8.8137,-3.2696,36.1043,-32.3478
2360,0.2682,-2.4525,8.5454,-4.1739,37.3565,-35.8261
2365,-0.6898,-2.031,8.1239,-4.1043,40.5565,-37.9826
2370,-1.3412,-1.8011,8.2389,-3.5478,43.2,-35.5478
2375,-1.2646,-2.1459,8.6221,-2.6435,45.7043,-28.8
2380,-0.3066,-2.7591,8.737,1.3913,46.0522,-25.0435
2385,-0.8047,-2.5675,8.5838,7.8609,45.287,-28.3826
2390,-1.4945,-2.1459,9.0436,11.8261,43.7565,-30.6087
2395,-2.2226,-2.031,9.3885,12.3826,42.087,-27.8957
2400,-2.0693,-2.2609,9.81,10.8522,39.7217,-21.7043
2405,-2.0693,-2.3375,9.81,9.7391,36.2435,-17.8087
2410,-2.1076,-2.6441,9.3502,10.0174,32.2087,-18.1565
2415,-2.2992,-2.7974,9.5801,11.7565,29.3565,-19.6174
2420,-2.5675,-2.6058,9.3885,13.6348,27.4783,-18.0174
2425,-2.4142,-2.5291,9.2735,14.4,25.9478,-14.6087
2430,-2.2609,-2.0693,9.1969,13.9826,24.0,-12.5913
2435,-2.7974,-1.8011,9.2352,12.5913,22.4,-10.5739
2440,-2.7591,-1.8394,9.0053,12.5217,19.4087,-8.3478
2445,-2.6441,-1.8777,8.7754,13.7739,15.7913,-7.7217
2450,-2.5291,-2.1076,8.6221,15.0261,13.9826,-7.1652
2455,-3.0273,-1.8394,8.6604,14.7478,13.7739,-6.887
2460,-2.8357,-1.9543,8.737,14.6087,13.1478,-5.6348
2465,-2.5675,-2.1076,8.6987,15.6522,11.8261,-4.3826
2470,-2.6441,-2.0693,8.8137,16.3478,10.8522,-3.2696
2475,-2.5291,-2.031,8.8137,16.5565,9.9478,-2.2957
2480,-2.2992,-2.1459,8.737,16.3478,8.9043,-1.3913
2485,-2.1843,-2.1459,8.9286,15.9304,8.0,-0.6261
2490,-2.1843,-2.2609,8.6987,15.0957,7.513,0.1391
2495,-1.916,-2.1459,8.8137,14.4,7.2348,1.113
2500,-1.8777,-2.031,8.9286,13.4261,6.887,1.9478
2505,-1.6478,-1.9543,9.0053,12.5217,6.2609,2.5739
2510,-1.4562,-1.8777,9.1586,11.4783,5.4957,3.0609
2515,-1.4179,-1.6478,9.1969,10.9217,4.7304,3.9652
2520,-0.7281,-1.7627,9.4651,10.6435,3.8957,4.7304
2525,-0.4982,-1.916,9.3118,10.7826,3.687,4.1739
2530,-0.843,-1.7244,9.2352,10.6435,3.7565,3.6174
2535,-0.9197,-1.6478,9.3502,9.5304,2.9913,2.9913
2540,-0.4982,-1.8777,9.4268,7.8609,2.2261,3.2696
2545,-0.2682,-1.9543,9.4268,7.1652,2.2957,2.9913
2550,0.0,-1.8777,9.2735,6.9565,2.9913,2.5043
2555,0.1533,-2.1843,9.1969,6.6087,3.8957,2.2261
2560,0.1533,-2.3759,9.4268,7.3739,4.9391,2.087
2565,0.2299,-2.1843,9.2352,9.3217,5.5652,1.9478
2570,0.0383,-2.031,9.2352,10.6435,6.0522,1.6696
2575,0.115,-1.916,9.0436,11.2,6.1913,1.9478
2580,0.1533,-1.916,9.1202,10.9913,6.1217,1.8783
2585,0.0766,-1.8011,9.0053,10.8522,5.7739,1.7391
2590,0.0766,-1.7627,9.1969,10.5043,5.4261,1.5304
2595,0.0766,-1.7244,9.1586,9.8783,4.8,1.5304
2600,0.0,-1.7244,9.1586,9.7391,4.4522,1.5304
2605,-0.0383,-1.6861,9.1586,9.7391,4.0348,1.6696
2610,0.0,-1.6861,9.2735,9.8783,3.4087,1.6
2615,0.115,-1.916,9.2735,10.087,2.9217,1.0435
2620,0.0,-1.7627,9.1202,10.2957,2.2957,0.6957
2625,0.0383,-1.8011,9.2352,9.9478,1.7391,0.2087
2630,0.115,-1.7244,9.4651,9.1826,1.0435,0.0
2635,0.0,-1.6095,9.2735,8.0696,0.2087,-0.2783
2640,-0.0766,-1.5328,9.2352,6.9565,-0.2783,-0.2783
2645,-0.0766,-1.5711,9.3885,6.0522,-0.7652,-0.4174
2650,0.0,-1.4945,9.1969,5.3565,-1.1826,-0.2783
2655,-0.1533,-1.4945,9.1202,4.3826,-1.2522,0.0696
2660,-0.3449,-1.3795,9.0819,3.4783,-1.2522,0.4174
2665,-0.1533,-1.5328,9.2735,1.8087,-1.5304,0.8348
2670,-0.1533,-1.7627,9.1202,0.8348,-1.2522,1.1826
2675,-0.1533,-1.9543,9.1586,0.6261,-0.1391,1.4609
2680,-0.1916,-1.5711,9.0819,1.4609,1.113,1.6696
2685,-0.2682,-1.9543,9.1969,2.4348,2.3652,2.0174
2690,-0.3449,-1.7244,9.1586,3.4087,3.4087,2.1565
2695,-0.4215,-1.6861,9.1969,4.0348,4.1739,2.4348
2700,-0.3832,-1.5328,9.2735,4.4522,4.8,2.7826
2705,-0.4215,-1.4945,9.2352,4.7304,5.287,2.7826
2710,-0.3832,-1.5711,9.4651,4.8,5.7043,2.8522
2715,-0.3832,-1.5711,9.2735,4.9391,6.6087,3.2
2720,-0.3832,-1.4562,9.4268,5.0087,7.513,3.2
2725,-0.6514,-1.3795,9.4268,4.8,8.2783,3.2
2730,-0.4982,-1.4562,9.3502,4.313,8.4174,3.1304
2735,-0.6898,-1.3029,9.4268,3.6174,8.3478,3.1304
2740,-0.6131,-1.3795,9.4268,2.9913,8.0696,2.9913
2745,-0.6131,-1.5711,9.5418,2.4348,7.5826,2.713
2750,-0.6131,-1.5711,9.4651,1.8087,6.9565,2.1565
2755,-0.4982,-1.5711,9.3502,0.8348,6.4696,1.8087
2760,-0.3832,-1.6095,9.3885,0.2087,6.1913,1.6
2765,-0.3449,-1.6095,9.1586,-0.2087,6.1217,1.2522
2770,-0.4215,-1.5328,9.3118,-0.9043,6.1913,1.113
2775,-0.3832,-1.6095,9.3885,-1.7391,6.2609,0.9739
2780,-0.5365,-1.6478,9.3502,-1.8783,6.2609,0.8348
2785,-0.4982,-1.8011,9.3885,-2.0174,6.1913,0.6957
2790,-0.4598,-1.7627,9.2352,-1.7391,6.1217,0.3478
2795,-0.2682,-1.7627,9.3502,-0.6957,6.2609,0.2087
2800,-0.4598,-1.8011,9.2352,0.3478,6.4,0.0
2805,-0.6131,-1.6861,9.3502,1.2522,6.5391,-0.3478
2810,-0.6131,-1.4945,9.1586,1.8087,6.6087,-0.7652
2815,-0.5748,-1.4945,9.1586,2.0174,6.8174,-0.8348
2820,-0.6131,-1.4562,9.1969,1.8783,6.9565,-0.9739
2825,-0.4982,-1.6095,9.2735,1.8087,6.887,-1.0435
2830,-0.4982,-1.6095,9.2352,1.6696,6.8174,-1.0435
2835,-0.5365,-1.4562,9.3118,1.6,6.6783,-1.0435
2840,-0.7281,-1.4179,9.5418,1.4609,6.5391,-0.9739
2845,-0.6131,-1.4562,9.3885,1.3217,6.2609,-0.6957
2850,-0.8814,-1.5328,9.4268,0.8348,5.9826,-0.2783
2855,-0.6514,-1.4945,9.1969,0.2783,5.7739,-0.1391
2860,-0.6898,-1.6095,9.4651,-0.3478,5.7043,-0.0696
2865,-0.6898,-1.7244,9.4268,-1.1826,5.7043,-0.2087
2870,-0.7664,-1.6478,9.3502,-1.8783,5.8435,-0.4174
2875,-0.6898,-1.8011,9.2735,-2.0174,6.1913,-0.3478
2880,-0.7281,-1.6478,9.2735,-1.5304,6.7478,-0.2087
2885,-0.8047,-1.6861,9.1586,-0.7652,7.4435,0.0696
2890,-0.843,-1.4179,9.1202,-0.2783,8.0696,0.4174
2895,-0.843,-1.3795,9.0819,-0.5565,8.487,0.6261
2900,-0.843,-1.4945,9.1202,-1.1826,8.5565,0.3478
2905,-0.6898,-1.5711,9.2352,-1.3217,8.487,0.1391
2910,-0.7281,-1.5711,9.3885,-0.6957,7.8609,0.0696
2915,-0.6514,-1.7244,9.2352,0.5565,6.9565,-0.1391
2920,-0.5748,-1.6861,9.1969,2.1565,5.913,-0.3478
2925,-0.6898,-1.6478,9.1202,3.8957,5.3565,-0.3478
2930,-0.7281,-1.6095,9.1202,5.4261,5.287,-0.1391
2935,-0.5365,-1.3412,9.0819,6.2609,5.5652,0.0
2940,-0.6898,-1.4179,9.0053,6.2609,5.7739,0.0696
2945,-0.6131,-1.3029,9.1969,5.6348,5.8435,0.2087
2950,-0.5748,-1.3029,9.2735,4.8,5.5652,0.1391
2955,-0.5748,-1.4945,9.2352,3.6174,5.1478,0.0696
2960,-0.6131,-1.4945,9.2352,2.5739,4.6609,-0.0696
2965,-0.6131,-1.6861,9.3118,1.6,4.2435,-0.3478
2970,-0.6131,-1.6478,9.1969,0.6957,4.1043,-0.487
2975,-0.6898,-1.6478,9.3118,0.1391,4.1043,-0.8348
2980,-0.6131,-1.8011,9.2352,-0.6261,4.3826,-0.9043
2985,-0.5365,-1.8011,9.0819,-1.113,5.1478,-0.6957
2990,-0.5365,-1.8011,9.2352,-1.4609,5.8435,-0.5565
2995,-0.5748,-1.7627,9.1202,-1.4609,6.3304,-0.4174
