timestamp,accX,accY,accZ,gyroX,gyroY,gyroZ
0,-0.2299,-9.1202,1.1879,-66.713,5.287,2.3652
5,-0.2299,-9.0436,1.2263,-68.1739,5.0783,2.087
10,-0.4598,-9.0053,1.3412,-69.3565,5.0087,1.8087
15,-0.3066,-9.1202,1.1879,-70.9565,4.9391,2.1565
20,-0.3832,-9.0053,1.0346,-72.9739,4.9391,2.0174
25,-0.2682,-9.0053,1.1879,-75.2696,4.8696,1.9478
30,-0.0383,-9.1969,1.1879,-76.7304,4.8696,2.2261
35,-0.3449,-9.1586,1.2646,-77.6348,4.313,1.8783
40,-0.3832,-9.1969,0.7664,-78.1913,3.2696,1.6696
45,0.115,-9.0053,0.9197,-79.0261,2.9913,1.7391
50,-0.1533,-9.1969,0.7281,-80.2087,4.1043,1.8087
55,0.0383,-9.4268,0.7281,-81.9478,5.4261,2.6435
60,-0.0766,-9.3885,0.6898,-83.687,6.5391,2.713
65,-0.115,-9.3118,0.5365,-85.7739,7.5826,2.7826
70,0.0383,-9.3885,0.4215,-88.6261,8.3478,3.5478
75,-0.0383,-9.3885,0.1533,-91.9652,8.6261,3.9652
80,-0.2682,-9.4268,0.1533,-95.1652,8.4174,3.5478
85,0.0,-9.4651,0.1533,-97.3913,7.8609,3.6174
90,-0.0383,-9.4651,0.115,-99.4087,7.3739,3.4783
95,0.1916,-9.5034,0.115,-100.7304,7.1652,3.2
100,0.0766,-9.4651,0.0766,-101.4957,7.0261,2.7826
105,0.0383,-9.5801,0.2299,-101.913,6.9565,2.3652
110,0.0383,-9.5418,0.0,-102.3304,7.1652,2.087
115,-0.2299,-9.5418,0.1533,-102.6087,7.4435,1.8087
120,-0.0383,-9.5801,0.0,-102.6087,7.5826,1.7391
125,-0.1916,-9.5034,-0.0766,-102.3304,7.7913,2.1565
130,-0.2299,-9.5418,-0.2299,-101.8435,7.9304,2.713
135,-0.2682,-9.5418,-0.4215,-102.0522,8.0696,3.4087
140,-0.1916,-9.5801,-0.3832,-102.3304,7.5826,3.8261
145,-0.2299,-9.4651,-0.4215,-102.2609,6.6783,3.9652
150,-0.3066,-9.5801,-0.6898,-102.7478,5.8435,4.1739
155,-0.3066,-9.6567,-0.7664,-103.3043,4.8696,4.1739
160,-0.3066,-9.695,-0.7281,-103.8609,3.8957,4.4522
165,-0.3066,-9.7717,-0.8047,-104.6957,3.2,4.2435
170,-0.4215,-9.7334,-0.843,-104.9043,2.6435,3.8261
175,-0.3449,-9.8866,-1.0346,-104.4174,2.087,3.3391
180,-0.3832,-10.0399,-1.1496,-104.0696,1.5304,2.9217
185,-0.4982,-10.1932,-1.073,-104.2783,0.5565,1.9478
190,-0.1916,-10.3082,-1.5328,-104.2087,-0.5565,0.8348
195,-0.2682,-10.2315,-1.6861,-104.6261,-0.487,0.2087
200,-0.5365,-10.3082,-1.7627,-105.113,-0.1391,0.0
205,-0.3449,-10.1549,-2.0693,-105.6696,0.0,-0.2087
210,-0.4215,-10.3082,-2.2992,-107.3391,1.3217,-0.4174
215,-0.6131,-10.5381,-2.2226,-111.0261,2.7826,-0.6261
220,-0.5748,-10.7297,-2.0693,-115.3391,3.2,-0.6957
225,-0.7664,-10.6914,-2.1459,-119.0261,2.5739,-0.9739
230,-0.9963,-10.6914,-1.9543,-121.9478,1.5304,-0.9739
235,-0.9197,-10.8446,-1.9543,-124.5913,-0.0696,-0.3478
240,-1.0346,-10.6914,-2.2226,-127.0261,-1.113,0.2783
245,-0.8814,-10.6147,-2.1076,-130.9217,-0.6957,1.3217
250,-0.5748,-10.5764,-2.1459,-135.3043,0.6957,2.2957
255,-0.6514,-10.7297,-2.3759,-139.4783,3.2,3.8957
260,-0.7664,-11.2279,-2.4142,-144.9739,6.1217,5.0087
265,-0.6131,-11.3811,-3.2189,-149.1478,8.7652,5.6348
270,-0.6131,-11.1512,-3.3339,-153.3913,11.687,6.7478
275,-0.5365,-11.3045,-3.6404,-157.2174,12.6609,8.487
280,-0.3066,-11.2279,-4.2152,-158.4696,11.6174,11.4783
285,-0.2299,-11.4961,-4.5218,-158.1217,10.1565,14.4696
290,-0.3449,-11.3811,-4.8667,-156.5217,8.0696,16.3478
295,-0.3066,-11.3811,-5.02,-153.7391,6.2609,16.7652
300,-0.115,-11.4961,-5.0966,-149.7043,5.913,16.0696
305,-0.2299,-11.5344,-5.1349,-144.0,7.0261,15.0957
310,-0.3449,-11.6494,-5.4798,-140.0348,9.3217,14.0522
315,-0.3449,-11.726,-5.5564,-138.0174,11.7565,13.4261
320,-0.3066,-11.9176,-5.4798,-137.8783,13.6348,12.5217
325,-0.1533,-12.0326,-5.4415,-138.5043,15.2348,11.1304
330,-0.0766,-12.0709,-5.4798,-138.9217,16.1391,9.5304
335,-0.1916,-12.3391,-5.3265,-137.8087,16.2783,8.487
340,-0.3066,-12.4541,-5.4415,-134.0522,16.0,8.2783
345,-0.2682,-12.5691,-5.3265,-127.4435,15.7217,9.0435
350,-0.3066,-12.6457,-5.4798,-118.1217,15.3739,9.9478
355,-0.4598,-12.7223,-5.5564,-106.6435,15.0957,10.713
360,-0.2682,-12.4924,-5.748,-94.4,14.6783,10.8522
365,-0.4598,-12.2625,-6.0929,-82.4348,13.9826,10.4348
370,-0.5365,-11.9559,-6.2845,-71.6522,13.2174,9.8783
375,-0.4215,-11.9176,-6.1696,-62.6087,12.5217,8.6957
380,-0.5365,-11.6111,-6.4378,-55.0957,12.1739,7.0957
385,-0.4982,-11.3428,-6.2462,-48.487,12.1739,5.6348
390,-0.4982,-11.1512,-6.0929,-43.1304,12.313,3.9652
395,-0.5748,-10.7297,-5.9013,-38.9565,12.3826,2.1565
400,-0.5748,-10.4231,-5.9396,-35.9652,12.8696,0.3478
405,-0.4982,-10.1166,-5.8247,-34.5043,13.2174,-1.2522
410,-0.5748,-10.0016,-5.748,-34.0174,13.7739,-2.6435
415,-0.6131,-9.81,-5.8247,-34.2957,13.9826,-3.4087
420,-0.6131,-9.81,-5.863,-34.7826,13.913,-3.4783
425,-0.6131,-9.8483,-5.7097,-35.2696,13.7739,-3.3391
430,-0.5365,-9.81,-5.7097,-35.4783,13.287,-2.8522
435,-0.6131,-9.7334,-5.8247,-35.5478,12.5217,-2.1565
440,-0.4598,-9.7717,-5.863,-34.9217,11.4783,-1.4609
445,-0.5365,-9.9633,-5.7864,-33.4609,10.3652,-0.5565
450,-0.6131,-9.8483,-5.9396,-31.0957,9.0435,0.0696
455,-0.5365,-9.8866,-6.1696,-27.687,7.3739,1.113
460,-0.6131,-9.9633,-6.0546,-24.0696,5.7043,2.087
465,-0.4598,-10.1166,-5.863,-19.687,3.9652,2.6435
470,-0.6131,-10.0399,-6.0929,-14.1913,2.3652,2.9217
475,-0.4982,-10.0782,-6.1696,-9.0435,1.1826,3.3391
480,-0.5748,-9.8866,-6.0546,-3.9652,0.1391,3.4783
485,-0.6514,-10.0016,-5.7864,1.0435,-0.6957,3.2
490,-0.5365,-9.8866,-5.7097,6.1913,-1.1826,2.7826
495,-0.4982,-9.8866,-5.6714,11.1304,-1.6,2.4348
500,-0.4215,-9.7717,-5.7864,15.5826,-2.3652,1.6
505,-0.5748,-9.8483,-5.5564,19.2696,-3.0609,1.113
510,-0.4215,-9.6567,-5.5948,22.8174,-3.8261,0.5565
515,-0.4215,-9.81,-5.3265,25.8087,-4.6609,0.0
520,-0.5365,-9.6184,-5.3648,27.8957,-6.3304,-0.6957
525,-0.5365,-9.6184,-5.3265,29.287,-8.3478,-1.2522
530,-0.5365,-9.5418,-5.2882,30.7478,-10.0174,-1.3217
535,-0.6131,-9.5034,-5.2882,32.7652,-10.9913,-1.0435
540,-0.5365,-9.5801,-4.9816,35.1304,-12.4522,-1.1826
545,-0.4982,-9.5418,-4.9816,36.9391,-14.1913,-1.2522
550,-0.5748,-9.5034,-4.9433,38.4696,-15.5826,-1.5304
555,-0.4982,-9.4651,-5.0966,39.7913,-16.8348,-1.7391
560,-0.5748,-9.5034,-4.79,40.9739,-17.7391,-2.087
565,-0.4215,-9.4651,-4.7517,42.087,-18.8522,-2.5043
570,-0.5365,-9.4268,-4.6751,42.5043,-20.2435,-3.2
575,-0.3066,-9.2352,-4.8284,42.9217,-21.287,-3.7565
580,-0.6131,-9.3502,-4.4452,43.2696,-21.7043,-4.1043
585,-0.6131,-9.1969,-4.5601,42.8522,-22.3304,-4.4522
590,-0.5365,-9.3118,-4.4452,42.087,-22.6087,-4.8696
595,-0.5748,-9.3118,-4.5218,40.9739,-22.2609,-5.1478
600,-0.5748,-9.1969,-4.5218,40.1391,-21.3565,-5.0783
605,-0.6514,-9.0436,-4.4835,39.513,-20.3826,-5.2174
610,-0.6131,-9.1202,-4.4452,38.5391,-19.4783,-5.3565
615,-0.6898,-9.0053,-4.5218,37.0783,-18.7826,-5.3565
620,-0.6898,-8.9286,-4.4835,35.3391,-18.5043,-5.0783
625,-0.6131,-9.0436,-4.4835,33.6,-18.2261,-5.0087
630,-0.5748,-9.0819,-4.4068,32.0,-18.3652,-4.8696
635,-0.4982,-8.967,-4.6751,30.4,-18.0174,-4.7304
640,-0.5365,-9.1969,-4.7134,28.7304,-17.6,-4.5217
645,-0.6131,-9.0436,-4.5601,27.4087,-17.0435,-4.1043
650,-0.6514,-9.1969,-4.3302,26.1565,-16.5565,-3.6174
655,-0.6131,-9.1202,-4.3685,25.9478,-16.487,-3.3391
660,-0.6131,-9.0053,-4.5218,26.4348,-16.5565,-3.2696
665,-0.3832,-8.737,-4.5984,26.1565,-15.7913,-3.2
670,-0.6131,-9.0053,-4.3685,24.5565,-14.4696,-3.3391
675,-0.5748,-8.8137,-4.4452,23.9304,-14.1913,-3.2696
680,-0.6131,-8.5071,-4.5601,23.1652,-14.1217,-3.4087
685,-0.6514,-8.8137,-4.3685,22.4,-14.2609,-3.4087
690,-0.8047,-8.5454,-4.3685,21.8435,-14.6087,-3.4783
695,-0.6131,-8.5071,-4.3302,22.5391,-14.6087,-3.5478
700,-0.4598,-8.4305,-4.2919,23.0957,-13.5652,-3.687
705,-0.5748,-8.3538,-4.1769,22.8174,-11.3391,-3.7565
710,-0.8047,-8.2389,-3.8704,22.3304,-9.6696,-3.7565
715,-0.8814,-8.1239,-3.8704,22.7478,-9.2522,-3.8261
720,-0.8047,-7.894,-4.2152,22.887,-9.4609,-3.6174
725,-0.8814,-7.9323,-4.0236,21.9826,-9.113,-3.4783
730,-0.7664,-7.7024,-3.9853,21.7043,-9.1826,-3.6174
735,-0.6131,-7.5108,-4.062,20.8696,-9.1826,-3.4087
740,-0.6898,-7.3575,-3.832,17.7391,-8.9043,-3.2
745,-0.6514,-7.0893,-4.1769,15.1652,-9.5304,-3.2
750,-0.3449,-7.1659,-3.947,12.7304,-9.4609,-2.9217
755,-0.5748,-6.8977,-3.9853,10.713,-9.2522,-3.1304
760,-0.6131,-7.1659,-3.6404,10.2957,-8.6957,-3.3391
765,-0.5365,-6.8593,-3.9853,11.4783,-8.6261,-3.8261
770,-0.6131,-6.5911,-4.4068,11.4783,-8.4174,-4.2435
775,-0.843,-6.821,-4.1769,9.6696,-8.7652,-4.5913
780,-0.9197,-6.7827,-4.062,8.8348,-10.9217,-5.0087
785,-0.8047,-6.7061,-4.4452,9.8783,-14.1217,-5.4261
790,-1.0346,-6.6294,-4.2919,11.1304,-16.5565,-5.9826
795,-0.7664,-6.2462,-4.8284,12.7304,-18.6435,-6.5391
800,-0.7664,-6.2462,-4.6751,13.3565,-19.4087,-6.4696
805,-0.8814,-6.3995,-4.7134,13.6348,-19.9652,-6.4696
810,-0.9963,-6.3229,-4.5984,13.7739,-20.0348,-6.8174
815,-0.958,-6.2079,-4.7517,14.2609,-20.1739,-7.2348
820,-1.0346,-6.1313,-4.7517,13.9826,-20.0348,-7.4435
825,-1.2646,-6.2462,-4.4835,12.4522,-19.8261,-7.513
830,-1.1879,-6.2845,-4.2919,11.0609,-19.8957,-7.7217
835,-1.1496,-6.5911,-4.1003,9.8087,-20.313,-7.5826
840,-1.4179,-6.4761,-3.7554,9.0435,-20.9391,-7.513
845,-1.4562,-6.6294,-3.9087,8.2783,-21.8435,-6.9565
850,-1.3029,-6.8977,-3.3722,6.4,-22.6783,-5.7739
855,-1.3412,-6.9743,-3.4105,4.313,-23.513,-4.8696
860,-1.4562,-7.2042,-3.1039,3.3391,-24.3478,-3.9652
865,-1.2646,-7.2425,-3.2572,3.687,-24.9043,-2.5043
870,-1.2263,-7.4725,-2.9507,3.8261,-24.4174,-0.9043
875,-1.3029,-7.894,-2.7207,4.5913,-23.6522,-0.1391
880,-1.2263,-7.9706,-2.989,7.7913,-22.8174,0.5565
885,-1.0346,-8.0473,-2.989,11.6174,-21.0087,1.6
890,-1.1879,-8.0856,-2.989,14.7478,-17.9478,2.3652
895,-1.1879,-8.2005,-2.7591,17.113,-14.6087,2.9913
900,-1.3412,-8.2772,-2.1459,20.3826,-12.1739,3.1304
905,-0.8814,-8.3921,-2.6441,23.8609,-9.4609,3.3391
910,-1.073,-8.6987,-2.3375,26.5739,-7.2348,2.8522
915,-0.6514,-8.2772,-2.7974,30.4696,-5.287,1.8783
920,-0.6131,-8.5071,-2.3759,32.2087,-2.7826,1.2522
925,-0.3066,-8.4305,-2.4142,33.4609,-0.6261,-0.0696
930,-0.4215,-8.0089,-2.5291,35.0609,1.2522,-1.6
935,-0.1916,-8.3155,-2.2609,33.8783,2.9217,-2.9217
940,-0.115,-8.5071,-2.0693,33.1826,3.9652,-4.8
945,0.0383,-8.4305,-2.031,35.2,3.8957,-7.0957
950,0.3449,-8.0856,-2.2992,37.9826,4.2435,-9.3217
955,0.3449,-8.1622,-1.9927,39.2348,6.4,-10.9217
960,0.3449,-8.2005,-1.9927,40.9043,7.1652,-12.9391
965,0.0383,-8.5454,-1.9543,45.1478,6.887,-15.1652
970,0.3066,-7.8173,-2.4525,49.7391,7.2348,-16.2087
975,-0.115,-7.7024,-2.4142,51.3391,8.2783,-16.7652
980,-0.2299,-7.7407,-2.5675,52.1739,9.2522,-16.7652
985,-0.4598,-7.5108,-2.5675,53.4957,9.7391,-17.5304
990,-0.6514,-7.4725,-2.4908,54.1217,9.9478,-17.3913
995,-0.5365,-7.3575,-2.7974,54.4,9.3217,-17.113
1000,-0.7281,-7.1659,-2.7974,53.5652,8.8348,-16.5565
1005,-1.2263,-7.3192,-2.2226,51.8261,7.5826,-15.6522
1010,-1.3029,-7.3575,-2.031,52.1043,4.6609,-14.4
1015,-1.1879,-7.0126,-2.4142,53.8435,1.113,-13.0783
1020,-1.3412,-7.0509,-2.1843,53.0087,-2.0174,-11.1304
1025,-1.2263,-7.1659,-2.1076,49.7391,-4.8,-9.2522
1030,-1.4179,-6.9743,-2.1076,45.5652,-6.9565,-7.5826
1035,-1.6095,-7.5108,-1.5711,42.7826,-8.7652,-6.0522
1040,-1.5328,-7.6257,-1.6861,42.9217,-10.9913,-5.0087
1045,-1.6095,-7.2042,-1.7244,44.5913,-12.1043,-4.313
1050,-1.4562,-7.2425,-1.8011,46.3304,-12.2435,-3.2696
1055,-1.6861,-7.4725,-1.6095,47.8609,-11.1304,-2.9217
1060,-1.6861,-7.6257,-1.3029,50.3652,-10.7826,-2.7826
1065,-1.7244,-7.6641,-1.4945,54.4696,-11.0609,-2.5739
1070,-1.3795,-7.1276,-1.7244,57.2522,-11.7565,-2.6435
1075,-1.4179,-7.0509,-1.7627,57.3913,-12.4522,-2.9217
1080,-1.3029,-7.1276,-1.3412,56.7652,-13.4957,-3.687
1085,-1.0346,-7.2425,-1.2646,57.7391,-14.6783,-3.8957
1090,-0.8047,-7.2425,-1.1113,59.8261,-15.3739,-3.6174
1095,-0.843,-7.1276,-1.073,61.0087,-15.5826,-2.713
1100,-0.4982,-7.1659,-1.1113,60.5217,-16.4174,-1.9478
1105,-0.5365,-6.8593,-1.1113,59.4087,-17.3217,-1.7391
1110,-0.5365,-7.3192,-0.8047,58.713,-18.2261,-1.4609
1115,-0.4598,-6.5911,-0.9963,59.5478,-18.5043,-0.1391
1120,-0.3449,-6.6677,-1.1879,59.0609,-17.7391,1.4609
1125,-0.3066,-6.2462,-1.3412,57.3913,-16.1391,2.5739
1130,-0.4215,-6.2845,-1.2646,55.2348,-14.1217,3.8957
1135,-0.5365,-6.7444,-1.0346,53.7043,-12.5913,4.8
1140,-0.1916,-6.821,-0.8047,54.5391,-12.8696,4.6609
1145,-0.0383,-6.5528,-0.9197,56.487,-13.4261,4.6609
1150,0.0766,-6.1313,-1.1496,56.6261,-13.6348,4.2435
1155,0.3832,-6.1696,-1.0346,53.7739,-13.0087,5.6348
1160,0.1533,-6.4761,-0.7281,49.6,-13.1478,5.8435
1165,0.3449,-6.5528,-0.3832,45.7043,-13.7043,5.7043
1170,0.2682,-6.8593,-0.115,42.5043,-14.5391,4.9391
1175,0.2682,-7.0893,-0.0383,41.6,-15.6522,3.0609
1180,0.4598,-6.8977,-0.3066,41.3217,-16.2783,2.5043
1185,0.3832,-6.7827,-0.115,39.3043,-15.6522,3.2
1190,0.1533,-7.1276,0.1916,35.9652,-14.0522,3.3391
1195,0.2299,-7.2425,0.2299,33.0435,-12.8,2.1565
1200,0.3066,-7.5108,0.5748,30.8174,-11.4783,1.1826
1205,-0.115,-7.779,0.3832,30.7478,-10.0174,-0.2783
1210,0.0,-7.4725,0.5748,30.887,-8.2783,-1.9478
1215,0.115,-7.1659,0.1533,28.2435,-6.1217,-1.8087
1220,-0.3449,-8.4305,0.8814,21.7739,-3.6174,-2.7826
1225,-0.7664,-9.1969,1.1496,21.6348,-2.3652,-7.0957
1230,-0.2682,-7.5874,0.3832,23.7217,-1.113,-12.0348
1235,-0.3832,-8.0856,0.2682,21.0783,2.087,-12.7304
1240,-0.9197,-8.9286,0.958,18.4348,5.1478,-12.5913
1245,-1.1496,-8.6987,0.5365,19.2,5.287,-14.2609
1250,-1.0346,-9.3885,0.9197,17.6696,4.313,-15.8609
1255,-0.958,-9.81,1.073,19.6174,1.5304,-14.5391
1260,-0.6131,-8.737,0.7281,25.6,-2.3652,-13.2174
1265,-0.5365,-7.779,0.3066,25.2522,-5.3565,-12.9391
1270,-0.7664,-9.0819,1.3412,18.2261,-7.6522,-9.8783
1275,-0.4982,-8.5838,1.5328,17.3217,-11.8261,-7.1652
1280,-0.4982,-8.0089,1.4562,16.6261,-15.2348,-5.9826
1285,-0.6898,-9.0053,2.031,14.1913,-17.0435,-3.7565
1290,-0.8814,-8.8903,2.3759,16.9739,-19.9652,-2.8522
1295,-1.0346,-7.9706,1.3795,22.5391,-24.9043,-3.4087
1300,-0.4982,-7.1659,0.1533,23.1652,-28.1043,-5.5652
1305,-0.3832,-6.936,0.115,19.0609,-28.5217,-5.9826
1310,-0.6131,-7.4725,0.3449,17.3913,-28.3826,-4.2435
1315,-0.3832,-7.1276,-0.1533,19.9652,-28.8696,-4.5913
1320,-0.1533,-6.8593,-0.5748,23.9304,-29.0783,-5.4957
1325,0.3449,-6.2845,-0.958,26.713,-28.7304,-5.8435
1330,0.7281,-6.1313,-1.0346,26.4348,-27.8957,-5.6348
1335,0.843,-5.5564,-1.1496,25.6,-26.4348,-5.7043
1340,1.4179,-5.1732,-1.1113,23.7217,-24.9739,-5.6348
1345,1.7627,-5.2499,-0.6898,21.0783,-23.5826,-5.3565
1350,1.8394,-4.5984,-0.843,19.2696,-22.6783,-5.8435
1355,1.8394,-4.79,-0.4982,16.6261,-21.7043,-5.3565
1360,1.8011,-4.4068,-0.5365,15.9304,-21.7739,-5.1478
1365,1.3795,-4.2152,-0.4982,14.7478,-22.1217,-5.0087
1370,1.0346,-3.9087,-0.5748,13.913,-23.6522,-4.8696
1375,0.7664,-3.4488,-1.073,11.8957,-25.4609,-4.3826
1380,0.4215,-3.4105,-1.2646,8.3478,-27.4087,-4.3826
1385,0.2299,-3.2572,-1.4179,4.0348,-29.2174,-4.1739
1390,-0.2299,-3.1039,-1.7627,-1.1826,-30.9565,-3.6174
1395,-0.2299,-3.1806,-1.5711,-6.887,-31.9304,-3.1304
1400,-0.3832,-3.2955,-1.8011,-13.1478,-32.1391,-2.6435
1405,-0.4982,-3.5255,-2.031,-20.1739,-32.0,-2.5739
1410,-0.4598,-3.7171,-2.031,-27.4783,-31.5826,-2.3652
1415,-0.5748,-4.1386,-2.1076,-34.7826,-30.6783,-2.087
1420,-0.4598,-4.5601,-2.1843,-41.6,-29.4957,-1.6
1425,-0.0766,-4.905,-2.1076,-48.7652,-28.4522,-1.1826
1430,0.3066,-5.4032,-2.3759,-56.8348,-26.8522,-0.6261
1435,0.2682,-5.863,-2.9123,-65.3217,-24.7652,-0.0696
1440,0.3449,-6.5528,-3.6404,-74.3652,-22.1217,1.0435
1445,0.4982,-7.3958,-3.9087,-84.8,-18.713,1.9478
1450,1.073,-8.3921,-4.9433,-97.7391,-13.7739,2.9217
1455,1.3795,-9.7717,-5.6331,-112.1391,-7.5826,3.3391
1460,2.0693,-11.6494,-6.4378,-127.8609,-0.9043,3.1304
1465,2.6058,-14.2935,-7.2042,-144.7652,5.913,2.5739
1470,2.7974,-18.0105,-7.5108,-161.6,12.0348,2.087
1475,3.1806,-23.8736,-8.0089,-175.9304,16.2087,2.3652
1480,3.5638,-33.6069,-8.4305,-184.5565,17.3217,5.9826
1485,3.2189,-47.6321,-9.3502,-183.0957,18.087,9.3217
1490,1.8394,-59.7414,-15.4431,-180.4522,20.4522,4.7304
1495,-1.4945,-72.9619,-20.1182,-210.5043,28.5913,-12.8696
1500,-13.2205,-76.3341,-22.5323,-250.2261,30.1913,-15.1652
1505,-4.905,-67.9802,-22.8772,-248.9739,21.5652,7.3739
1510,-1.2263,-47.7471,-21.8043,-210.4348,17.3913,15.1652
1515,-1.1879,-35.1397,-17.9339,-180.1739,15.7913,18.1565
1520,0.0,-26.6326,-12.3775,-154.7826,9.3913,21.1478
1525,0.0766,-19.4284,-8.2005,-126.5391,0.9043,22.5391
1530,0.8814,-12.1859,-5.6331,-105.6,-3.4783,26.8522
1535,-0.3066,-6.5145,-3.4105,-98.2261,-2.4348,32.2783
1540,-0.5748,-2.1843,-2.031,-104.7652,-2.3652,35.6174
1545,-1.5328,1.3795,-0.3066,-123.1304,-5.7739,33.1826
1550,-1.4945,3.9087,0.958,-149.0087,-10.3652,28.0348
1555,-1.0346,5.0966,2.874,-175.3043,-13.6348,22.5391
1560,-2.2609,5.2499,3.947,-198.1913,-15.1652,14.6087
1565,-5.2116,6.0163,4.9816,-216.9739,-16.6957,8.9043
1570,-6.1313,6.821,4.9816,-230.7478,-18.6435,12.3826
1575,-5.5564,6.3612,4.4452,-239.3739,-17.3217,17.5304
1580,-4.8667,6.7061,3.6021,-243.0609,-12.5913,19.7565
1585,-4.1003,6.8977,2.1843,-242.087,-5.913,21.1478
1590,-3.0273,6.7444,1.1113,-236.7304,-0.9739,22.4
1595,-2.6058,6.7061,-0.6898,-223.3739,2.0174,21.8435
1600,-2.2609,5.748,-2.2992,-203.9652,5.913,22.1913
1605,-1.6861,5.1349,-3.6787,-187.3391,9.7391,21.4261
1610,-0.843,4.1769,-4.5601,-176.8348,12.6609,20.5217
1615,0.0766,2.874,-5.1349,-169.6696,14.4,19.3391
1620,1.2646,1.916,-5.6714,-164.0348,16.0696,17.6
1625,1.3412,0.958,-5.863,-159.7913,18.087,16.2783
1630,1.7627,0.0,-5.978,-158.4,20.1043,13.7043
1635,1.8777,-1.1496,-5.748,-158.9565,21.2174,11.1304
1640,1.6095,-2.2992,-5.4415,-161.6,21.2174,9.113
1645,1.3412,-3.2572,-5.02,-166.3304,20.313,7.7217
1650,1.073,-4.1769,-4.4452,-173.6348,19.4087,7.3739
1655,0.843,-5.1732,-3.8704,-182.1217,18.5043,6.7478
1660,1.2263,-5.8247,-2.6824,-190.3304,17.3913,5.7043
1665,1.7627,-6.5528,-1.9927,-195.5478,17.113,4.8696
1670,1.9543,-6.8977,-1.3029,-196.4522,20.313,4.313
1675,2.4908,-7.0893,-0.6514,-194.2261,24.6957,2.9913
1680,2.9123,-7.0126,-0.115,-189.6348,29.9826,1.2522
1685,3.1039,-6.7444,0.3449,-182.4,35.8261,-0.6261
1690,3.0656,-6.4761,0.4215,-173.7043,41.8087,-2.1565
1695,3.2189,-6.0929,0.4982,-165.287,47.3739,-3.687
1700,3.2189,-5.4798,0.4215,-158.0522,52.9391,-4.9391
1705,3.0656,-4.9816,-0.0766,-152.487,58.0174,-5.8435
1710,2.8357,-4.6368,-0.4598,-148.5217,61.7739,-6.2609
1715,2.5675,-4.1769,-0.6514,-145.6,63.7913,-5.7043
1720,2.4142,-3.947,-1.1113,-142.2609,64.6957,-4.3826
1725,2.2226,-3.4871,-1.3412,-139.1304,64.9043,-2.5043
1730,2.1076,-3.3722,-1.9927,-136.2087,64.2783,-0.3478
1735,1.4945,-2.9507,-2.0693,-133.0783,62.5391,1.8087
1740,1.5328,-2.7974,-2.3759,-130.2261,59.8261,3.0609
1745,1.0346,-2.6441,-2.9123,-126.887,55.513,5.0087
1750,0.8814,-2.2992,-2.989,-124.0348,50.8522,5.7739
1755,0.8047,-2.2226,-3.1806,-120.9043,45.1478,6.6087
1760,0.4215,-1.6861,-3.3722,-117.4261,37.6348,7.7913
1765,0.115,-2.2226,-3.0656,-114.4348,27.8261,7.2348
1770,-0.4982,-2.2609,-3.0656,-111.8609,15.8609,6.1913
1775,-1.0346,-2.4142,-2.4525,-110.0522,2.6435,5.6348
1780,-2.1459,-2.4142,-2.1843,-108.5217,-11.3391,4.5217
1785,-3.1039,-2.2992,-2.1076,-107.687,-26.2261,3.2
1790,-4.2919,-2.4142,-2.3759,-107.3391,-42.1565,1.7391
1795,-5.5948,-2.4142,-2.7974,-105.8087,-58.0174,0.6261
1800,-6.9743,-2.2609,-3.6787,-102.7478,-73.3217,0.5565
1805,-8.3155,-2.3375,-4.9433,-99.6174,-88.6261,0.9739
1810,-9.9633,-2.1076,-6.0546,-97.113,-104.8348,1.5304
1815,-11.726,-1.7244,-6.9743,-96.0,-122.713,2.9217
1820,-13.4504,-1.1496,-7.5874,-96.5565,-142.6783,4.9391
1825,-15.5964,-0.5365,-8.3538,-97.5304,-163.7565,7.0957
1830,-17.5124,-0.0383,-8.967,-98.4348,-184.7652,9.5304
1835,-18.8153,0.2682,-9.6184,-101.0087,-206.8174,13.2174
1840,-19.6966,0.0766,-10.2698,-104.6261,-230.6783,17.9478
1845,-19.4667,0.2299,-10.9596,-106.2261,-255.0957,22.2609
1850,-18.9302,0.3066,-12.5307,-104.6957,-279.7913,28.3826
1855,-18.6237,0.3449,-14.1019,-101.9826,-302.9565,32.5565
1860,-20.1565,4.062,-41.5775,-115.4783,-309.9826,35.8957
1865,-10.6147,2.4525,-17.6273,-251.0609,-249.6696,44.1043
1870,-7.3192,8.5838,-28.2804,-294.6087,-207.0261,27.2
1875,-16.9759,5.7864,-15.1365,-245.2174,-131.3391,30.2609
1880,5.9013,-0.5365,-29.2384,-150.2609,-110.4696,50.0174
1885,3.2572,-1.6861,-39.5849,-116.8696,-45.9826,26.3652
1890,-1.916,6.3995,-29.545,-230.887,-24.1391,16.9043
1895,-3.2955,7.6641,-16.3245,-390.6087,-82.9217,18.4348
1900,6.7061,11.0746,-24.2951,-496.2783,-160.2783,12.5913
1905,2.8357,17.704,-11.0746,-519.3043,-156.313,33.3913
1910,4.4452,17.8189,-17.6273,-447.3739,-152.487,67.9652
1915,0.6131,13.642,-23.682,-343.2348,-117.0783,91.8261
1920,4.3685,8.1622,-29.9282,-295.9304,-79.4435,81.0435
1925,2.0693,9.2735,-28.587,-269.1478,-69.0783,68.313
1930,-2.7207,4.1386,-31.4993,-228.4522,-82.713,71.7913
1935,-9.1202,0.8814,-42.7271,-169.6,-64.5565,79.513
1940,-13.872,-2.6441,-47.3639,-139.8261,-11.2696,70.4696
1945,-14.83,-5.2116,-44.6815,-119.2348,42.0174,60.1043
1950,-12.4924,1.916,-37.1324,-104.9043,62.1913,62.4696
1955,-12.3775,2.4525,-29.4683,-89.5304,50.4348,68.5217
1960,-9.7717,0.9963,-24.0268,-69.8435,21.9826,81.5304
1965,-5.4032,0.4215,-18.8153,-54.8174,-15.2348,96.487
1970,-3.6404,0.6131,-15.558,-37.1478,-46.7478,108.5217
1975,-5.4798,2.1076,-14.6,-31.2348,-70.4,110.2609
1980,-5.5181,2.1459,-12.4924,-33.6696,-84.313,102.8174
1985,-1.4562,-0.0766,-11.4961,-36.9391,-84.1043,98.9217
1990,-0.8814,-1.073,-9.9633,-37.2174,-74.8522,99.8957
1995,3.2189,-2.2609,-8.852,-34.5043,-61.6348,107.4783
2000,1.4945,2.2992,-10.768,-39.0261,-50.2261,115.9652
2005,9.8483,1.0346,-11.0363,-49.7391,-51.8957,117.0783
2010,7.894,4.1003,-11.6494,-36.3826,-65.113,108.8696
2015,6.5528,3.4871,-8.737,-24.1391,-83.4087,76.6609
2020,6.7061,4.8667,-10.9596,-2.3652,-93.4957,42.3652
2025,6.0929,3.9087,-13.872,6.5391,-65.6696,0.487
2030,-9.6567,4.3302,-9.695,-6.0522,-4.7304,-43.5478
2035,-11.3811,0.5748,-8.3538,-23.0261,25.4609,-52.1739
2040,-10.9596,-0.8047,-7.3575,-42.9913,31.0261,-50.5739
2045,-10.3465,2.6058,-7.5108,-62.8174,36.3826,-50.8522
2050,-9.2352,1.9927,-6.7444,-76.7304,32.9043,-53.7739
2055,-10.2698,2.1843,-8.4688,-79.2348,28.8,-52.1043
2060,-12.0709,1.7244,-7.6257,-83.0609,27.0609,-49.8087
2065,-11.0363,1.8777,-6.2845,-83.3391,26.5043,-49.1826
2070,-9.925,2.3375,-6.5528,-77.7043,21.4957,-44.7304
2075,-7.3192,1.8394,-8.5071,-72.5565,14.4696,-37.7739
2080,-8.5071,2.9507,-8.3155,-69.5652,10.5739,-35.4783
2085,-8.2005,2.5291,-5.9013,-61.3565,11.8261,-32.7652
2090,-7.9706,2.1076,-6.936,-51.8261,4.9391,-27.8957
2095,-5.3265,1.2646,-7.0509,-42.5043,0.4174,-24.9043
2100,-7.9323,2.2226,-6.7061,-33.3217,0.6261,-20.7304
2105,-4.9816,2.2609,-7.7407,-24.7652,-2.0174,-15.3043
2110,-3.947,1.4945,-8.2005,-20.2435,0.1391,-14.1913
2115,-3.2955,1.4945,-8.852,-15.3043,5.287,-16.4174
2120,-6.4761,1.1496,-8.852,-11.7565,8.7652,-18.2957
2125,-5.6331,2.4525,-8.9286,-7.7913,6.887,-16.8348
2130,-5.2116,1.7627,-8.737,-8.0696,5.0783,-14.2609
2135,-4.3302,1.3029,-8.1622,-5.8435,2.6435,-12.8
2140,-3.7937,1.073,-8.3921,-1.5304,1.5304,-12.0348
2145,-4.3685,1.4179,-8.6987,2.8522,1.4609,-12.0348
2150,-3.832,1.073,-9.0436,4.9391,1.9478,-11.6174
2155,-4.2152,1.1113,-8.6987,5.2174,2.087,-12.1739
2160,-3.6404,1.3029,-8.5838,5.8435,2.087,-12.7304
2165,-3.4105,1.6478,-8.7754,7.3739,2.5739,-13.1478
2170,-3.8704,1.5711,-9.0436,8.1391,3.6174,-14.1217
2175,-3.9853,1.5711,-9.0819,9.0435,6.1217,-15.6522
2180,-4.4452,2.1843,-9.3118,11.2696,8.4174,-16.9043
2185,-3.6787,1.0346,-8.7754,14.1217,10.2957,-17.0435
2190,-3.832,-0.0766,-9.6184,15.6522,9.2522,-18.1565
2195,-4.79,1.0346,-10.2315,13.7739,8.9739,-18.3652
2200,-4.062,1.3795,-9.3502,14.0522,7.5826,-18.2957
2205,-4.7517,1.9543,-10.0782,16.0696,6.6087,-17.5304
2210,-5.5948,2.2226,-10.9596,15.0957,8.8348,-16.0
2215,-5.2882,1.916,-11.1895,13.6348,14.1913,-15.3043
2220,-4.0236,1.1496,-9.81,13.913,21.6348,-15.3043
2225,-4.8284,1.4179,-10.6914,16.6957,22.887,-16.2087
2230,-3.7554,1.1879,-10.2698,17.1826,21.6348,-15.5826
2235,-3.832,0.8814,-10.2698,16.4174,17.8087,-15.4435
2240,-3.832,0.843,-10.5381,16.6261,13.6348,-15.513
2245,-3.2572,1.3029,-10.0016,15.7913,11.1304,-15.2348
2250,-4.2536,1.4945,-10.2698,18.3652,8.9043,-15.513
2255,-4.1003,0.9197,-10.3848,19.4087,8.8348,-16.9739
2260,-4.9816,1.4179,-10.653,19.7565,9.1826,-18.5043
2265,-4.9433,1.2646,-10.0782,18.8522,8.2783,-17.6696
2270,-4.4068,1.3412,-10.1932,17.8783,5.8435,-15.9304
2275,-3.4105,1.4562,-9.7717,16.3478,5.7043,-14.6783
2280,-3.5255,1.3029,-10.1549,15.5826,6.1217,-17.1826
2285,-3.7554,1.1496,-10.3848,13.7043,8.1391,-21.3565
2290,-4.6751,0.7664,-10.3465,11.687,8.9739,-24.0696
2295,-5.1349,0.5365,-10.4998,10.5739,8.487,-21.7043
2300,-3.7554,1.3795,-10.4998,8.2783,7.8609,-20.4522
2305,-4.3302,0.9197,-10.653,7.3739,8.0696,-22.1217
2310,-4.79,0.3066,-10.6914,7.7913,6.9565,-21.8435
2315,-4.1769,0.3449,-10.6147,6.0522,5.287,-18.713
2320,-3.1423,2.1459,-10.6147,2.8522,3.9652,-16.2783
2325,-3.1039,1.8011,-10.883,1.3217,2.713,-20.6609
2330,-5.9013,0.4215,-10.0399,0.0,2.1565,-24.8348
2335,-5.0583,0.0766,-10.653,1.5304,-0.1391,-21.7043
2340,-4.5984,0.3832,-10.5381,-1.3913,-2.713,-18.3652
2345,-2.1076,2.989,-11.4961,-3.7565,-4.5913,-18.4348
2350,-4.1769,1.7244,-10.0399,-6.6087,-3.4783,-27.687
2355,-4.79,0.843,-10.2698,-4.0348,-4.0348,-33.3913
2360,-5.5564,0.3066,-9.8483,-1.5304,-4.5913,-32.3478
2365,-4.6368,0.4215,-10.653,0.0696,-6.3304,-26.8522
2370,-4.7517,1.2646,-10.4998,-2.3652,-7.0261,-20.8696
2375,-3.1806,2.5291,-11.0746,-5.7043,-6.8174,-22.3304
2380,-4.5218,1.6861,-9.5418,-10.6435,-2.3652,-34.5739
2385,-4.7517,0.2299,-9.1969,-10.0174,1.9478,-42.2957
2390,-4.5601,-0.4982,-9.3118,-4.0348,4.1739,-40.2783
2395,-5.6714,-0.4982,-10.0016,-3.4087,4.5913,-36.6609
2400,-3.5255,0.5748,-9.6567,-8.9043,6.1217,-33.6696
2405,-2.5675,4.3302,-10.2315,-14.5391,9.9478,-33.7391
2410,-2.6058,1.5711,-8.3921,-23.0261,17.3217,-35.5478
2415,-5.2116,-1.4945,-7.779,-20.8696,21.5652,-42.087
2420,-3.6787,-1.6478,-8.6221,-10.2957,21.6348,-41.7391
2425,-3.3722,-1.9543,-9.0819,-2.0174,23.0957,-38.4
2430,-2.0693,0.9963,-9.3118,3.8261,24.1391,-30.887
2435,-3.7171,-0.5748,-9.1969,5.5652,24.2087,-27.4783
2440,-3.7937,0.0,-9.5034,7.0957,21.4261,-21.9826
2445,-4.062,-0.6131,-9.7334,6.4696,18.2261,-18.713
2450,-4.062,0.2682,-10.0016,4.8696,16.4174,-15.0957
2455,-3.9087,0.3066,-10.0016,4.1043,17.113,-12.1739
2460,-4.1769,0.1916,-10.4614,4.2435,17.4609,-10.0174
2465,-3.7171,0.2682,-10.2698,3.0609,17.6,-8.4174
2470,-3.9087,0.3449,-10.5381,2.087,17.7391,-7.513
2475,-4.2536,0.4215,-10.5381,1.5304,18.3652,-6.6087
2480,-4.2152,-0.5748,-10.3082,2.0174,19.2,-6.4696
2485,-3.9087,0.4215,-10.2315,1.6696,19.8261,-4.9391
2490,-3.947,0.2299,-10.3082,2.1565,20.9391,-4.8
2495,-3.7171,0.3066,-10.1932,2.7826,21.6348,-4.8696
2500,-3.4871,0.3449,-9.9633,2.5739,22.0522,-4.7304
2505,-3.4105,0.3066,-10.1932,3.1304,21.7043,-4.1739
2510,-3.5255,0.0766,-10.4231,3.687,19.9652,-3.8261
2515,-3.7171,0.2682,-10.653,3.8957,18.0174,-3.1304
2520,-3.4105,0.1916,-10.6914,2.9217,15.7913,-2.6435
2525,-3.4871,0.3066,-10.5381,2.2261,13.5652,-2.3652
2530,-3.5638,0.3066,-10.768,1.8783,11.4087,-1.8783
2535,-3.6787,0.3066,-10.6147,1.2522,9.3913,-1.6
2540,-3.7171,0.3066,-10.8063,0.3478,7.5826,-1.3217
2545,-3.5638,0.2682,-10.5764,-0.7652,6.0522,-1.113
2550,-3.7937,0.3066,-10.653,-1.9478,4.6609,-0.8348
2555,-3.832,0.3832,-10.7297,-2.9217,3.5478,-0.3478
2560,-3.9087,0.5365,-10.768,-3.7565,2.5043,-0.2087
2565,-3.832,0.4982,-10.8446,-4.4522,1.4609,0.0
2570,-3.832,0.3832,-10.653,-5.1478,0.6261,0.1391
2575,-3.832,0.4982,-10.653,-5.6348,-0.3478,0.4174
2580,-3.8704,0.4598,-10.7297,-5.9826,-1.3217,0.6261
2585,-3.832,0.5748,-10.6147,-6.6087,-2.3652,0.9739
2590,-3.832,0.4982,-10.5381,-7.0957,-3.4087,1.1826
2595,-3.7937,0.3832,-10.3465,-7.5826,-4.313,1.3913
2600,-3.832,0.5748,-10.3848,-8.0,-5.2174,1.4609
2605,-3.9087,0.4598,-10.4231,-8.6957,-5.7739,1.6
2610,-3.6021,0.4982,-10.3082,-8.8348,-6.2609,1.8087
2615,-3.947,0.4982,-10.2698,-8.9043,-6.4696,2.087
2620,-3.832,0.5748,-10.3848,-8.6261,-6.6783,2.087
2625,-3.9853,0.4982,-10.2315,-8.2783,-6.6783,2.1565
2630,-3.832,0.6131,-10.2698,-8.4174,-6.6783,2.1565
2635,-3.832,0.4215,-10.0782,-8.2087,-6.6783,2.2261
2640,-3.8704,0.7664,-10.3848,-8.1391,-6.6087,2.1565
2645,-3.832,0.3832,-10.1932,-8.2087,-6.4696,2.1565
2650,-3.7937,0.6131,-10.0016,-8.2087,-6.2609,2.087
2655,-3.6021,0.8047,-10.1166,-8.487,-5.8435,2.1565
2660,-3.7171,0.3832,-10.1166,-8.8348,-5.4957,2.1565
2665,-3.5638,0.4982,-10.1166,-8.7652,-5.2174,2.0174
2670,-3.6787,0.7281,-10.1549,-8.8348,-4.8696,2.0174
2675,-4.0236,0.5365,-9.8483,-8.9043,-4.4522,1.9478
2680,-3.7171,0.9197,-10.0016,-8.9043,-4.2435,1.8087
2685,-3.947,0.4598,-9.925,-8.9739,-3.8261,1.7391
2690,-3.9853,0.8814,-10.0016,-8.4174,-3.687,1.5304
2695,-3.7554,0.5365,-9.8483,-8.4174,-3.4087,1.4609
2700,-3.7554,0.8814,-10.0782,-7.5826,-3.0609,1.1826
2705,-3.9853,0.4982,-9.8866,-7.513,-2.4348,1.0435
2710,-3.7171,0.843,-9.9633,-6.8174,-2.087,0.6957
2715,-3.832,0.6514,-9.925,-6.1913,-1.4609,0.5565
2720,-4.062,0.7281,-10.1549,-5.4261,-1.0435,0.4174
2725,-3.832,0.6898,-9.9633,-5.0087,-0.5565,0.2783
2730,-3.6787,0.7281,-10.0782,-4.3826,-0.2087,0.0696
2735,-3.7554,0.7664,-10.0399,-4.0348,0.2087,-0.0696
2740,-4.0236,0.5748,-9.925,-3.4783,0.487,-0.2783
2745,-3.7937,0.6898,-10.0016,-2.9217,0.6957,-0.487
2750,-3.9087,0.5748,-10.1166,-2.7826,0.9043,-0.487
2755,-3.7554,0.7664,-10.1549,-2.5043,0.9739,-0.6261
2760,-3.7937,0.7664,-10.0016,-2.0174,1.2522,-0.6957
2765,-3.6787,0.7281,-10.0782,-1.5304,1.3217,-0.8348
2770,-3.7937,0.8047,-10.0782,-1.3913,1.6,-0.9739
2775,-3.832,0.8814,-10.1549,-1.3217,1.8087,-1.113
2780,-3.947,0.3832,-10.0399,-0.9739,2.1565,-1.1826
2785,-3.9087,0.3832,-10.1932,-0.9043,2.713,-1.1826
2790,-3.9087,0.7281,-10.3465,-0.8348,3.2,-1.0435
2795,-3.947,0.6898,-10.0399,-0.8348,3.5478,-1.2522
2800,-4.1386,0.5365,-10.1166,-0.4174,3.6174,-1.2522
2805,-3.9087,0.4598,-10.1932,-0.2087,3.687,-1.1826
2810,-3.9087,0.5365,-10.1932,-0.1391,3.8261,-1.0435
2815,-3.9853,0.4982,-10.1932,-0.3478,3.8957,-0.9739
2820,-4.062,0.7281,-10.2698,-0.4174,3.7565,-0.9043
2825,-3.7554,0.4982,-10.1549,-0.6261,3.6174,-0.7652
2830,-3.9087,0.4215,-10.0016,-0.6261,3.687,-0.6957
2835,-3.7937,0.6898,-10.2315,-0.7652,3.6174,-0.6957
2840,-3.7937,0.5365,-10.2315,-0.7652,3.5478,-0.6957
2845,-3.9853,0.5748,-10.4231,-0.9043,3.4783,-0.7652
2850,-3.7554,0.3449,-10.2315,-1.0435,3.2696,-0.7652
2855,-3.832,0.5365,-10.3465,-1.2522,3.2,-0.6957
2860,-3.9087,0.4215,-10.1166,-1.2522,3.0609,-0.5565
2865,-3.8704,0.4982,-10.2315,-1.2522,3.0609,-0.5565
2870,-3.832,0.4982,-10.3082,-1.5304,2.9913,-0.5565
2875,-3.832,0.4215,-10.3848,-1.6,3.1304,-0.5565
2880,-3.832,0.6131,-10.1932,-1.7391,3.1304,-0.5565
2885,-3.6787,0.4598,-10.3465,-1.9478,2.9913,-0.6261
2890,-3.7937,0.4598,-10.3082,-2.2261,2.9913,-0.6261
2895,-3.8704,0.3832,-10.1932,-2.3652,2.9217,-0.6261
2900,-3.7554,0.4598,-10.3082,-2.5739,2.713,-0.5565
2905,-3.6787,0.4598,-10.1549,-2.713,2.6435,-0.3478
2910,-3.7937,0.3832,-10.2315,-2.713,2.5043,-0.2783
2915,-3.7937,0.4598,-10.2698,-2.5739,2.4348,-0.2783
2920,-3.7554,0.5748,-10.2315,-2.6435,2.3652,-0.3478
2925,-3.7937,0.4982,-10.2698,-2.8522,2.3652,-0.487
2930,-3.7937,0.4598,-10.1549,-2.9217,2.4348,-0.5565
2935,-3.7554,0.5365,-10.2698,-3.0609,2.4348,-0.4174
2940,-3.832,0.4215,-10.2698,-3.1304,2.5043,-0.4174
2945,-3.832,0.5365,-10.2315,-3.1304,2.2957,-0.3478
2950,-3.7171,0.4598,-10.1549,-2.9913,2.087,-0.4174
2955,-3.7554,0.5365,-10.2315,-3.0609,1.9478,-0.4174
2960,-3.832,0.4215,-10.1932,-3.2,1.8783,-0.4174
2965,-3.8704,0.5365,-10.2698,-3.4087,1.6696,-0.4174
2970,-3.8704,0.4215,-10.1932,-3.6174,1.6,-0.3478
2975,-3.7937,0.4215,-10.2315,-3.7565,1.5304,-0.2783
2980,-3.7554,0.4215,-10.2698,-3.8957,1.3217,-0.2783
2985,-3.7554,0.5365,-10.3082,-3.8957,1.2522,-0.3478
2990,-3.7554,0.5748,-10.1932,-3.8957,1.2522,-0.3478
2995,-3.6787,0.5365,-10.2698,-3.7565,1.113,-0.2087
