timestamp,accX,accY,accZ,gyroX,gyroY,gyroZ
0,8.5454,-23.0305,-1.5711,30.8174,-41.2522,8.5565
5,8.6604,-23.7203,-3.3339,21.1478,-57.9478,0.7652
10,8.2005,-23.682,-3.5255,13.287,-63.5826,-5.8435
15,7.0126,-22.1875,-3.8704,16.9739,-58.7826,-9.8087
20,5.5564,-20.463,-4.4835,25.2522,-50.5043,-10.087
25,3.4871,-18.8919,-4.4452,28.3826,-38.6087,-7.3043
30,0.7281,-17.5124,-3.7554,27.3391,-23.9304,-4.7304
35,-2.3759,-16.4011,-2.9507,24.487,-11.4783,-4.8696
40,-4.2536,-15.7496,-2.5291,20.2435,-2.3652,-5.4261
45,-5.7864,-15.4048,-1.8777,15.4435,4.2435,-5.4261
50,-6.3995,-15.4814,-1.0346,9.3913,7.7913,-7.2348
55,-6.1313,-15.7113,-0.5748,3.5478,8.8348,-11.2
60,-4.8284,-16.0945,0.0766,-3.4087,7.513,-14.5391
65,-3.9853,-16.0562,0.115,-10.087,4.8696,-18.713
70,-3.1423,-15.8263,-0.0766,-14.6087,1.9478,-23.3739
75,-2.1843,-15.673,-0.4215,-18.7826,-2.3652,-27.687
80,-1.073,-15.4431,-0.4982,-23.3043,-6.9565,-32.0
85,-0.8047,-14.715,-0.2299,-25.5304,-9.2522,-35.1304
90,-0.2299,-14.1402,0.0,-24.8348,-11.2696,-38.3304
95,1.3029,-14.0636,-0.5365,-26.5739,-11.4783,-41.0435
100,3.4871,-13.6804,-0.4215,-28.1043,-5.6348,-38.9565
105,4.3685,-13.7187,0.1533,-27.4087,3.8261,-35.1304
110,5.2116,-13.4504,0.1533,-23.3739,12.1043,-32.9739
115,6.1313,-12.799,0.115,-19.4087,18.5043,-32.2783
120,6.4378,-12.1859,0.0766,-17.0435,24.7652,-32.2087
125,6.1696,-11.3428,0.0383,-16.9043,30.3304,-31.513
130,5.4798,-10.9979,0.115,-18.5739,34.2957,-30.1913
135,4.6751,-10.4231,0.3832,-20.1043,37.0087,-27.8261
140,3.7171,-9.6184,0.6514,-18.6435,39.0957,-25.7391
145,2.4908,-9.1586,0.7281,-13.6348,42.7826,-22.1217
150,1.2263,-8.6221,0.4215,-8.2783,45.287,-18.0174
155,0.115,-7.894,-0.115,-5.6348,44.5217,-13.4957
160,-0.9197,-6.7061,-0.5365,-3.8261,41.6,-9.4609
165,-1.7244,-5.2116,-1.1113,-0.5565,38.1913,-6.1217
170,-2.3759,-4.062,-1.3412,3.6174,34.8522,-2.2957
175,-2.4142,-2.874,-1.7244,7.0261,32.0696,1.2522
180,-2.4525,-2.031,-1.5711,8.9739,29.9826,4.1043
185,-2.2226,-1.3412,-1.6861,9.1826,28.5217,6.9565
190,-1.5711,-0.4598,-1.4945,9.1826,27.8957,9.4609
195,-1.3412,0.1916,-1.3412,8.9739,28.0348,11.0609
200,-0.3449,1.4562,-1.2646,10.1565,28.313,12.1739
205,0.0383,1.8394,-0.9197,11.8957,27.4087,12.5217
210,0.4598,1.4945,-0.7664,10.0174,24.0,12.0348
215,0.7281,0.843,-0.8047,5.1478,18.2957,11.6174
220,1.1496,0.0766,-1.0346,-1.1826,11.8957,11.4783
225,1.0346,-0.3066,-1.1113,-5.287,6.4696,11.1304
230,1.0346,-0.6131,-0.8814,-6.1913,1.7391,11.1304
235,0.5748,-1.1496,-0.843,-4.313,-2.9913,10.6435
240,0.6514,-1.7244,-0.3832,-2.5739,-7.3739,10.087
245,0.4982,-1.9543,0.3066,-0.487,-11.8957,8.4174
250,0.0766,-2.1076,0.7281,2.3652,-17.113,5.5652
255,-0.1533,-2.0693,0.7664,7.3739,-22.9565,2.713
260,-0.0383,-2.0693,-0.3449,12.5217,-27.1304,1.1826
265,1.1879,-2.2992,-3.7171,14.8174,-29.7043,0.0
270,2.031,-2.9507,-4.4452,9.0435,-24.0696,-1.6
275,2.3759,-3.832,-4.5218,1.9478,-12.2435,-2.4348
280,3.2955,-5.9396,-6.2079,-3.2696,2.0174,-3.4783
285,5.02,-7.779,-9.81,-10.087,22.2609,-5.3565
290,6.6294,-8.5071,-12.799,-28.8696,46.0522,-10.713
295,7.4725,-10.4231,-12.9523,-60.9391,57.1826,-20.5217
300,7.3192,-12.2625,-11.5727,-84.7304,44.5217,-31.9304
305,6.4378,-14.5234,-8.6221,-85.9826,14.887,-40.6957
310,5.2882,-16.2861,-4.7517,-64.6957,-11.9652,-45.287
315,3.5638,-18.1255,-2.4525,-32.3478,-24.0,-46.1913
320,0.9963,-19.8116,-2.1076,-6.4696,-19.2696,-46.8174
325,-1.5711,-20.8463,-2.6058,8.2783,-5.2174,-46.6087
330,-3.7554,-21.4211,-4.3302,17.5304,10.0174,-43.2696
335,-4.8667,-21.2678,-6.821,24.487,23.0261,-35.9652
340,-4.905,-20.1182,-7.3192,27.4783,28.3826,-27.5478
345,-3.832,-18.7003,-6.1696,28.5217,24.5565,-19.0609
350,-2.3375,-17.1292,-3.8704,29.8435,15.513,-9.5304
355,-0.7281,-15.9029,-2.8357,29.3565,4.8,-0.8348
360,0.7664,-14.715,-2.3375,26.9217,-5.9826,7.2348
365,2.4525,-13.9869,-2.031,22.5391,-16.4174,14.7478
370,3.7554,-13.872,-1.2263,16.7652,-26.713,21.2174
375,4.6751,-13.8336,-0.7281,11.5478,-37.3565,24.6957
380,4.905,-13.757,-0.4598,7.5826,-44.6609,26.087
385,4.9816,-13.7953,-0.5748,3.0609,-46.7478,27.2
390,5.02,-13.7187,-0.7281,-2.9217,-43.7565,28.2435
395,4.8667,-13.4121,-0.6131,-10.1565,-37.9826,28.1739
400,5.1349,-13.5654,-0.4215,-17.3913,-30.9565,27.4087
405,4.8667,-13.4121,-0.3066,-24.0,-24.1391,25.6
410,4.5218,-13.0672,-0.6131,-29.7043,-17.7391,24.5565
415,4.2919,-12.7607,-0.1916,-34.0174,-10.713,24.3478
420,3.1423,-13.2205,0.1533,-35.8261,-4.3826,25.2522
425,2.7207,-13.4121,0.3449,-34.8522,-2.2261,25.1826
430,2.4142,-14.0636,-0.1916,-33.4609,-1.4609,24.4174
435,1.7627,-14.4468,-0.3449,-34.2261,-1.2522,22.9565
440,1.3795,-14.4468,-0.5748,-35.0609,0.1391,21.7043
445,1.1496,-14.4468,-0.4982,-33.6,4.0348,20.4522
450,0.4215,-14.4468,-0.1916,-29.5652,9.7391,17.7391
455,0.0,-14.0636,0.0383,-23.3043,14.4696,13.6348
460,-0.4982,-13.2205,0.0383,-15.3739,17.8783,8.4174
465,-0.5748,-11.9943,0.1533,-6.7478,19.8261,4.1739
470,-1.073,-10.4998,0.3449,3.0609,19.8261,0.2087
475,-0.8047,-8.8137,0.4598,12.313,18.3652,-2.5043
480,-0.8047,-7.4725,-0.0383,21.1478,16.487,-4.6609
485,-1.3412,-6.3995,-0.2299,27.3391,14.2609,-6.7478
490,-1.8011,-5.2116,-0.7281,31.0957,9.3217,-10.9913
495,-2.0693,-4.2536,-1.073,32.4174,3.6174,-15.9304
500,-1.8011,-3.3722,-1.3412,32.4174,0.487,-20.1043
505,-1.8011,-2.9123,-1.1879,31.3739,1.2522,-23.5826
510,-2.1459,-2.3375,-0.843,29.287,4.3826,-25.9478
515,-1.9543,-1.3795,-1.3029,29.5652,4.2435,-27.3391
520,-1.3412,-0.3449,-1.8777,30.887,3.687,-27.2
525,-1.3795,0.2682,-2.5675,30.0522,2.2957,-26.6435
530,-0.843,0.3449,-3.3339,25.3913,0.5565,-25.1826
535,-0.4215,0.3449,-3.3339,18.9217,-0.2783,-22.6783
540,-0.115,0.0766,-3.1423,14.0522,0.0696,-19.2
545,-0.0383,-0.3449,-2.5291,10.8522,1.6696,-15.1652
550,0.2682,-0.6514,-1.5328,9.6696,3.1304,-11.6174
555,0.0766,-0.3449,-1.1113,10.9217,3.6174,-8.2783
560,0.0766,0.115,-0.5365,13.9826,3.0609,-3.6174
565,-0.0383,0.3066,-0.6898,16.2087,1.113,2.0174
570,-0.115,0.5748,-0.7664,15.3043,-0.8348,7.2348
575,-0.6514,0.7281,-1.8011,12.5913,-3.2,12.0348
580,-1.073,0.8047,-4.5601,6.6087,-6.7478,14.887
585,-2.4142,1.3029,-5.2499,-10.2957,-11.3391,16.0696
590,-3.1039,-0.2682,-6.4761,-28.9391,-16.6957,18.9217
595,-3.5638,-3.3339,-8.3155,-43.2696,-20.313,21.7043
600,-3.7171,-6.1696,-11.5727,-60.5913,-19.4087,23.4435
605,-4.1386,-8.2005,-17.3208,-92.313,-23.0957,22.1217
610,-3.0656,-10.4231,-17.1675,-131.5478,-38.1913,20.4522
615,-0.0766,-12.9139,-12.4924,-152.1391,-50.6435,22.2609
620,2.5291,-15.4431,-5.9013,-142.4,-48.9739,26.2957
625,5.0583,-17.589,0.115,-106.7826,-40.6957,27.5478
630,8.0089,-19.3901,3.6787,-55.7217,-28.5217,23.9304
635,9.6567,-20.0415,4.3685,-5.0087,-13.0783,15.513
640,11.726,-19.8882,2.4908,31.513,-4.8696,3.7565
645,12.799,-19.3901,-1.1879,47.2348,-9.6696,-9.9478
650,11.8027,-17.3208,-4.9433,47.7913,-17.8783,-24.0696
655,9.7717,-14.3318,-7.1276,40.6261,-21.1478,-33.7391
660,6.8977,-11.841,-6.8977,32.9043,-17.113,-36.5913
665,4.4835,-9.8483,-5.6331,27.0609,-7.5826,-32.6261
670,2.6824,-8.9286,-5.4798,19.8957,-0.487,-25.2522
675,0.0,-8.5838,-5.1732,10.6435,5.287,-17.7391
680,-2.8357,-8.9286,-4.9433,1.5304,10.0174,-12.0348
685,-5.0583,-9.0436,-4.6751,-7.6522,12.1739,-8.1391
690,-5.978,-9.4651,-3.9087,-17.5304,13.3565,-5.2174
695,-6.2462,-10.1166,-3.1039,-28.2435,14.2609,-4.1739
700,-5.4798,-11.3045,-2.4525,-39.1652,13.287,-6.1217
705,-4.7517,-12.3775,-2.3375,-50.0174,10.087,-12.4522
710,-3.947,-13.2588,-2.1459,-60.1739,5.7739,-20.1739
715,-3.3339,-13.4888,-2.1076,-68.0348,1.6696,-29.287
720,-2.5291,-13.7953,-2.2609,-73.113,-1.3217,-37.5652
725,-1.5328,-13.9103,-2.6058,-76.5217,-4.6609,-44.2435
730,-0.958,-13.6804,-3.0656,-78.6783,-9.2522,-49.7391
735,0.0766,-13.6037,-3.3339,-79.7913,-14.2609,-52.6609
740,1.0346,-13.9103,-3.6404,-79.1652,-17.0435,-53.9826
745,1.8011,-14.4084,-3.2572,-77.7739,-18.0174,-54.2609
750,2.1076,-14.3701,-2.989,-74.7826,-20.7304,-56.8348
755,3.6021,-14.4468,-2.6058,-70.0522,-23.3043,-59.2
760,3.9853,-14.2552,-2.9507,-63.1652,-22.4696,-60.3826
765,4.2152,-13.9869,-2.9507,-54.887,-21.0783,-60.8
770,4.2152,-13.3355,-3.2189,-48.5565,-21.7043,-61.3565
775,3.832,-12.6457,-3.3339,-44.8696,-21.9826,-61.7043
780,3.3339,-12.1092,-3.2189,-42.5739,-19.3391,-61.1478
785,3.0656,-11.8027,-3.1806,-40.1391,-12.7304,-58.5043
790,3.1039,-11.5727,-2.874,-37.287,-3.4087,-54.6087
795,3.4488,-10.768,-2.6441,-34.087,6.5391,-50.2261
800,3.5638,-9.5034,-2.4525,-30.1913,15.513,-45.5652
805,3.8704,-8.4305,-2.031,-26.4348,22.4696,-40.7652
810,3.6404,-6.9743,-1.5328,-22.887,27.0609,-35.7565
815,3.0273,-5.6714,-1.3029,-18.5739,29.9826,-30.1217
820,2.5291,-4.6751,-1.6861,-16.0,32.4174,-23.3739
825,2.1843,-3.7171,-2.3375,-17.2522,35.0609,-16.9043
830,1.5328,-2.7591,-2.6441,-22.3304,37.8435,-11.2
835,0.958,-1.8394,-2.7974,-29.5652,40.5565,-6.5391
840,0.1533,-1.1879,-2.5675,-38.6087,42.5739,-3.4783
845,-0.1533,-0.4598,-3.1039,-49.113,44.6609,-1.113
850,-0.5365,-0.1533,-3.6787,-60.8696,48.0696,0.3478
855,-0.8814,-0.1916,-3.832,-73.3913,52.8,0.8348
860,-1.3029,-0.4598,-3.5638,-85.5652,58.5043,1.1826
865,-1.3412,-0.958,-3.2572,-96.0,64.4174,1.1826
870,-1.5328,-1.7627,-2.5675,-103.8609,68.9391,0.2783
875,-1.4945,-2.3375,-1.916,-107.2,71.1652,-0.9739
880,-1.2263,-2.874,-1.6095,-108.5913,71.1652,-2.3652
885,-1.2646,-3.1806,-1.2646,-107.7565,69.6348,-4.2435
890,-1.1113,-3.5255,-1.5328,-105.4609,67.3391,-5.4957
895,-1.4179,-3.6404,-2.031,-102.2609,63.7913,-6.1913
900,-1.4179,-3.6787,-2.2992,-98.0174,59.4783,-6.1913
905,-1.7627,-3.3339,-2.5291,-93.4957,54.3304,-5.913
910,-2.1459,-3.1806,-2.7207,-89.1826,48.5565,-4.7304
915,-2.5291,-2.5675,-2.7207,-84.8696,42.8522,-2.2957
920,-3.0273,-2.1843,-2.5675,-80.0696,36.7304,0.9739
925,-3.6021,-1.3029,-2.5291,-74.6435,29.1478,4.313
930,-3.9087,-0.6131,-2.3375,-70.0522,20.2435,8.6261
935,-4.1769,0.1916,-2.2609,-66.4348,9.8087,12.0348
940,-4.062,0.958,-3.1423,-64.1391,-1.2522,14.5391
945,-3.6404,1.7244,-4.5218,-64.1391,-10.8522,16.0
950,-3.0273,2.6824,-5.2116,-67.9652,-17.3217,15.8609
955,-1.6861,3.2572,-7.1659,-74.713,-21.2174,14.3304
960,0.4598,3.9087,-8.9286,-84.3826,-22.9565,10.9217
965,2.4142,4.2152,-10.4231,-99.2696,-23.4435,5.3565
970,4.2152,3.947,-11.5727,-118.9565,-26.713,-2.7826
975,5.7864,2.6058,-13.1822,-142.4696,-36.9391,-13.3565
980,6.7827,0.5365,-13.1822,-168.4174,-52.2435,-25.3217
985,7.6257,-2.1459,-12.1092,-189.9826,-65.5304,-36.1043
990,8.0089,-5.02,-10.883,-201.7391,-71.9304,-44.7304
995,8.4688,-8.4688,-9.2735,-203.0609,-70.8174,-51.1304
1000,8.1239,-11.6877,-7.7407,-194.9913,-62.3304,-55.7217
1005,7.7407,-13.9486,-6.6677,-177.7391,-49.4609,-58.8522
1010,7.779,-14.7916,-7.779,-153.3913,-34.5739,-60.7304
1015,7.5874,-15.0599,-9.1202,-129.8087,-17.7391,-59.8957
1020,7.3575,-14.9066,-10.6147,-112.8348,-0.6261,-56.0
1025,7.3192,-14.4084,-11.3045,-102.7478,15.3043,-49.3217
1030,7.3575,-13.7187,-11.3045,-97.6,29.5652,-40.487
1035,7.3575,-12.4924,-10.6914,-96.2087,41.5304,-31.6522
1040,7.1659,-11.6111,-9.7334,-97.6696,50.5739,-23.3043
1045,7.0509,-10.883,-8.6221,-100.5913,55.513,-17.4609
1050,7.0509,-10.2698,-8.2005,-103.513,55.9304,-15.513
1055,6.8593,-9.5034,-8.3921,-107.8957,56.2087,-14.7478
1060,6.7827,-8.737,-8.1622,-115.2696,57.6,-14.1913
1065,6.821,-8.1622,-8.2772,-122.8522,59.9652,-12.8696
1070,6.7061,-7.5874,-7.9706,-130.087,64.1391,-10.8522
1075,7.0126,-7.5874,-7.9323,-136.8348,67.4783,-10.2261
1080,7.0893,-7.779,-7.8557,-143.0957,71.3043,-10.4348
1085,7.2809,-8.7754,-7.7024,-149.4261,77.2174,-10.2957
1090,9.1202,-8.9286,-8.3155,-155.8957,85.287,-9.7391
1095,6.5528,-11.1895,-7.2809,-163.2696,96.6261,-8.3478
1100,5.7864,-12.684,-6.6677,-167.2348,102.1913,-9.2522
1105,5.2499,-13.8336,-6.3612,-167.9304,106.5043,-10.5739
1110,4.7517,-14.4084,-6.0163,-167.1652,111.7913,-11.8957
1115,4.2536,-14.6384,-5.7864,-164.6609,117.0783,-12.8
1120,3.3339,-14.4084,-5.7097,-160.8348,122.1565,-13.0087
1125,3.0273,-14.2168,-5.4032,-156.5913,126.8174,-12.7304
1130,2.3759,-13.757,-4.8667,-151.9304,130.5043,-12.8696
1135,1.7627,-13.2588,-4.5984,-145.6696,132.9391,-12.1739
1140,1.1496,-12.6074,-4.3685,-139.3391,133.5652,-9.5304
1145,0.9963,-12.1475,-3.947,-131.8261,132.8696,-6.2609
1150,0.6898,-11.1895,-3.9087,-124.5217,131.6174,-2.9913
1155,0.3449,-10.3465,-3.7937,-119.7217,131.0609,0.487
1160,0.2299,-9.3502,-3.9853,-118.4696,131.8957,4.3826
1165,0.843,-8.1622,-4.5601,-118.9565,134.1217,8.0
1170,0.4215,-7.3575,-3.6404,-123.3391,141.4261,12.4522
1175,-0.1916,-6.6294,-2.6058,-125.3565,144.2783,14.1913
1180,-0.115,-5.5948,-2.5291,-123.3391,144.8348,13.1478
1185,0.1533,-4.5218,-2.6058,-121.6,146.0174,11.6174
1190,0.3449,-3.5638,-2.031,-122.4348,148.8696,8.7652
1195,0.9963,-2.4525,-2.1843,-124.8,153.5304,5.3565
1200,1.3029,-1.5711,-1.8011,-129.8783,161.0435,2.3652
1205,1.5328,-0.8047,-1.6861,-134.1217,165.4957,-3.1304
1210,1.9927,0.5748,-1.6478,-136.6261,168.487,-9.2522
1215,2.2609,1.2646,-1.8777,-136.6261,174.7478,-13.4261
1220,2.4525,1.4179,-1.5711,-136.5565,181.1478,-17.7391
1225,3.2955,1.9543,-1.9543,-136.487,184.7652,-21.7043
1230,3.832,1.6861,-1.7244,-136.5565,190.8174,-24.0
1235,3.2189,0.3449,-0.6898,-134.8174,196.1043,-25.6
1240,2.5675,-0.3832,-0.7281,-128.9043,194.1565,-31.0261
1245,2.1843,-0.6898,-1.7244,-118.6087,188.2435,-36.5217
1250,1.6478,-0.3832,-3.1806,-109.913,186.1565,-40.0
1255,0.0383,-1.3029,-3.5255,-105.8087,188.3826,-40.3478
1260,-1.4179,-1.3412,-4.2152,-103.3043,190.5391,-39.0261
1265,-2.2226,-1.916,-4.3685,-102.2609,193.8087,-34.9217
1270,-3.7171,-2.7207,-3.3722,-99.7565,198.4696,-30.7478
1275,-4.8284,-3.1806,-2.1076,-90.5739,197.5652,-28.7304
1280,-5.6331,-3.2955,-1.6095,-78.0522,193.6696,-27.2696
1285,-6.5145,-3.1039,-1.3795,-67.8957,187.7565,-26.6435
1290,-8.1622,-3.7171,-0.6131,-61.4261,178.5739,-26.4348
1295,-9.5418,-3.6404,-0.8047,-54.4,162.7826,-29.2174
1300,-10.3848,-3.2189,-2.0693,-45.8435,145.8087,-32.487
1305,-10.6147,-2.1843,-3.3722,-39.2348,132.0348,-34.9913
1310,-11.1512,-1.6095,-3.7937,-38.6783,123.8957,-35.3391
1315,-10.8446,-0.6514,-3.2572,-43.1304,114.713,-37.913
1320,-10.8446,-0.5365,-2.031,-49.2522,104.2087,-40.8348
1325,-10.4231,0.1533,-1.0346,-50.3652,90.1565,-44.8696
1330,-9.2735,0.6898,-0.6898,-47.2348,76.1043,-46.9565
1335,-8.0473,1.3795,-0.6131,-45.2174,66.5739,-48.4174
1340,-6.8593,1.2646,0.4598,-47.4435,61.2174,-49.4609
1345,-5.5948,0.9963,1.5328,-49.8783,55.0957,-50.087
1350,-4.0236,0.2682,2.0693,-49.3913,45.287,-52.0348
1355,-2.4142,0.3449,2.2609,-47.3739,31.1652,-57.3217
1360,-0.5748,0.2682,2.4142,-44.1739,19.4783,-63.2348
1365,1.0346,0.0,2.3759,-40.2087,14.7478,-66.5739
1370,2.2609,-0.0766,1.916,-32.1391,12.3826,-68.3826
1375,3.7554,-0.1533,0.7281,-19.3391,10.5739,-70.1217
1380,4.8667,-1.0346,-1.9543,-9.0435,11.1304,-73.6
1385,5.2499,-1.4179,-3.3339,-11.3391,17.2522,-79.2348
1390,5.748,-1.7627,-3.1039,-20.9391,28.3826,-83.687
1395,6.1696,-2.6441,-2.6824,-29.287,39.1652,-86.8174
1400,6.0929,-2.874,-1.8394,-36.313,48.0696,-89.9478
1405,5.6714,-3.5638,-1.9543,-39.5826,56.487,-91.9652
1410,4.7517,-3.1806,-2.6058,-41.3913,63.9304,-93.8435
1415,4.2536,-2.2992,-3.947,-41.4609,69.7043,-94.8174
1420,3.9853,-0.3066,-4.6751,-40.5565,77.1478,-96.2087
1425,4.1386,1.5328,-4.8284,-40.0696,84.2435,-97.9478
1430,4.4835,3.9087,-4.1769,-42.1565,89.113,-100.5217
1435,5.0966,6.8593,-2.1843,-45.7043,91.8261,-104.0696
1440,5.5564,9.81,1.0346,-51.4783,93.2174,-109.913
1445,5.6714,12.4158,4.5218,-60.7304,91.8261,-117.1478
1450,5.0583,13.6037,7.0509,-69.287,85.0087,-123.8957
1455,3.1423,14.2935,5.9396,-67.0609,70.887,-126.1217
1460,6.3995,15.0599,3.5638,-46.1217,57.9478,-127.5826
1465,6.2462,16.2095,1.6478,-7.513,58.7826,-128.6261
1470,9.4651,16.7843,-0.843,46.4696,67.2,-131.9652
1475,6.821,18.7003,-6.1313,97.8783,74.4348,-136.5565
1480,9.0819,19.2368,-13.2588,129.7391,55.0957,-133.1478
1485,26.8242,23.682,-13.2588,135.2348,3.6174,-140.1739
1490,57.1356,26.7859,-16.0562,158.9565,-59.2696,-166.4
1495,129.3311,43.072,-59.0899,189.0783,-146.9913,-202.6435
1500,140.4439,57.0589,-78.48,32.4174,-356.8696,-307.3391
1505,62.5004,47.4405,-41.3093,-356.4522,-300.0348,-493.913
1510,49.3949,55.9093,-47.2873,-423.4435,-91.2696,-588.9391
1515,38.2437,40.9644,-57.7104,-331.4783,87.5826,-634.4348
1520,67.2905,27.2074,-55.3729,-354.9217,182.4696,-576.7652
1525,43.5319,12.2242,-37.3623,-363.7565,219.2,-537.0435
1530,25.0998,-0.3066,-14.83,-273.8783,230.2609,-429.0087
1535,12.799,-5.748,15.4431,-137.6696,206.9565,-278.7478
1540,-9.3118,-3.7171,24.4484,-33.5304,125.3565,-127.2348
1545,-13.6804,4.6751,11.9176,74.3652,30.4696,-16.1391
1550,-9.7334,15.558,2.4525,156.3826,-24.1391,60.3826
1555,-0.115,23.6053,-0.6514,190.3304,-43.6174,111.7913
1560,7.1276,31.5759,-1.4562,210.2957,-61.2174,135.3043
1565,10.1549,36.5193,-4.4452,223.5826,-92.6609,152.5565
1570,11.6111,35.6762,-9.3118,195.2696,-112.0696,178.9913
1575,10.3848,29.0851,-12.1092,88.7652,-106.0174,192.8348
1580,9.5034,20.0798,-10.3465,-62.1913,-90.7826,184.9739
1585,6.936,14.8683,-1.916,-193.6,-69.5652,163.9652
1590,5.5181,7.5874,1.1113,-256.487,-55.4435,141.2174
1595,4.8284,-0.8814,7.2042,-276.4522,-57.3217,114.0174
1600,4.3685,-9.2352,9.3885,-242.2957,-74.2261,81.9478
1605,4.7134,-12.6457,3.9853,-161.9478,-95.0957,47.7217
1610,6.4761,-11.9176,1.6861,-88.7652,-109.8435,21.8435
1615,7.1659,-11.5727,1.9927,-51.7565,-113.4609,6.2609
1620,8.4688,-12.1475,4.79,-35.3391,-106.087,-5.3565
1625,10.6147,-11.7643,6.1313,-15.0261,-88.3478,-14.5391
1630,10.3465,-10.3465,5.748,7.4435,-70.1913,-22.2609
1635,9.0819,-9.0053,2.5291,21.9826,-58.713,-28.7304
1640,8.6221,-6.7827,-1.4945,23.6522,-47.9304,-31.4435
1645,9.0819,-4.0236,-1.9927,15.5826,-34.087,-35.2696
1650,8.852,-2.4142,-0.4982,9.3217,-19.5478,-40.7652
1655,8.3155,-1.0346,1.2263,8.4174,-10.7826,-43.6174
1660,5.9013,1.0346,1.3412,12.8696,-7.7913,-43.2
1665,4.2536,2.874,-0.8814,33.7391,-14.6783,-42.6435
1670,2.7207,5.0583,-1.6478,34.713,-21.8435,-40.0
1675,1.5711,7.7024,-2.3375,33.6,-38.0522,-37.4261
1680,1.1113,9.81,-2.8357,37.4261,-55.4435,-35.687
1685,0.4982,11.6494,-3.5638,43.6174,-77.3565,-40.3478
1690,-0.1533,11.9559,-5.6714,48.3478,-104.487,-49.5304
1695,-0.3449,11.2279,-6.7827,49.6696,-111.4435,-46.887
1700,1.5328,10.4231,-6.5528,44.8696,-114.5739,-42.7826
1705,3.6021,10.6147,-7.6641,38.4,-124.1739,-43.2
1710,4.062,10.5764,-7.9706,29.0087,-131.8261,-47.7217
1715,3.832,10.1549,-8.5071,22.6087,-135.4435,-50.087
1720,5.2882,9.6184,-7.6641,15.2348,-131.2696,-48.3478
1725,6.4761,10.3082,-7.5874,14.9565,-137.7391,-51.0609
1730,4.9816,8.7754,-6.6294,19.9652,-141.913,-52.3826
1735,5.0966,7.9323,-6.4761,25.7391,-141.7043,-47.0957
1740,2.5291,4.7134,-4.79,26.0174,-149.5652,-42.8522
1745,5.1349,4.5984,-5.7097,34.6435,-157.7739,-32.9043
1750,4.8667,5.02,-6.1313,41.7391,-165.0783,-34.087
1755,3.0656,3.9087,-5.2499,45.2174,-168.6261,-36.6609
1760,1.3412,2.1843,-4.79,52.5217,-170.6435,-30.7478
1765,3.1806,3.2955,-5.2499,60.5217,-167.3043,-23.0957
1770,1.916,6.9743,-6.8977,69.2174,-162.8522,-27.2696
1775,1.8777,7.5874,-9.3502,84.4522,-159.2348,-25.7391
1780,9.1969,12.4541,-10.3465,73.2522,-151.6522,-16.3478
1785,-6.6294,2.4908,-5.02,46.2609,-152.6957,-12.9391
1790,7.5874,12.3775,-10.4231,28.7304,-157.913,-9.4609
1795,8.7754,17.4741,-13.7953,34.8522,-148.6609,-3.7565
1800,8.7754,4.7134,-6.3612,31.3739,-154.713,-1.6696
1805,2.2609,6.7444,-11.8027,37.4957,-159.1652,-2.9913
1810,6.0546,3.8704,-12.0709,31.5826,-151.9304,-2.3652
1815,7.2809,4.2536,-9.925,46.7478,-128.7652,-3.2696
1820,4.3685,4.1769,-9.3118,58.3652,-113.1826,-4.5913
1825,3.6404,6.5911,-9.695,63.0957,-108.5913,-5.0783
1830,5.5948,5.1732,-9.81,63.0261,-107.2,-5.0087
1835,4.79,5.4032,-11.5727,65.6696,-104.9043,-7.1652
1840,4.8667,5.02,-11.3811,67.5478,-102.3304,-9.2522
1845,5.0966,5.02,-10.9979,66.0174,-99.7565,-9.8783
1850,5.6714,6.0163,-12.684,64.0696,-95.513,-9.5304
1855,6.5911,5.2882,-13.2205,62.0522,-86.5391,-8.2783
1860,5.5948,4.4835,-12.3775,58.5739,-77.8435,-7.7913
1865,4.3685,3.7171,-11.3428,55.7913,-72.0,-8.0
1870,4.4068,2.7974,-11.1512,53.7739,-66.5739,-7.8609
1875,3.8704,2.6441,-11.0746,52.4522,-61.0783,-7.6522
1880,3.3339,2.4142,-10.653,50.3652,-56.2087,-7.3043
1885,3.2189,2.1843,-10.4614,48.7652,-51.0609,-6.4696
1890,4.062,2.2609,-10.3465,47.9304,-46.9565,-5.2174
1895,3.1806,2.5675,-9.7717,46.9565,-42.7826,-5.2174
1900,3.4488,2.7974,-9.925,47.1652,-39.5826,-4.3826
1905,2.874,2.6824,-10.8446,48.2087,-36.313,-3.2696
1910,2.7207,3.7937,-11.5727,47.3043,-28.8696,-1.9478
1915,2.9507,3.0656,-12.3008,45.1478,-19.4087,0.2087
1920,2.5291,2.1843,-12.6457,43.9652,-9.8087,2.9913
1925,2.6441,3.3339,-11.726,40.9043,0.6957,5.7739
1930,4.6368,5.4415,-10.3465,37.4957,9.3913,6.6087
1935,3.947,3.3722,-11.6877,40.3478,9.0435,10.087
1940,2.7591,2.4525,-10.4231,42.4348,11.4087,12.8696
1945,5.02,3.2955,-9.5801,43.3391,10.5043,15.4435
1950,4.062,3.1806,-8.6604,46.1217,3.8261,16.9043
1955,3.1039,2.4142,-7.779,48.3478,-3.5478,20.313
1960,3.5638,3.2955,-7.779,51.7565,-12.8,22.4
1965,3.1423,2.6824,-7.7024,53.5652,-20.2435,23.8609
1970,2.9123,2.0693,-8.1622,56.7652,-26.9217,24.2087
1975,1.8011,0.0766,-8.3538,55.7217,-26.4348,24.6957
1980,1.8394,-0.7281,-8.737,52.5913,-21.0783,24.3478
1985,2.0693,-1.5328,-8.3921,45.4261,-13.0087,24.0696
1990,2.0693,-2.0693,-7.2042,35.2,-6.9565,22.4
1995,2.2226,-1.8777,-7.3192,28.7304,-5.3565,17.113
2000,1.7627,-0.0766,-8.0089,27.2,-3.4087,11.1304
2005,1.8394,-0.0766,-7.9323,24.8348,-1.0435,8.4174
2010,2.1459,0.4982,-7.9323,24.3478,1.0435,7.513
2015,2.4142,0.4598,-7.5874,26.1565,3.0609,7.5826
2020,2.7591,0.6514,-8.0089,28.7304,3.6174,8.0
2025,2.9507,0.8814,-8.2772,30.0522,3.5478,7.3739
2030,2.9507,0.3832,-8.3155,30.4696,3.2,6.7478
2035,3.1806,2.1076,-8.8137,31.3739,2.9217,6.5391
2040,2.7974,1.7627,-9.1969,30.4696,1.9478,4.5913
2045,3.6021,0.9197,-9.6184,28.4522,0.9739,5.287
2050,3.6021,1.1496,-9.6184,26.3652,0.6957,4.7304
2055,3.6404,1.1496,-9.5034,24.2087,0.0696,4.4522
2060,3.9087,0.4598,-9.7334,22.1217,-0.4174,4.313
2065,3.8704,0.0,-9.6184,20.313,-0.9739,4.8
2070,3.6404,1.1879,-10.0016,17.6,-1.9478,4.4522
2075,3.7171,0.5748,-10.0782,14.6087,-3.2696,3.2696
2080,4.1386,0.3832,-10.3465,12.5217,-3.5478,2.9913
2085,4.0236,0.9197,-10.5764,10.1565,-3.0609,2.087
2090,3.9087,0.843,-10.653,8.1391,-1.5304,1.1826
2095,4.2536,-0.1916,-10.5381,6.6087,0.487,0.9043
2100,3.1423,1.4179,-10.6147,5.0783,2.2957,0.3478
2105,3.4871,0.9197,-10.768,3.6174,2.5739,-0.9043
2110,3.9853,0.3449,-10.6914,2.087,3.4783,-1.3217
2115,3.8704,0.4598,-10.3082,0.6957,5.1478,-1.6
2120,3.5638,0.9197,-10.0016,-1.0435,6.9565,-2.0174
2125,3.7554,0.9963,-9.8483,-2.087,8.7652,-2.5043
2130,3.5638,0.843,-9.81,-2.9913,9.8783,-2.9217
2135,3.5255,0.9963,-9.7334,-4.8,10.087,-3.3391
2140,3.5638,1.0346,-9.7334,-6.3304,10.3652,-3.4087
2145,3.6021,0.958,-9.4651,-6.9565,10.7826,-3.2
2150,3.6787,1.073,-9.3118,-7.7913,11.1304,-3.2
2155,3.4105,1.4179,-9.1202,-8.6957,11.2696,-3.2696
2160,3.4871,1.3412,-9.0436,-9.3913,11.2696,-3.2696
2165,3.6404,1.4179,-8.9286,-9.9478,10.7826,-3.4087
2170,3.6021,1.4562,-8.8137,-10.5043,10.0174,-3.4783
2175,3.4871,1.5328,-8.6221,-10.9217,8.8348,-3.4087
2180,3.6404,1.4179,-8.8137,-11.2696,7.7217,-3.4087
2185,3.4488,1.4945,-8.8137,-11.687,6.5391,-3.4783
2190,3.5638,1.3412,-8.7754,-11.8261,5.287,-3.5478
2195,3.4488,1.4179,-8.7754,-11.7565,4.2435,-3.4783
2200,3.4488,1.3795,-8.852,-11.9652,3.4783,-3.4783
2205,3.1806,1.4945,-8.8137,-11.8261,2.7826,-3.5478
2210,3.3339,1.4945,-8.737,-11.7565,2.4348,-3.4783
2215,3.3339,1.3795,-8.852,-11.5478,2.087,-3.4087
2220,3.2189,1.4945,-8.852,-11.0609,1.8783,-3.2696
2225,3.2955,1.8394,-9.0053,-10.7826,1.6,-3.1304
2230,3.2189,1.4179,-9.0053,-10.2957,1.5304,-2.9913
2235,3.2189,1.6095,-8.6987,-9.9478,1.4609,-2.7826
2240,3.0273,1.4945,-9.0053,-9.3913,1.3913,-2.6435
2245,3.2572,1.5711,-9.0053,-9.0435,1.2522,-2.4348
2250,3.2189,1.5328,-9.1202,-8.6957,1.3217,-2.2261
2255,3.2189,1.5711,-9.1202,-8.3478,1.2522,-2.0174
2260,3.1423,1.7244,-9.1202,-7.9304,1.3217,-1.8087
2265,3.2189,1.6861,-8.967,-7.513,1.3217,-1.7391
2270,3.1806,1.5711,-9.1202,-7.0957,1.1826,-1.6696
2275,3.1039,1.3795,-9.1969,-6.7478,1.1826,-1.5304
2280,3.2955,1.5328,-9.2735,-6.3304,1.2522,-1.3913
2285,3.1423,1.5711,-9.3502,-6.1913,1.3217,-1.3217
2290,3.2955,1.6478,-9.1202,-5.9826,1.6,-1.113
2295,3.0656,1.5711,-9.1969,-5.7043,1.8783,-1.113
2300,3.1806,1.7244,-9.2352,-5.287,2.0174,-0.9739
2305,3.1806,1.6861,-9.1969,-5.0783,2.2957,-1.0435
2310,3.2189,1.5328,-9.1586,-4.5913,2.6435,-0.9739
2315,3.3339,1.4945,-9.0819,-4.313,2.9913,-0.8348
2320,3.4105,1.6861,-9.0819,-3.8957,3.2,-0.8348
2325,3.3339,1.6478,-9.1202,-3.4087,3.4087,-0.7652
2330,3.0656,1.5328,-8.5454,-2.8522,3.4087,-0.8348
2335,3.2189,1.6095,-8.9286,-2.3652,3.2,-0.8348
2340,3.2955,1.4562,-8.8903,-1.8783,3.0609,-0.7652
2345,3.2189,1.5328,-9.0819,-1.6,2.9217,-0.5565
2350,3.2189,1.5711,-8.8903,-1.1826,2.713,-0.3478
2355,3.1806,1.5328,-8.9286,-0.9739,2.5739,-0.2087
2360,3.1806,1.5328,-8.737,-0.5565,2.4348,-0.3478
2365,3.2189,1.4945,-8.6987,-0.1391,2.087,-0.2783
2370,3.1423,1.4562,-8.6987,0.5565,1.6696,-0.2087
2375,2.989,1.4562,-8.8903,1.113,1.4609,-0.2087
2380,3.1423,1.4562,-8.8137,1.8087,1.4609,-0.2783
2385,3.1039,1.5328,-8.852,2.2261,1.2522,-0.2783
2390,3.1806,1.5711,-8.967,2.7826,1.1826,-0.0696
2395,3.1039,1.5328,-9.0436,3.2696,0.9739,-0.0696
2400,3.1423,1.4562,-9.0436,3.687,0.8348,0.1391
2405,3.1423,1.5328,-9.0053,3.9652,0.6957,0.1391
2410,3.1039,1.5711,-9.0053,4.1739,0.487,0.1391
2415,3.1806,1.3412,-9.1969,4.2435,0.5565,0.1391
2420,2.989,1.4562,-9.1586,4.2435,0.6261,0.1391
2425,3.2572,1.4562,-9.3502,4.2435,0.8348,0.1391
2430,3.1423,1.5328,-9.3502,4.1043,0.9043,0.2087
2435,3.1423,1.4945,-9.2735,3.8957,1.2522,0.2087
2440,3.4871,1.5328,-9.4268,3.687,1.6,0.3478
2445,3.1806,1.4945,-9.2735,3.7565,1.8087,0.2783
2450,3.0656,1.4179,-9.2352,3.6174,2.0174,0.2783
2455,3.0656,1.4562,-9.2735,3.4783,2.3652,0.2783
2460,3.1806,1.3412,-9.3118,3.4087,2.6435,0.2783
2465,3.2955,1.3795,-9.3885,3.3391,2.7826,0.2783
2470,3.2189,1.3412,-9.4268,3.1304,3.0609,0.2783
2475,3.2572,1.3412,-9.3118,3.0609,3.2,0.2783
2480,3.1806,1.3795,-9.3502,2.9217,3.4087,0.2783
2485,3.3339,1.3795,-9.1969,2.713,3.6174,0.3478
2490,3.2189,1.3029,-9.3118,2.5043,3.7565,0.2783
2495,3.4105,1.0346,-9.4268,2.1565,3.9652,0.2087
2500,3.1806,1.3412,-9.3885,1.8087,4.313,0.2783
2505,3.2572,1.2646,-9.2352,1.6,4.5217,0.2087
2510,3.2189,1.3795,-9.3118,1.3217,4.6609,0.1391
2515,3.3339,1.2646,-9.3118,1.0435,4.6609,0.0696
2520,3.1039,1.4179,-9.2735,0.7652,4.8,0.0696
2525,3.2189,1.3029,-9.2735,0.4174,4.9391,0.0
2530,3.2572,1.4179,-9.2352,0.2087,5.0783,-0.0696
2535,3.1039,1.3412,-9.2735,0.0,5.3565,-0.1391
2540,3.3339,1.2263,-9.1202,-0.2783,5.3565,-0.1391
2545,3.1039,1.2646,-9.1969,-0.4174,5.287,-0.2783
2550,3.1423,1.2263,-9.1969,-0.5565,5.2174,-0.2087
2555,3.1039,1.3412,-9.0819,-0.6957,5.0783,-0.3478
2560,3.1806,1.3029,-9.1202,-0.9739,5.0783,-0.3478
2565,3.1423,1.3412,-9.1969,-1.113,5.0087,-0.4174
2570,3.1806,1.3412,-9.3118,-1.3217,4.8696,-0.487
2575,3.1039,1.3412,-9.3118,-1.6,4.9391,-0.5565
2580,3.1806,1.3029,-9.2735,-1.6696,4.8,-0.6261
2585,3.1806,1.3029,-9.1202,-1.8783,4.7304,-0.487
2590,3.0273,1.7244,-9.2352,-2.1565,4.6609,-0.6957
2595,3.2189,1.4179,-9.1202,-2.087,4.4522,-0.6957
2600,3.1039,1.3795,-9.0819,-2.2957,4.4522,-0.6957
2605,3.2955,1.3412,-9.0819,-2.3652,4.4522,-0.6261
2610,3.1423,1.3795,-9.1202,-2.2261,4.3826,-0.6261
2615,3.1039,1.3029,-9.0819,-2.2261,4.3826,-0.6957
2620,3.2572,1.3412,-9.1586,-2.1565,4.2435,-0.8348
2625,3.1806,1.4562,-9.0436,-2.1565,4.1739,-0.8348
2630,3.2189,1.4179,-9.3118,-2.2261,4.1739,-0.8348
2635,3.1039,1.4562,-9.1586,-2.2957,4.1043,-0.9043
2640,3.2189,1.4945,-9.2352,-2.2261,4.1739,-0.8348
2645,3.2572,1.3412,-9.2352,-2.1565,4.0348,-0.7652
2650,3.1806,1.4179,-9.0436,-2.1565,3.8957,-0.7652
2655,3.2955,1.1496,-9.2352,-2.087,3.8261,-0.6957
2660,3.1039,1.4562,-9.0819,-2.0174,3.687,-0.6261
2665,3.1806,1.4179,-9.0819,-1.8783,3.6174,-0.6261
2670,3.1806,1.4945,-8.967,-1.6696,3.5478,-0.6261
2675,3.1423,1.4945,-8.8903,-1.6,3.4783,-0.5565
2680,3.1806,1.4179,-9.1969,-1.6,3.4087,-0.5565
2685,3.1806,1.4562,-9.0053,-1.3217,3.2696,-0.5565
2690,3.1423,1.5711,-9.1202,-1.3217,3.1304,-0.4174
2695,3.1423,1.3795,-9.0053,-1.1826,2.9913,-0.487
2700,3.1423,1.5328,-9.1202,-0.9739,2.8522,-0.4174
2705,3.1423,1.4945,-9.1969,-0.7652,2.8522,-0.4174
2710,3.1423,1.4562,-9.1202,-0.5565,2.7826,-0.2783
2715,3.2572,1.4179,-9.2352,-0.4174,2.713,-0.3478
2720,3.1423,1.4945,-9.1969,-0.3478,2.5739,-0.3478
2725,3.1806,1.4179,-9.0819,-0.2783,2.5739,-0.3478
2730,3.1806,1.5328,-9.0436,-0.2087,2.5043,-0.2783
2735,3.0656,1.4945,-9.1969,-0.3478,2.4348,-0.3478
2740,3.0273,1.4179,-9.1586,-0.4174,2.4348,-0.3478
2745,3.1423,1.4179,-9.1586,-0.2783,2.3652,-0.2783
2750,3.1423,1.4562,-8.9286,0.0,2.2957,-0.2087
2755,3.0273,1.5328,-9.0436,0.4174,2.2261,-0.2087
2760,3.1423,1.5328,-9.3885,0.8348,2.1565,-0.1391
2765,3.1806,1.4562,-9.2352,1.113,2.087,-0.2087
2770,3.1039,1.4179,-9.1969,1.0435,2.0174,-0.1391
2775,3.1039,1.3029,-9.1202,0.9043,2.0174,-0.1391
2780,3.1806,1.2263,-9.1586,0.6957,2.087,-0.0696
2785,3.1039,1.3412,-9.2735,0.5565,2.1565,-0.1391
2790,3.1039,1.4945,-9.2352,0.4174,2.2957,-0.2087
2795,3.1806,1.4179,-9.2352,0.3478,2.4348,-0.1391
2800,3.0273,1.4179,-9.1202,0.2783,2.5739,-0.1391
2805,3.1423,1.3795,-9.1202,0.2783,2.7826,-0.0696
2810,3.1423,1.3412,-9.3502,0.487,2.8522,-0.0696
2815,3.0656,1.3029,-9.1586,0.487,2.9217,-0.0696
2820,3.1039,1.3795,-9.2735,0.487,3.0609,0.0
2825,3.1423,1.2646,-9.1969,0.4174,3.0609,-0.0696
2830,3.1039,1.3795,-9.2352,0.3478,3.1304,-0.0696
2835,3.1423,1.3412,-9.2352,0.2783,3.2,-0.0696
2840,3.1423,1.2263,-9.2352,0.2087,3.2696,-0.0696
2845,3.0273,1.2646,-9.1586,0.1391,3.3391,-0.0696
2850,3.1423,1.4945,-9.1202,0.0696,3.3391,-0.1391
2855,3.1423,1.3412,-9.1969,0.0,3.5478,-0.2087
2860,3.1423,1.2646,-9.3118,-0.1391,3.687,-0.2087
2865,3.1039,1.6478,-9.4268,-0.2087,3.7565,-0.2087
2870,3.1039,1.3412,-9.2735,-0.2783,3.8957,-0.2783
2875,3.1806,1.2646,-9.3118,-0.3478,3.8261,-0.2087
2880,3.0656,1.4945,-9.2352,-0.487,3.8957,-0.2087
2885,3.1039,1.3412,-9.2352,-0.5565,3.8957,-0.2783
2890,3.1039,1.3795,-9.2735,-0.6957,4.1043,-0.4174
2895,3.1806,1.3029,-9.1969,-0.6957,4.1739,-0.4174
2900,3.0656,1.3029,-9.3502,-0.6957,4.1739,-0.4174
2905,3.2189,1.3412,-9.3118,-0.8348,4.1739,-0.3478
2910,3.1423,1.3412,-9.1969,-0.9043,4.2435,-0.2087
2915,3.1039,1.3795,-9.2735,-1.0435,4.313,-0.2783
2920,3.0273,1.3795,-9.2735,-0.9043,4.4522,-0.2783
2925,3.1806,1.4179,-9.2735,-0.9043,4.5217,-0.2087
2930,3.0273,1.3795,-9.2735,-0.9739,4.5217,-0.3478
2935,2.989,1.3412,-9.3118,-1.0435,4.5913,-0.3478
2940,3.0656,1.3412,-9.1586,-0.9739,4.6609,-0.3478
2945,3.0273,1.3412,-9.2352,-1.1826,4.6609,-0.487
2950,3.0656,1.3795,-9.2735,-1.2522,4.5913,-0.4174
2955,3.0273,1.4179,-9.1202,-1.2522,4.6609,-0.487
2960,3.0656,1.3795,-9.1969,-1.1826,4.5913,-0.4174
2965,3.0656,1.3029,-9.1202,-1.1826,4.5217,-0.3478
2970,3.0656,1.3029,-9.1202,-1.1826,4.3826,-0.3478
2975,3.1423,1.7244,-9.2735,-1.1826,4.3826,-0.4174
2980,3.1039,1.4179,-9.0819,-1.2522,4.313,-0.3478
2985,3.1039,1.3029,-9.1586,-1.3217,4.1739,-0.2783
2990,3.0273,1.3412,-9.2352,-1.113,4.1043,-0.3478
2995,3.0656,1.3412,-9.2735,-0.9739,4.1043,-0.3478
