timestamp,accX,accY,accZ,gyroX,gyroY,gyroZ
0,-1.6095,-8.3538,-3.1039,-4.3826,9.9478,-15.0261
5,-1.3412,-8.4688,-3.3339,-5.4261,11.1304,-15.5826
10,-1.2646,-8.6221,-3.4105,-5.9826,11.4087,-15.7217
15,-1.1879,-8.8903,-3.3339,-5.8435,10.9913,-15.513
20,-0.9963,-9.0819,-3.2189,-5.6348,10.6435,-14.7478
25,-0.6898,-9.3118,-3.3722,-5.7043,10.9913,-13.6348
30,-0.4982,-9.5801,-3.2572,-5.5652,11.4087,-12.0348
35,-0.4598,-9.7334,-3.2955,-4.5217,12.0348,-10.1565
40,-0.3066,-9.7334,-3.1423,-2.5739,12.1739,-8.1391
45,0.0,-9.8483,-3.0273,0.0,11.5478,-6.0522
50,0.4598,-9.81,-2.989,3.2696,9.8783,-3.8957
55,0.2682,-9.925,-2.874,5.8435,7.6522,-1.6
60,0.3832,-9.8483,-2.4908,7.4435,5.1478,0.2087
65,0.4598,-9.8866,-2.4142,8.4174,3.1304,1.1826
70,0.5365,-9.8483,-2.1076,8.6261,1.8087,1.3217
75,0.5365,-9.81,-1.6861,8.9739,1.2522,0.3478
80,0.4982,-9.81,-1.4945,9.8087,1.1826,-1.5304
85,0.5365,-9.9633,-1.1496,10.8522,1.8087,-4.1043
90,0.1533,-10.0016,-1.073,12.1043,2.5043,-7.5826
95,0.0383,-10.0782,-0.6898,13.1478,3.8261,-11.6174
100,-0.2682,-10.1932,-0.7281,13.7739,5.287,-16.1391
105,-0.6514,-10.4998,-0.7664,14.2609,6.6783,-20.8
110,-0.7281,-10.0782,-0.4982,14.887,7.9304,-25.3217
115,-0.8814,-10.0399,-0.4215,16.0696,8.7652,-29.4957
120,-1.1879,-9.81,-0.1916,17.4609,8.8348,-33.8087
125,-1.2263,-9.5418,-0.2682,18.6435,9.0435,-37.2174
130,-1.3795,-9.2352,-0.4598,19.2696,9.4609,-39.3739
135,-1.4179,-8.852,-0.7664,18.6435,10.5043,-40.0696
140,-1.2646,-8.737,-0.6898,17.113,12.5217,-40.2087
145,-1.073,-8.6987,-0.6131,15.6522,14.8174,-40.487
150,-1.1496,-8.2772,-0.5365,14.9565,16.4174,-41.3913
155,-1.073,-8.2005,-0.4598,14.887,17.4609,-41.8783
160,-0.9197,-7.9706,-0.3066,15.3043,17.6,-41.8783
165,-0.7664,-7.779,-0.1916,16.0,16.6261,-40.8348
170,-0.6131,-7.6257,-0.0383,16.6261,14.4696,-39.3739
175,-0.6898,-7.5874,0.0,16.4174,11.687,-38.4696
180,-0.3832,-7.6641,0.0,16.2783,8.7652,-37.3565
185,-0.1533,-7.5874,-0.0766,16.0696,6.1217,-36.5217
190,0.0,-7.5874,-0.0766,15.7913,3.8957,-36.1043
195,0.1916,-7.6257,-0.1533,15.513,2.2957,-36.1739
200,0.3449,-7.7407,0.0766,15.0957,1.3913,-37.0087
205,0.6131,-7.7024,-0.0383,15.3043,1.7391,-37.0783
210,0.8814,-7.7024,-0.1533,15.7913,2.713,-37.0783
215,0.9197,-7.4725,-0.4598,16.0,3.7565,-37.4957
220,0.958,-7.5491,-0.4598,15.3043,4.5913,-39.0261
225,1.1879,-7.4341,-0.3449,14.4,6.1217,-39.8609
230,0.8047,-7.3575,-0.4215,13.8435,8.4174,-39.0261
235,0.8814,-7.2042,-0.4215,13.7739,9.8087,-38.0522
240,0.7664,-7.2042,-0.115,12.5913,10.3652,-38.4
245,0.9197,-7.2425,-0.0766,11.9652,11.2696,-37.9826
250,0.6898,-7.1659,0.0766,10.6435,11.9652,-37.7043
255,0.8047,-7.1276,0.2299,9.7391,12.9391,-36.8696
260,0.843,-7.3192,0.3066,8.9043,13.9826,-35.687
265,0.6898,-7.5108,0.4215,8.5565,14.9565,-34.5043
270,0.6514,-7.4725,0.4598,8.8348,16.1391,-32.0
275,0.3832,-7.3575,0.4598,8.8348,16.2087,-30.4
280,0.4215,-7.5108,0.5748,8.4174,16.0696,-29.0783
285,0.3832,-7.5874,0.4982,7.9304,15.7217,-27.9652
290,0.2682,-7.6257,0.4215,7.2348,15.3043,-27.4783
295,0.3449,-7.6257,0.3066,6.4696,15.1652,-26.5043
300,0.4982,-7.5874,0.2299,5.8435,15.7913,-24.5565
305,0.5748,-7.8173,0.0383,5.2174,16.5565,-22.2609
310,0.5748,-7.5108,0.1916,4.8696,16.7652,-20.6609
315,0.6131,-7.5108,0.1533,4.5217,16.6261,-19.6174
320,0.3832,-7.4341,0.1916,4.6609,15.7913,-18.713
325,0.3066,-7.5491,0.115,4.5913,14.3304,-18.2261
330,0.1916,-7.3958,0.0766,4.3826,12.8696,-17.8783
335,0.2299,-7.3958,0.2682,3.8261,11.9652,-17.0435
340,0.115,-7.3958,0.4982,2.9217,11.0609,-15.7217
345,0.0766,-7.3958,0.3832,2.0174,10.4348,-14.1913
350,0.2682,-7.5108,0.6898,1.4609,10.2957,-12.8696
355,0.4215,-7.8173,0.9197,2.087,11.1304,-10.8522
360,0.5365,-8.0089,1.073,3.5478,11.9652,-7.7217
365,0.6898,-8.1239,1.2646,4.8,11.6174,-5.6348
370,0.843,-8.5454,1.5328,5.5652,10.9217,-4.2435
375,0.843,-8.737,1.6095,6.4696,9.6,-2.9913
380,0.843,-8.9286,1.5711,7.4435,7.7217,-1.8087
385,0.9197,-9.3502,1.7627,8.7652,5.7739,-0.6957
390,1.0346,-9.6567,1.7627,10.4348,3.8261,0.1391
395,0.9963,-9.8866,1.916,12.3826,2.6435,0.6957
400,0.9963,-9.9633,1.8394,14.5391,1.9478,1.113
405,0.958,-10.0399,1.6478,17.0435,1.8087,1.5304
410,1.073,-9.8866,1.6861,19.687,2.1565,1.6696
415,1.2263,-9.925,1.6095,22.1913,3.1304,1.8087
420,1.4945,-9.81,1.6095,24.2087,4.0348,2.2261
425,1.4562,-9.5418,1.5328,26.1565,4.7304,2.5043
430,1.1113,-9.3118,0.958,27.4087,5.0087,3.2
435,1.2263,-9.1969,0.958,27.4087,4.8,3.9652
440,1.2263,-9.3502,0.958,25.8087,4.2435,5.0087
445,0.9197,-9.2352,0.7281,23.0957,3.4087,6.2609
450,0.7664,-9.1586,0.6131,19.2696,2.6435,7.7913
455,0.7664,-9.4651,0.4982,15.0261,1.9478,9.1826
460,0.7281,-9.7717,0.6131,10.4348,1.4609,10.2261
465,0.7281,-10.0399,0.4982,6.5391,1.113,11.2
470,0.9197,-10.3082,0.3832,3.3391,1.8087,11.6174
475,1.2263,-10.4998,0.6131,0.6957,3.4783,11.5478
480,1.5711,-10.653,0.7664,-1.4609,5.913,10.713
485,1.7627,-10.9213,0.958,-3.4783,8.7652,9.1826
490,2.1076,-11.1512,1.3795,-4.5217,10.8522,7.1652
495,2.3759,-11.4578,1.8777,-4.1739,11.8957,5.0087
500,2.4525,-11.4195,2.3375,-1.6696,11.687,2.4348
505,2.3375,-11.6877,2.7591,2.2261,10.6435,-0.4174
510,2.2226,-11.7643,3.2572,6.887,8.6957,-2.5739
515,1.6861,-11.8027,3.947,11.0609,6.0522,-4.2435
520,0.7281,-11.6111,4.2536,15.2348,2.9217,-4.8696
525,0.0383,-11.8793,4.3685,19.687,-0.3478,-4.4522
530,-0.3449,-11.6111,4.4068,24.2087,-3.3391,-3.2696
535,-0.9963,-11.3045,4.2152,28.4522,-5.5652,-1.1826
540,-0.958,-11.1895,3.9087,32.4174,-7.6522,1.8087
545,-1.1496,-10.7297,3.4488,36.0348,-9.8087,4.6609
550,-1.4179,-10.2315,2.6824,38.3304,-11.687,7.3739
555,-1.3412,-9.9633,2.2226,38.8174,-13.4957,10.2261
560,-1.0346,-9.7334,1.6478,37.1478,-16.487,12.9391
565,-0.5748,-9.3885,0.7281,33.6696,-20.4522,15.3739
570,0.0383,-9.4651,0.2682,28.5217,-24.8348,17.1826
575,0.6898,-9.2352,0.0,22.7478,-28.5913,18.2261
580,1.3795,-9.5801,0.0,17.6,-30.5391,18.6435
585,1.8394,-9.5034,-0.3449,13.5652,-31.3043,18.4348
590,2.3375,-9.4268,-0.9197,10.5739,-30.887,17.1826
595,2.9123,-9.3885,-1.1496,8.2087,-29.5652,15.7913
600,2.989,-9.0436,-1.6478,6.6783,-28.0348,13.7739
605,3.4105,-8.967,-2.2226,5.4261,-26.087,11.8261
610,3.2955,-8.6604,-2.6824,4.5217,-24.0,9.5304
615,3.1806,-8.3538,-3.3722,3.4783,-22.4,6.2609
620,3.0656,-8.2772,-3.6787,1.5304,-20.4522,2.9913
625,2.4908,-8.1239,-3.9853,-0.9739,-18.2261,0.2783
630,2.2609,-7.8557,-3.8704,-3.2,-15.7913,-1.4609
635,1.1496,-7.5491,-4.0236,-5.0783,-13.913,-3.4783
640,0.2299,-7.8173,-3.6404,-6.887,-13.2174,-6.4696
645,-0.6514,-7.8557,-3.3339,-8.5565,-12.4522,-9.2522
650,-1.1879,-8.4688,-3.0273,-10.6435,-11.1304,-11.687
655,-1.6478,-8.8137,-2.7207,-13.2174,-8.9043,-14.3304
660,-2.3375,-9.2735,-2.4142,-16.0,-5.7739,-16.8348
665,-2.7591,-9.5034,-1.9543,-18.4348,-2.2957,-19.687
670,-3.1423,-9.9633,-1.3412,-21.2174,1.3217,-22.6783
675,-3.2955,-10.3082,-0.7664,-22.4696,4.3826,-24.9739
680,-3.4105,-10.4998,-0.5748,-22.0522,6.2609,-26.8522
685,-3.1806,-10.653,-0.2299,-20.3826,7.1652,-28.1739
690,-2.9123,-10.9213,0.0383,-17.3217,6.7478,-28.9391
695,-2.6441,-11.1129,-0.1916,-13.3565,5.8435,-28.313
700,-2.1843,-11.1512,-0.1533,-9.4609,4.8696,-27.4783
705,-1.4945,-10.9213,-0.4982,-6.1217,4.2435,-26.0174
710,-1.2263,-10.8063,-0.843,-4.313,4.313,-23.9304
715,-0.5748,-10.883,-1.1496,-4.2435,4.9391,-21.3565
720,0.0,-10.8446,-1.073,-4.8,5.5652,-19.2
725,0.4982,-10.8446,-1.3795,-4.9391,6.3304,-16.487
730,1.0346,-10.8063,-1.3029,-4.5217,7.3043,-13.0087
735,1.2263,-10.5381,-1.4562,-4.0348,7.8609,-9.5304
740,1.6478,-10.3465,-1.6095,-3.7565,8.0,-6.1913
745,1.9543,-10.2698,-1.4562,-4.0348,6.9565,-3.4087
750,2.3759,-10.1166,-1.6478,-5.0087,5.4957,-0.5565
755,2.4908,-9.7717,-1.3795,-6.4696,4.5913,2.2957
760,2.3375,-9.7334,-1.4945,-7.3739,4.0348,5.0087
765,2.3375,-9.3118,-1.3029,-7.6522,4.7304,8.3478
770,1.7244,-8.9286,-1.4179,-7.1652,6.2609,11.3391
775,1.4945,-8.6604,-1.1879,-6.6087,8.487,13.8435
780,1.1879,-8.2389,-1.1113,-6.2609,10.8522,15.7913
785,0.9963,-7.9323,-0.8814,-6.3304,13.0087,16.487
790,0.4982,-7.779,-0.7664,-7.0957,15.6522,16.6957
795,0.2682,-7.7407,-0.9197,-8.7652,18.5739,17.1826
800,0.3066,-7.7024,-1.073,-11.687,21.7739,17.3913
805,0.2299,-7.5491,-0.7664,-14.8174,24.9043,17.2522
810,0.115,-7.3575,-0.843,-17.6696,27.5478,16.9043
815,0.2299,-7.4341,-0.6131,-20.313,29.1478,15.9304
820,0.0,-7.3575,-0.5748,-23.0261,30.6087,14.8174
825,-0.1533,-7.2042,-0.4215,-26.2261,31.7913,13.7739
830,-0.3449,-6.9743,-0.1916,-30.1913,32.0696,12.9391
835,-0.6131,-6.821,0.0,-34.5739,31.0957,12.1739
840,-0.8814,-6.936,0.115,-39.1652,29.7043,11.5478
845,-1.2263,-6.8593,0.2682,-43.4783,28.1043,11.8957
850,-1.3795,-7.0126,0.8814,-47.7913,26.1565,12.5913
855,-1.7627,-7.3192,0.9963,-50.9217,23.7217,13.4261
860,-1.916,-7.5108,1.1879,-52.9391,21.5652,14.7478
865,-1.8777,-7.894,1.3412,-53.8435,19.8957,16.8348
870,-2.2609,-7.8557,1.2263,-54.2609,18.5043,19.3391
875,-2.031,-8.1239,1.1496,-54.3304,17.0435,22.3304
880,-1.7244,-8.3155,0.843,-54.6087,14.9565,25.6696
885,-1.6478,-8.5454,0.5365,-55.3043,12.7304,28.9391
890,-1.4562,-8.5838,0.115,-55.8609,10.2261,31.3739
895,-1.073,-8.5454,-0.3832,-56.6261,7.3043,33.0435
900,-0.9197,-8.3155,-0.3832,-57.3913,4.313,34.0174
905,-0.7281,-8.2772,-0.4982,-57.3913,0.6957,34.4348
910,-0.958,-8.0089,-0.0766,-56.5565,-3.2,34.0174
915,-0.6131,-7.9323,0.1916,-55.513,-5.5652,32.3478
920,-0.5365,-7.6257,0.0383,-54.0522,-7.3043,30.6783
925,-0.2299,-7.5874,-0.0766,-52.3826,-7.6522,29.4261
930,0.0383,-7.2809,0.0383,-51.2696,-6.9565,27.3391
935,0.1533,-7.2425,0.0,-51.3391,-5.2174,24.2087
940,0.3449,-7.2425,0.0383,-52.3826,-2.8522,20.4522
945,0.3832,-7.4341,0.1916,-53.7739,-0.9043,16.5565
950,0.4215,-7.4725,0.3066,-55.0261,0.4174,12.8696
955,0.5748,-7.779,0.3449,-56.2783,0.9739,9.6
960,0.4598,-8.0473,0.3449,-56.7652,1.0435,7.0957
965,0.5365,-8.4305,0.5748,-55.9304,1.2522,5.5652
970,0.3066,-8.5071,0.5748,-53.913,2.087,4.2435
975,0.0383,-8.6604,0.5365,-51.4087,3.687,3.3391
980,0.0,-8.4688,0.4598,-49.3217,5.9826,3.0609
985,-0.115,-8.0473,0.3832,-48.1391,8.9043,2.9913
990,-0.3449,-7.6641,0.1533,-47.8609,12.0348,2.4348
995,-0.3832,-6.8593,0.0383,-48.2783,14.5391,2.087
1000,-0.6131,-5.978,-0.5748,-50.4348,16.4174,1.3217
1005,-0.7281,-5.3265,-0.8047,-54.3304,17.6696,1.2522
1010,-0.8814,-4.8667,-1.1879,-60.0348,17.9478,1.7391
1015,-0.843,-4.5984,-1.3795,-66.7826,17.6,2.9913
1020,-0.6898,-4.2536,-1.7244,-74.5043,17.2522,4.4522
1025,-0.4215,-3.9853,-1.916,-82.5739,17.5304,5.7043
1030,-0.6131,-4.2152,-1.9927,-90.3652,18.7826,6.5391
1035,-0.4982,-4.7134,-2.0693,-98.5043,20.9391,6.4
1040,-0.4215,-4.9433,-2.2226,-106.713,23.3739,5.5652
1045,-0.0383,-5.5564,-2.1459,-114.5739,26.1565,4.6609
1050,0.0766,-6.2462,-2.3375,-121.9478,29.7043,3.6174
1055,0.3066,-6.7061,-2.2609,-128.6261,34.2957,2.1565
1060,0.4982,-7.1276,-2.2992,-134.4696,39.9304,0.8348
1065,0.4598,-7.2425,-2.3759,-138.7826,45.913,-0.4174
1070,0.5748,-7.3958,-2.4908,-141.8435,51.687,-1.3913
1075,0.4215,-7.2809,-2.7207,-144.2087,57.113,-2.0174
1080,0.6514,-7.0509,-2.874,-146.3652,62.4,-2.087
1085,0.8047,-6.8593,-3.1806,-148.8,67.5478,-2.2261
1090,0.958,-6.6294,-3.4105,-151.513,72.487,-2.3652
1095,0.958,-6.3229,-3.6021,-154.5739,77.4261,-2.1565
1100,1.073,-6.3229,-3.832,-157.913,82.4348,-2.087
1105,1.2263,-6.2079,-3.832,-161.0435,87.3739,-2.5043
1110,1.4562,-6.1696,-3.7937,-163.1304,92.3826,-4.3826
1115,1.4179,-6.2079,-3.4488,-163.9652,97.3217,-6.887
1120,1.073,-6.0546,-3.2189,-164.8696,102.8174,-8.487
1125,1.2646,-5.7864,-2.874,-167.3739,108.6609,-9.6
1130,2.0693,-5.748,-2.9123,-171.2,114.4348,-10.713
1135,2.2226,-5.7097,-3.0656,-175.7913,119.4435,-11.8957
1140,2.2609,-5.7864,-3.1039,-180.0348,123.687,-12.3826
1145,2.0693,-6.0163,-2.9123,-182.887,127.513,-13.0087
1150,1.7244,-5.9013,-2.1843,-183.6522,132.1043,-14.887
1155,1.6478,-5.863,-1.6861,-181.7043,137.4609,-18.2261
1160,1.4179,-5.7097,-1.4945,-178.5043,141.9826,-22.6087
1165,1.2263,-5.7864,-0.8047,-175.5826,144.487,-26.5043
1170,1.1113,-5.748,-0.4982,-172.1739,146.3652,-29.8435
1175,0.4598,-5.6714,0.2299,-168.2783,148.4522,-33.5304
1180,-0.4215,-5.3265,0.7281,-165.7739,149.0783,-37.9826
1185,-0.7281,-5.5564,1.3412,-163.9652,149.0087,-42.5043
1190,-0.6514,-5.978,1.4562,-162.5043,148.0348,-45.287
1195,-0.9197,-6.2462,1.4945,-158.7478,147.7565,-44.6609
1200,-1.6095,-6.2079,1.1879,-153.3913,146.9217,-42.1565
1205,-2.4908,-5.8247,0.9963,-148.2435,143.6522,-39.3739
1210,-3.6404,-5.5181,0.5748,-143.5826,138.087,-37.4957
1215,-4.4452,-4.79,0.4598,-138.9217,129.9478,-35.3391
1220,-5.02,-4.1769,0.8814,-135.2348,119.3739,-32.487
1225,-5.863,-3.2955,1.073,-132.2435,107.687,-29.8435
1230,-6.8977,-2.4908,1.4945,-130.6435,96.1391,-27.2696
1235,-7.5491,-1.916,2.031,-129.6696,85.6348,-25.6696
1240,-7.7407,-1.6095,2.1843,-129.1826,76.3826,-24.5565
1245,-7.5491,-1.1879,2.2226,-128.2783,68.5913,-24.5565
1250,-6.6294,-0.4982,2.4908,-127.2348,61.7043,-25.8783
1255,-5.748,-0.2299,2.4142,-127.0957,55.0957,-29.7739
1260,-4.6751,0.0766,1.8777,-128.487,47.7217,-33.7391
1265,-3.3339,0.0766,0.9963,-131.5478,38.8174,-36.4522
1270,-2.4908,-0.0766,0.4982,-134.887,28.3826,-38.6087
1275,-1.3029,-0.3832,-0.7281,-136.2783,16.9043,-39.3739
1280,-0.2682,-1.0346,-1.8394,-134.887,4.313,-39.6522
1285,0.3066,-2.1843,-2.1076,-131.8957,-6.6783,-41.6
1290,0.7281,-3.4488,-2.2992,-127.0957,-16.4174,-43.8957
1295,0.843,-3.832,-2.031,-122.5043,-25.1826,-46.0522
1300,1.8011,-4.905,-1.3412,-120.9739,-32.0696,-48.3478
1305,1.8011,-6.1313,-0.5365,-119.5826,-32.4174,-46.6783
1310,2.031,-7.2809,-0.115,-114.6435,-29.7739,-43.2
1315,2.7207,-7.6257,-0.5748,-103.6522,-23.9304,-39.7217
1320,1.6478,-8.2005,-0.8047,-90.713,-14.3304,-40.0
1325,2.2226,-7.7024,-1.5711,-74.713,-2.7826,-38.5391
1330,2.989,-7.3575,-2.7591,-60.2435,5.0783,-35.6174
1335,3.9853,-6.0163,-3.6404,-49.3913,5.5652,-34.0174
1340,4.8667,-4.4835,-3.947,-44.313,1.2522,-32.8348
1345,5.02,-2.4525,-2.9507,-44.4522,-3.2,-35.2696
1350,5.4798,-0.9197,-2.6058,-43.1304,-6.887,-36.5217
1355,5.748,0.1916,-2.6824,-41.6,-10.713,-36.9391
1360,5.8247,0.0,-2.4142,-46.0522,-13.5652,-36.6609
1365,5.1349,0.2682,-1.8777,-55.8609,-12.8,-38.4696
1370,5.0966,-0.1533,-0.8814,-66.5043,-7.4435,-41.9478
1375,5.0583,0.0,-0.3832,-72.0696,4.2435,-46.2609
1380,4.6751,-0.1916,-0.1916,-75.4087,22.6087,-50.713
1385,4.79,-0.1533,-0.4982,-79.1652,43.8261,-52.9391
1390,4.4835,-1.3029,-0.3066,-83.9652,62.7478,-53.0087
1395,4.3302,-0.9963,-1.2263,-83.2696,75.1304,-51.8261
1400,4.5984,-0.5365,-1.7244,-82.2957,82.8522,-49.3217
1405,4.7517,-0.2299,-2.031,-84.3826,86.9565,-46.9565
1410,4.3685,0.3066,-2.4525,-85.9826,87.3043,-45.6348
1415,3.3339,1.1113,-3.0656,-86.4,84.6609,-45.0087
1420,2.7974,1.6095,-4.1386,-86.6087,81.113,-44.1043
1425,2.7207,1.9543,-5.02,-89.0435,79.3043,-44.2435
1430,2.7591,1.8011,-6.1696,-94.1217,79.7913,-45.4957
1435,2.3759,1.4179,-6.5911,-97.7391,81.8087,-47.1652
1440,1.7244,1.916,-7.4725,-97.5304,83.4783,-49.4609
1445,1.1879,1.5328,-7.4725,-96.6957,83.1304,-51.3391
1450,1.5328,2.0693,-7.2425,-97.3217,79.1652,-55.2348
1455,2.0693,2.989,-7.1659,-100.5217,76.1739,-60.0348
1460,0.0383,5.9396,-5.9396,-108.5913,76.8,-62.8174
1465,-0.4598,8.0089,-4.9816,-110.887,76.7304,-72.2087
1470,2.4525,5.1732,-5.2882,-110.887,76.9391,-90.2957
1475,4.2152,2.0693,-5.2882,-126.6783,74.1565,-104.2783
1480,8.5071,0.0,-7.2042,-147.8261,61.0783,-104.8348
1485,9.3118,1.6478,-13.642,-154.8522,40.6957,-103.4435
1490,22.1108,3.1423,-18.8919,-149.4261,24.6957,-98.3652
1495,150.024,33.4536,-28.357,-382.8174,-537.8087,-174.5391
1500,-153.7411,-2.9123,-56.8673,-401.0435,-923.687,-122.2261
1505,-36.5576,62.8453,-61.6957,-314.0174,-368.0,-127.1652
1510,33.9518,1.4562,-34.335,-415.3043,-119.5826,-103.8609
1515,13.6037,-2.3759,-80.0895,-445.0087,-244.4522,-92.8696
1520,31.9975,-4.4452,-80.6643,-463.4435,-280.9739,-95.0261
1525,3.9087,4.79,-74.0348,-421.1478,-213.7739,-96.2087
1530,2.0693,5.9013,-53.955,-301.2174,-109.9826,-81.8783
1535,-5.2116,8.0856,-27.3607,-206.0522,-28.9391,-64.9739
1540,7.3192,-0.958,-36.6725,-167.3043,23.5826,-49.2522
1545,11.841,2.4908,-27.399,-148.1739,65.8783,-39.6522
1550,9.8866,10.1166,-22.8772,-133.913,74.9217,-37.5652
1555,8.737,9.6567,-24.1801,-117.4261,50.5739,-33.5304
1560,7.0893,6.9743,-19.62,-117.9826,29.3565,-34.3652
1565,7.3958,3.6787,-10.5764,-112.2087,24.6957,-30.2609
1570,6.8977,5.863,-8.3155,-104.1391,13.913,-26.9913
1575,1.6861,11.841,-8.4688,-100.1043,1.8087,-23.3043
1580,5.2499,7.4725,-5.863,-89.113,15.6522,-18.9217
1585,5.3265,3.832,-4.4452,-79.0261,12.6609,-13.9826
1590,3.832,1.4179,-4.6751,-76.6609,3.0609,-9.0435
1595,6.936,-0.5365,-4.905,-83.3391,-10.3652,-2.2261
1600,-0.0766,-0.115,-6.5528,-89.6696,-22.8174,-0.487
1605,-0.6131,2.2226,-7.8173,-101.0087,-29.6348,0.487
1610,-5.4798,0.9197,-9.3502,-105.9478,-32.9739,3.7565
1615,-1.3795,2.6058,-10.8063,-99.0609,-40.2783,6.6087
1620,0.9197,0.8047,-9.1202,-88.0696,-46.6087,5.5652
1625,1.2646,0.4598,-10.0016,-70.4696,-61.913,-0.6957
1630,3.0656,-0.6898,-9.9633,-58.4348,-69.5652,-10.5043
1635,3.2189,0.3449,-8.4688,-50.5739,-70.3304,-22.7478
1640,1.6478,-1.3029,-8.4688,-40.2783,-71.5826,-31.0957
1645,4.9433,2.6824,-8.5454,-35.687,-70.887,-39.1652
1650,2.3759,0.6898,-6.821,-38.6087,-65.2522,-42.3652
1655,2.2226,0.7281,-9.1969,-32.0696,-63.6522,-44.1043
1660,3.2955,3.832,-8.7754,-36.2435,-58.8522,-42.9913
1665,2.9123,3.6021,-7.7407,-43.8261,-53.5652,-39.7913
1670,1.4179,4.5218,-7.2809,-45.1478,-51.687,-36.1739
1675,1.5711,4.7517,-7.9323,-38.6087,-53.0087,-32.7652
1680,2.0693,4.5984,-7.7407,-32.6261,-52.1739,-30.6783
1685,1.9927,4.4835,-7.7024,-29.7739,-51.8261,-29.287
1690,2.6058,4.4068,-6.4378,-31.4435,-50.3652,-26.5739
1695,3.0273,5.5948,-7.9323,-33.1826,-48.3478,-25.7391
1700,0.2299,7.7407,-7.0126,-37.1478,-45.0783,-24.0
1705,0.4598,2.5675,-6.1313,-37.1478,-44.3826,-13.9826
1710,1.0346,1.9543,-7.6641,-27.5478,-42.2261,-10.1565
1715,0.7664,2.7591,-8.737,-22.6783,-40.2087,-9.4609
1720,0.6898,3.3722,-9.3118,-20.1739,-38.9565,-10.2261
1725,0.4598,3.5255,-9.6184,-18.3652,-37.4957,-10.9217
1730,0.8047,3.8704,-9.7334,-16.5565,-35.5478,-11.1304
1735,0.5365,3.9853,-9.4268,-15.5826,-33.6,-11.687
1740,0.2682,3.947,-9.1202,-14.4,-32.2087,-12.2435
1745,0.2299,3.6787,-8.7754,-12.8,-30.7478,-12.1043
1750,0.0766,3.6787,-8.6221,-10.5739,-28.9391,-11.8261
1755,0.1916,3.4105,-8.3921,-8.0,-26.5043,-11.4783
1760,0.0383,3.4105,-8.5071,-5.913,-24.1391,-10.9217
1765,0.0383,3.4488,-8.6221,-3.5478,-21.3565,-9.7391
1770,0.0,3.6404,-8.5454,-0.3478,-18.3652,-8.0696
1775,0.2299,3.2572,-8.6604,2.9217,-15.2348,-6.5391
1780,0.5365,3.1039,-8.6987,6.9565,-12.4522,-5.3565
1785,0.4982,2.874,-8.8903,10.8522,-10.2261,-4.5913
1790,0.6514,2.5675,-9.2352,14.1217,-8.7652,-3.8261
1795,0.6898,2.5675,-9.1586,16.2783,-7.8609,-3.4783
1800,0.9197,2.3759,-8.9286,17.7391,-7.1652,-3.2
1805,1.1113,2.3375,-8.852,18.8522,-6.6783,-3.0609
1810,1.073,2.1076,-8.5838,19.4087,-6.0522,-2.713
1815,1.0346,2.1076,-8.3538,19.687,-5.7043,-2.6435
1820,0.7281,2.3375,-8.3155,20.1739,-6.3304,-2.7826
1825,0.9197,2.3375,-8.3155,21.0087,-7.4435,-2.9217
1830,0.9197,2.4142,-8.2005,22.4,-8.6261,-3.1304
1835,0.843,2.4525,-8.1622,24.2087,-9.6696,-3.5478
1840,0.843,2.2609,-8.1622,26.0174,-10.5739,-3.5478
1845,0.843,2.2992,-8.1622,27.9652,-11.0609,-3.687
1850,0.6898,2.2609,-7.9706,29.4957,-11.6174,-3.687
1855,0.5365,1.9927,-8.2772,31.0957,-12.2435,-3.687
1860,0.6514,2.031,-8.0856,32.0,-12.1739,-3.5478
1865,0.3832,1.6478,-8.3921,33.6,-11.5478,-3.1304
1870,1.1879,1.6861,-8.6221,34.5739,-10.1565,-2.6435
1875,0.9197,1.9543,-9.1202,35.2,-8.6261,-2.8522
1880,0.3832,1.3412,-8.9286,36.8,-7.3043,-2.5739
1885,0.4982,1.4562,-9.4651,37.913,-6.4696,-2.8522
1890,0.5748,2.5675,-9.0819,37.3565,-7.3739,-3.4087
1895,0.7664,2.7207,-9.5801,38.3304,-8.2087,-4.0348
1900,0.8047,3.3339,-10.3082,37.6348,-8.2087,-4.5913
1905,0.4598,2.4142,-10.4231,36.2435,-7.4435,-4.0348
1910,0.3832,2.1076,-11.0746,34.3652,-7.2348,-3.4087
1915,-0.3449,2.1843,-10.9596,30.8174,-8.2783,-3.4087
1920,1.9543,2.8357,-11.8793,28.5913,-8.9739,-3.3391
1925,0.9197,1.6861,-11.9943,26.3652,-5.9826,-3.2
1930,-0.4215,2.1459,-11.6111,21.4957,-2.5043,-4.4522
1935,1.3029,4.2536,-11.8027,16.0696,-3.1304,-5.2174
1940,2.5675,4.1003,-11.6877,12.5913,-3.8957,-4.6609
1945,0.2299,4.4452,-11.1895,10.5043,-5.0783,-4.2435
1950,0.3066,3.8704,-11.1895,8.8348,-6.8174,-2.8522
1955,0.4982,3.0656,-10.9596,7.1652,-8.5565,-1.7391
1960,0.4598,2.4908,-10.9213,6.3304,-9.8087,-0.8348
1965,0.3449,2.2609,-10.768,5.0783,-11.2696,-0.4174
1970,0.1533,2.4525,-10.3848,3.1304,-12.7304,0.0696
1975,0.5365,2.4908,-10.1932,1.6,-14.887,0.6261
1980,0.4598,2.4525,-9.8483,0.1391,-16.487,1.1826
1985,0.4215,2.4525,-9.5034,-0.4174,-17.3913,1.4609
1990,0.4598,2.3375,-9.3502,-0.9043,-17.6,1.5304
1995,0.3832,2.4908,-9.3502,-1.0435,-17.113,1.3913
2000,0.4215,2.4142,-8.852,-0.5565,-15.9304,1.2522
2005,0.2682,2.4908,-8.852,0.487,-14.3304,1.3217
2010,0.4215,2.5291,-8.852,1.5304,-12.2435,0.9739
2015,0.3066,2.4525,-8.9286,2.7826,-10.0174,0.6261
2020,0.2299,2.2992,-9.0053,3.9652,-7.7217,0.487
2025,0.2682,2.031,-8.5838,5.6348,-5.5652,0.3478
2030,0.4982,1.916,-8.4305,7.3043,-4.2435,0.2783
2035,0.3832,1.8394,-8.4688,8.3478,-3.6174,-0.0696
2040,0.5748,1.916,-8.3538,9.5304,-3.4087,-0.4174
2045,0.1916,1.8777,-8.8137,10.1565,-3.9652,-0.6957
2050,0.5748,1.9543,-8.6221,9.9478,-3.8261,-1.0435
2055,0.4598,1.8394,-8.5838,9.8783,-4.8,-1.1826
2060,0.5748,1.916,-8.8137,9.8783,-5.1478,-1.0435
2065,0.3066,1.9927,-8.6604,9.6,-6.6087,-1.3217
2070,0.3832,2.0693,-9.0053,9.5304,-6.7478,-1.3217
2075,0.4982,1.8777,-8.967,9.2522,-6.1913,-0.9739
2080,0.0383,1.8011,-8.7754,9.2522,-5.8435,-1.3217
2085,0.1916,1.7244,-8.8137,9.3913,-5.7043,-1.3217
2090,0.1533,1.8394,-9.0053,9.1826,-5.1478,-1.2522
2095,0.2682,1.6478,-8.737,8.9739,-4.5217,-1.1826
2100,0.1916,1.7627,-9.0053,9.0435,-3.8261,-1.1826
2105,0.1916,1.916,-8.9286,9.0435,-3.2,-0.9739
2110,0.115,1.8394,-9.0053,8.9739,-2.5043,-0.9739
2115,0.0,1.9543,-9.1202,8.8348,-1.7391,-0.7652
2120,0.1533,1.9927,-9.1969,8.7652,-1.0435,-0.8348
2125,0.1533,1.9927,-9.2352,8.9043,-0.4174,-0.7652
2130,0.1916,2.031,-9.2735,9.3217,0.3478,-0.7652
2135,0.1533,2.1076,-9.1969,9.7391,1.1826,-0.6261
2140,0.4982,1.8011,-9.3502,10.1565,2.087,-0.7652
2145,0.0766,2.1459,-9.6567,10.4348,2.9913,-0.7652
2150,0.3449,1.9927,-9.5034,10.9217,3.7565,-0.7652
2155,0.2682,2.1076,-9.5034,11.3391,4.3826,-0.6957
2160,0.2682,2.2609,-9.5418,11.6174,4.9391,-0.7652
2165,0.4598,2.1843,-9.6184,11.7565,5.287,-0.6261
2170,0.3066,2.2609,-9.7334,11.4783,5.4261,-0.5565
2175,0.3066,2.2992,-9.7334,11.3391,5.3565,-0.4174
2180,0.0383,2.5291,-9.925,10.9217,5.4957,-0.3478
2185,0.2682,2.2609,-10.2315,10.2261,5.6348,-0.3478
2190,0.3449,2.2609,-10.1166,9.3913,5.9826,-0.0696
2195,0.4598,2.2609,-10.1549,8.4174,6.0522,0.0
2200,0.2299,2.2226,-10.2698,7.4435,5.7739,0.0696
2205,0.2682,2.2609,-10.3465,6.5391,5.6348,0.0696
2210,0.2299,2.2992,-10.3082,5.5652,5.9826,0.1391
2215,0.3832,2.2992,-10.3465,4.5913,6.5391,0.1391
2220,0.3449,2.3375,-10.1932,3.2696,7.3043,0.3478
2225,0.3832,2.4525,-10.0016,1.8783,7.5826,0.2087
2230,0.4215,2.3375,-9.925,0.9043,7.3739,0.0696
2235,0.6131,2.1459,-9.7334,0.5565,6.9565,0.0696
2240,0.4982,2.031,-9.5801,0.0696,5.9826,-0.1391
2245,0.4982,2.1459,-9.5418,0.2783,5.3565,-0.487
2250,0.4982,2.1076,-9.6184,0.2783,4.9391,-0.6957
2255,0.3449,2.2609,-9.4268,0.2087,4.3826,-0.6957
2260,0.4982,2.031,-9.3885,0.2783,4.0348,-0.8348
2265,0.4598,2.1459,-9.1969,0.6261,3.5478,-0.9739
2270,0.1916,2.1459,-9.1586,0.9043,2.9913,-1.0435
2275,0.4982,2.1459,-9.0436,1.113,2.6435,-0.9739
2280,0.3832,2.1076,-9.0436,1.4609,2.2957,-1.0435
2285,0.4215,2.2226,-9.0819,2.0174,1.9478,-0.9739
2290,0.5748,1.916,-9.0436,2.4348,1.7391,-0.9739
2295,0.3066,2.0693,-9.1202,2.8522,1.3217,-0.9043
2300,0.6131,2.1076,-9.1586,3.1304,1.1826,-0.6957
2305,0.6898,1.9543,-9.1586,3.3391,0.1391,-0.7652
2310,0.4598,2.3375,-8.8137,3.687,-0.4174,-0.6261
2315,0.4982,2.0693,-8.8137,4.1043,-1.0435,-0.5565
2320,0.6514,2.031,-8.852,4.7304,-1.8087,-0.487
2325,0.5365,2.1076,-8.967,5.287,-2.3652,-0.4174
2330,0.4215,2.031,-8.9286,5.9826,-2.713,-0.487
2335,0.4598,1.9543,-8.852,6.6783,-2.7826,-0.5565
2340,0.5365,2.0693,-8.6987,7.2348,-2.5739,-0.3478
2345,0.3066,2.1459,-9.2352,8.0,-2.6435,-0.4174
2350,0.3449,1.9543,-9.0053,8.487,-2.4348,-0.3478
2355,0.4982,1.9927,-9.1202,8.7652,-1.8783,-0.2087
2360,0.3449,1.916,-8.8903,9.2522,-1.3217,-0.3478
2365,0.4215,2.1459,-9.3118,9.6696,-0.9043,-0.2087
2370,0.4598,1.9927,-9.2352,10.2957,-0.6261,-0.1391
2375,0.4215,2.0693,-9.1969,11.0609,-0.5565,-0.1391
2380,0.3832,2.0693,-9.2352,11.687,-0.7652,0.0696
2385,0.4598,2.0693,-9.4268,12.1043,-0.8348,0.2783
2390,0.3832,2.1076,-9.3118,12.4522,-0.9043,0.4174
2395,0.3066,2.2992,-9.5801,12.6609,-0.8348,0.6261
2400,0.3066,2.2992,-9.695,12.6609,-0.5565,0.8348
2405,0.4215,2.2226,-9.695,12.7304,0.0,0.9043
2410,0.3449,2.1459,-9.695,12.8,0.487,0.9739
2415,0.4215,2.2226,-9.925,12.8696,0.7652,1.0435
2420,0.6131,2.5675,-9.8866,12.2435,1.0435,1.113
2425,0.5365,2.6058,-9.81,11.6174,1.2522,1.1826
2430,0.3832,2.2992,-9.4651,11.6174,0.6261,1.113
2435,0.4215,1.8777,-9.2735,11.9652,-0.9043,0.9043
2440,0.2682,1.4562,-9.1969,12.5217,-2.9913,0.4174
2445,0.115,1.4945,-9.5034,12.7304,-5.6348,0.1391
2450,0.3449,1.4562,-9.6184,12.3826,-7.4435,0.2783
2455,0.3066,1.9543,-9.5034,11.8957,-7.7913,0.4174
2460,0.2682,2.4142,-9.1969,11.2,-7.1652,0.487
2465,0.1916,2.2609,-9.1586,10.7826,-5.9826,0.4174
2470,0.1916,1.9543,-9.3118,10.7826,-4.3826,0.2087
2475,0.1533,1.9927,-9.3502,10.5043,-2.8522,0.0696
2480,0.115,1.9543,-9.3502,9.8087,-1.4609,0.0
2485,0.0766,1.916,-9.6184,9.0435,-0.3478,-0.0696
2490,0.0766,1.9927,-9.695,8.487,0.7652,0.0696
2495,0.2299,1.7627,-9.695,8.2783,1.8087,-0.0696
2500,0.3066,1.8011,-9.695,8.0,2.6435,-0.2087
2505,0.3832,1.6095,-9.2735,7.5826,2.9913,-0.2783
2510,0.3832,1.8777,-9.4651,6.6783,2.8522,-0.3478
2515,0.4215,1.916,-9.6184,6.0522,2.713,-0.487
2520,0.3066,1.8394,-9.5034,5.5652,2.7826,-0.6261
2525,0.1916,1.9927,-9.8866,5.0087,2.9217,-0.6261
2530,0.0766,2.4908,-9.6184,4.2435,3.0609,-0.6261
2535,0.115,2.5291,-9.6184,3.8957,4.1043,-0.9739
2540,0.0766,2.7591,-9.3118,3.2696,5.7739,-1.0435
2545,0.4982,2.1076,-9.695,3.0609,6.6087,-1.3913
2550,0.958,0.7281,-10.2698,2.9217,5.7043,-1.7391
2555,0.8814,0.115,-10.4231,2.3652,3.8957,-1.6696
2560,0.4215,0.6131,-9.7717,0.0,1.8087,-1.4609
2565,0.5365,1.4179,-9.6567,-2.6435,1.0435,-0.9739
2570,0.3449,2.5675,-9.3502,-5.3565,0.9739,-0.7652
2575,0.1916,2.989,-8.737,-6.2609,1.0435,-0.8348
2580,0.3066,2.5675,-9.0819,-3.7565,1.113,-1.2522
2585,0.3066,1.916,-9.4651,-0.0696,0.6957,-1.8783
2590,0.4215,1.6478,-9.3502,2.2261,-0.2783,-2.1565
2595,0.4982,1.8777,-9.3502,2.4348,-1.1826,-2.2261
2600,0.3832,2.2226,-9.4268,1.8783,-1.7391,-2.0174
2605,0.3832,2.2226,-9.3118,1.6,-1.6,-1.8087
2610,0.4215,1.7627,-9.2735,1.6,-0.6957,-1.6696
2615,0.4598,1.5328,-9.4268,1.7391,0.6957,-1.5304
2620,0.2682,1.8011,-9.1969,1.3217,1.6696,-1.3217
2625,0.4598,1.916,-9.6184,0.487,2.5043,-1.2522
2630,0.6898,2.031,-9.5801,0.1391,3.0609,-1.113
2635,0.4215,2.0693,-9.4268,0.4174,3.6174,-1.0435
2640,0.4982,1.8394,-9.3502,1.0435,4.0348,-1.0435
2645,0.4598,1.9543,-9.1586,1.8783,4.4522,-0.9043
2650,0.6514,1.9543,-8.9286,2.713,5.0783,-0.6957
2655,0.4982,1.9927,-8.8903,3.6174,5.7043,-0.6261
2660,0.4982,1.9543,-8.967,4.3826,5.9826,-0.9043
2665,0.5365,1.8394,-8.9286,4.9391,5.4261,-0.8348
2670,0.5748,1.8011,-8.9286,5.1478,3.9652,-1.113
2675,0.5365,1.8777,-9.1969,4.9391,2.0174,-1.113
2680,0.6131,1.916,-9.1586,4.5217,-0.0696,-1.1826
2685,0.6514,2.031,-9.3885,4.2435,-2.087,-1.1826
2690,0.4598,1.9927,-9.7334,3.8957,-3.8261,-1.113
2695,0.3066,2.1459,-9.81,3.8261,-4.9391,-1.1826
2700,0.3449,2.0693,-9.81,3.687,-5.4957,-1.1826
2705,0.2299,2.0693,-9.8866,3.5478,-5.4957,-1.113
2710,0.2299,2.031,-9.8483,3.4087,-4.8696,-0.9739
2715,0.2299,2.1076,-9.695,3.2696,-4.0348,-0.9043
2720,0.3066,2.031,-9.6567,3.2696,-3.2696,-0.8348
2725,0.1533,2.0693,-9.6184,3.2,-2.5739,-0.5565
2730,0.2299,2.1843,-9.695,3.3391,-2.087,-0.6957
2735,0.3832,2.1076,-9.5801,3.6174,-1.7391,-0.6261
2740,0.2299,2.031,-9.3885,4.0348,-1.5304,-0.487
2745,0.2682,2.031,-9.5801,4.5217,-1.3217,-0.487
2750,0.3449,1.9543,-9.5418,5.0783,-1.3217,-0.4174
2755,0.3449,2.031,-9.3885,5.4957,-1.3217,-0.3478
2760,0.2682,2.031,-9.4268,5.8435,-0.9739,-0.4174
2765,0.2682,2.1843,-9.5034,6.1913,-0.6261,-0.4174
2770,0.2682,2.1459,-9.5418,6.5391,-0.3478,-0.3478
2775,0.2299,2.0693,-9.4651,6.887,-0.2087,-0.3478
2780,0.2299,2.031,-9.5418,7.0957,-0.2087,-0.3478
2785,0.3066,1.8011,-9.4268,7.0957,-0.2783,-0.487
2790,0.4598,1.916,-9.6567,7.0957,-0.487,-0.6261
2795,0.2682,1.9927,-9.5034,7.0261,-0.7652,-0.6261
2800,0.4598,1.9927,-9.3885,6.9565,-0.9739,-0.6957
2805,0.3449,1.8777,-9.4268,6.8174,-1.2522,-0.7652
2810,0.3832,1.9543,-9.3502,6.7478,-1.3913,-0.6957
2815,0.3832,1.9927,-9.5034,6.6783,-1.4609,-0.9739
2820,0.2299,1.9927,-9.3118,6.5391,-1.5304,-1.0435
2825,0.3832,1.7627,-9.3885,6.3304,-1.5304,-0.9739
2830,0.3449,1.916,-9.3502,6.0522,-1.5304,-1.1826
2835,0.3832,1.7627,-9.4268,5.8435,-1.4609,-1.1826
2840,0.3832,1.6861,-9.3118,5.7043,-1.3913,-1.2522
2845,0.3449,1.8394,-9.2352,5.4261,-1.3913,-1.3217
2850,0.3066,1.8394,-9.3502,5.287,-1.4609,-1.3913
2855,0.3066,1.8394,-9.3502,5.1478,-1.5304,-1.4609
2860,0.2682,1.8777,-9.3118,5.1478,-1.3217,-1.5304
2865,0.2682,1.8777,-9.2352,5.0087,-1.3913,-1.4609
2870,0.3066,1.9543,-9.2735,4.8696,-1.1826,-1.3913
2875,0.2682,1.8777,-9.3118,4.9391,-1.0435,-1.4609
2880,0.2682,1.9543,-9.2735,4.9391,-0.7652,-1.4609
2885,0.3066,1.916,-9.2735,4.8696,-0.6261,-1.3217
2890,0.3832,1.8777,-9.5801,4.8696,-0.487,-1.3217
2895,0.3832,1.9543,-9.4651,4.9391,-0.2783,-1.3913
2900,0.2299,2.031,-9.5418,4.9391,-0.2087,-1.4609
2905,0.3066,1.9543,-9.5418,5.0087,-0.0696,-1.3217
2910,0.2682,1.8777,-9.5034,4.9391,0.0,-1.3217
2915,0.3066,1.9543,-9.695,4.8696,0.0,-1.3913
2920,0.3832,1.916,-9.6567,4.8696,0.0696,-1.3913
2925,0.3066,1.9543,-9.5034,4.8,0.0,-1.3217
2930,0.3449,1.916,-9.5418,4.6609,-0.0696,-1.3217
2935,0.3449,1.8394,-9.6567,4.313,0.0696,-1.3217
2940,0.4215,1.9927,-9.7334,4.1739,-0.0696,-1.3217
2945,0.2682,1.9543,-9.695,4.1043,-0.1391,-1.2522
2950,0.3066,1.8777,-9.4651,4.1043,-0.2783,-1.2522
2955,0.2299,1.6861,-9.6184,4.0348,-0.3478,-1.3217
2960,0.2682,1.916,-9.3885,3.9652,-0.487,-1.3217
2965,0.3066,1.8777,-9.6184,3.8957,-0.4174,-1.1826
2970,0.3449,1.9927,-9.6184,3.6174,-0.3478,-1.1826
2975,0.2299,1.9927,-9.5418,3.4783,-0.3478,-1.113
2980,0.3832,1.8777,-9.5801,3.3391,-0.487,-1.113
2985,0.2682,1.8011,-9.5034,3.3391,-0.6261,-1.0435
2990,0.3449,1.9927,-9.6184,3.4087,-0.6261,-1.1826
2995,0.3066,1.9543,-9.5418,3.5478,-0.6957,-0.9739
