timestamp,accX,accY,accZ,gyroX,gyroY,gyroZ
0,0.4982,-6.0546,-7.3192,-23.4435,-0.8348,-1.4609
5,0.5365,-5.9396,-7.3192,-22.887,-0.6957,-1.3913
10,0.4215,-5.978,-7.3192,-22.4696,-0.6957,-1.4609
15,0.3449,-5.978,-7.2425,-22.3304,-0.6957,-1.3913
20,0.2299,-5.8247,-7.3192,-22.6783,-0.8348,-1.6696
25,0.2299,-5.863,-7.3575,-23.513,-0.8348,-1.9478
30,0.115,-5.9013,-7.4725,-24.8348,-0.7652,-2.1565
35,0.1533,-5.9396,-7.2425,-26.2261,-0.6957,-2.4348
40,0.0766,-5.978,-7.2425,-27.2696,-0.2783,-2.5739
45,0.115,-6.0929,-7.0509,-27.9652,0.1391,-2.5739
50,0.1533,-6.2462,-7.2042,-28.7304,0.7652,-2.4348
55,0.2682,-6.1696,-7.0893,-29.6348,1.2522,-2.2957
60,0.1916,-6.0929,-7.4341,-30.7478,1.4609,-2.0174
65,0.2299,-6.1696,-7.3192,-31.513,1.6,-1.7391
70,0.1533,-5.9396,-7.3192,-32.2087,1.4609,-1.5304
75,0.115,-5.9396,-7.2042,-32.6261,1.113,-1.4609
80,0.2299,-6.0546,-7.2809,-32.6261,0.9043,-1.3217
85,0.2299,-5.748,-7.1276,-32.5565,1.0435,-1.113
90,0.3449,-5.6331,-7.2042,-32.487,1.1826,-1.2522
95,0.2299,-5.4415,-7.1659,-32.5565,1.113,-1.3217
100,0.2682,-5.4798,-7.2042,-32.6957,1.0435,-1.6
105,0.1916,-5.5181,-7.1659,-32.7652,0.8348,-1.8783
110,0.3066,-5.5564,-7.2425,-32.8348,0.6957,-2.2261
115,0.4215,-5.5181,-7.3958,-33.113,0.2783,-2.5043
120,0.2682,-5.5948,-7.4725,-33.4609,-0.0696,-2.7826
125,0.4982,-5.748,-7.5491,-33.6696,-0.3478,-3.1304
130,0.4215,-5.5564,-7.7024,-33.9478,-0.4174,-3.4087
135,0.3449,-5.5181,-7.8557,-33.9478,-0.487,-3.5478
140,0.4598,-5.5181,-7.8173,-33.6696,-0.5565,-3.5478
145,0.3832,-5.4798,-7.8173,-33.3913,-0.6261,-3.3391
150,0.4598,-5.4798,-7.9323,-33.113,-0.3478,-3.0609
155,0.5748,-5.4032,-7.9706,-33.113,0.0,-2.7826
160,0.6131,-5.2882,-7.894,-33.2522,0.6261,-2.3652
165,0.6898,-5.2499,-7.894,-33.4609,1.2522,-2.0174
170,0.6131,-5.2116,-7.8557,-33.8087,1.8783,-1.7391
175,0.5365,-5.3265,-7.6641,-34.0174,2.5739,-1.3913
180,0.5365,-5.2882,-7.5874,-34.4348,3.0609,-1.4609
185,0.4982,-5.2882,-7.4341,-34.8522,3.5478,-1.8087
190,0.3832,-5.2882,-7.3575,-35.3391,3.9652,-2.2957
195,0.3832,-5.2499,-7.3575,-35.687,4.3826,-2.7826
200,0.3832,-5.2116,-7.3575,-35.8957,4.6609,-3.3391
205,0.2682,-5.3265,-7.3192,-36.0348,4.5217,-3.7565
210,0.1533,-5.2882,-7.3575,-36.3826,4.1043,-3.9652
215,0.1916,-5.4415,-7.5108,-37.0087,3.7565,-4.1043
220,0.115,-5.3265,-7.6641,-38.0522,3.1304,-4.2435
225,0.1533,-5.4032,-7.7407,-39.0261,2.6435,-4.3826
230,0.1533,-5.4415,-7.779,-39.9304,1.9478,-4.4522
235,0.0766,-5.4798,-7.894,-40.6957,1.2522,-4.5913
240,0.115,-5.3265,-8.0089,-41.2522,0.5565,-4.4522
245,0.0766,-5.2499,-8.0856,-41.8087,-0.2087,-4.5913
250,0.0,-5.1349,-8.1239,-42.1565,-0.9043,-4.4522
255,0.0383,-4.9433,-8.0856,-42.3652,-1.6,-4.313
260,0.1533,-4.9816,-8.0473,-42.2957,-2.0174,-4.2435
265,0.115,-4.9433,-8.1239,-42.1565,-2.4348,-4.1043
270,0.2299,-4.8284,-8.0089,-42.087,-2.7826,-3.8957
275,0.3832,-4.7134,-7.6257,-41.8783,-3.1304,-3.8261
280,0.3066,-4.905,-7.7024,-41.6696,-3.4783,-3.9652
285,0.1916,-4.79,-7.6641,-41.6,-3.9652,-4.1739
290,0.115,-4.6751,-7.7407,-41.6696,-4.6609,-4.3826
295,0.1916,-4.8667,-7.5874,-41.7391,-5.3565,-4.4522
300,0.115,-4.8667,-7.6257,-42.2261,-6.0522,-4.6609
305,0.115,-4.8284,-7.7407,-42.8522,-6.4696,-5.1478
310,0.0766,-4.8284,-7.7407,-43.6174,-6.6087,-5.5652
315,0.0383,-4.9433,-7.7407,-44.2435,-6.887,-5.913
320,0.2299,-5.0966,-7.9323,-44.7304,-7.3043,-6.1217
325,0.2299,-4.905,-8.0473,-45.287,-7.8609,-6.4
330,0.3832,-4.905,-7.9323,-45.4957,-8.4174,-6.6087
335,0.2682,-4.8667,-8.0473,-45.3565,-8.6957,-6.7478
340,0.4215,-4.79,-8.1622,-45.1478,-8.9043,-6.6783
345,0.4982,-4.79,-7.9706,-44.8696,-8.7652,-6.6783
350,0.3832,-4.5218,-7.8557,-44.4522,-8.4174,-6.6087
355,0.4215,-4.5984,-7.8173,-44.1043,-8.0696,-6.3304
360,0.4982,-4.4452,-7.7024,-43.4783,-7.6522,-5.9826
365,0.3832,-4.2536,-7.5491,-42.7826,-7.1652,-5.5652
370,0.3066,-4.2152,-7.5874,-42.2261,-6.887,-5.1478
375,0.3449,-4.2919,-7.6641,-41.9478,-6.5391,-4.8696
380,0.4215,-4.2152,-7.4341,-42.087,-6.2609,-4.7304
385,0.1916,-4.062,-7.6257,-42.6435,-5.8435,-4.6609
390,0.3449,-4.2152,-7.4341,-43.6174,-5.4261,-4.9391
395,0.2299,-4.062,-7.5491,-45.0087,-4.5913,-5.4957
400,0.4215,-4.1003,-7.4725,-46.887,-3.7565,-5.9826
405,0.2299,-4.1003,-7.7407,-48.9739,-2.9217,-6.5391
410,0.2682,-3.9087,-7.779,-51.1304,-2.2261,-7.2348
415,0.3066,-3.832,-7.779,-52.7304,-1.7391,-8.0
420,0.2299,-3.8704,-7.9323,-53.7739,-1.3913,-8.4174
425,0.0766,-3.6021,-7.8173,-54.2609,-1.2522,-8.8348
430,0.0383,-3.5255,-7.894,-54.3304,-1.1826,-9.1826
435,0.0,-3.4488,-7.8557,-54.0522,-1.1826,-9.4609
440,-0.115,-3.3339,-7.779,-53.1478,-1.1826,-9.3913
445,-0.115,-3.3339,-7.779,-51.687,-1.3913,-9.2522
450,-0.3449,-3.3339,-7.6641,-50.0174,-1.6696,-9.0435
455,-0.3449,-3.2955,-7.5491,-48.4174,-1.9478,-8.6957
460,-0.2299,-3.2189,-7.7407,-46.9565,-2.5043,-8.2783
465,-0.115,-3.1039,-7.7407,-46.0522,-2.9217,-8.0
470,-0.2299,-3.1806,-7.7024,-45.7043,-3.4783,-7.7913
475,-0.0766,-3.0656,-7.8557,-45.9826,-3.8261,-7.8609
480,0.0,-3.1039,-7.7407,-46.887,-4.1043,-8.0696
485,0.0,-3.0656,-7.8173,-48.2783,-4.313,-8.4174
490,0.0383,-3.0656,-7.6641,-49.5304,-4.4522,-9.0435
495,0.115,-3.1039,-7.7407,-50.9217,-4.3826,-9.2522
500,0.115,-2.8357,-7.8173,-51.8957,-4.313,-9.2522
505,0.1916,-2.989,-7.8557,-52.4522,-4.1739,-9.3217
510,0.2682,-2.9507,-7.8557,-52.6609,-4.0348,-9.3913
515,0.3066,-3.0273,-7.7407,-52.4522,-3.8261,-9.113
520,0.2299,-3.0273,-7.7407,-51.7565,-3.6174,-9.0435
525,0.2299,-3.0273,-7.5874,-50.4348,-3.2,-8.7652
530,0.2299,-3.1039,-7.779,-48.9043,-2.9217,-8.6957
535,0.2299,-3.0656,-7.6641,-47.1652,-2.5739,-8.2783
540,0.1916,-3.1806,-7.7407,-45.2174,-2.1565,-7.9304
545,0.0766,-3.0273,-7.6257,-43.4783,-1.7391,-7.5826
550,0.0383,-2.9123,-7.7024,-41.9478,-1.3913,-7.3739
555,0.0,-2.989,-7.8557,-40.7652,-1.113,-7.0957
560,-0.115,-2.8357,-7.9323,-39.9304,-0.9043,-7.1652
565,-0.0766,-3.0656,-7.9706,-39.1652,-0.9043,-7.3739
570,-0.1533,-2.7974,-8.0856,-38.6783,-0.9739,-7.7913
575,-0.1916,-2.6441,-8.0089,-38.0522,-1.0435,-8.0
580,-0.1916,-2.6441,-7.9706,-37.287,-1.3913,-8.3478
585,-0.2682,-2.6058,-7.9706,-36.6609,-1.7391,-8.6261
590,-0.3832,-2.4525,-8.0089,-36.0348,-2.2261,-8.8348
595,-0.2299,-2.4142,-8.1622,-35.687,-2.713,-9.3913
600,-0.4215,-2.2226,-7.9706,-35.4783,-3.1304,-9.9478
605,-0.3449,-2.2609,-8.0473,-35.2696,-3.687,-10.5043
610,-0.3066,-2.1459,-8.0856,-35.1304,-4.2435,-10.9913
615,-0.1916,-2.1843,-8.0856,-34.9913,-4.6609,-11.4783
620,-0.115,-2.0693,-8.0473,-34.8522,-5.2174,-11.8957
625,-0.0766,-1.9927,-8.0473,-35.0609,-5.8435,-11.9652
630,0.0,-2.031,-8.0856,-35.4783,-6.5391,-12.1043
635,0.0,-2.0693,-8.1622,-36.313,-7.3043,-12.2435
640,0.0,-1.9927,-8.1622,-37.4957,-8.0696,-12.3826
645,0.115,-2.1076,-8.2005,-38.9565,-8.9739,-12.6609
650,0.0383,-1.9927,-8.2772,-40.6261,-9.8783,-12.9391
655,0.115,-2.0693,-8.3155,-42.2957,-10.713,-13.4261
660,0.0,-1.9543,-8.3538,-43.9652,-11.4087,-13.8435
665,0.0766,-2.2226,-8.4688,-45.4957,-12.2435,-14.5391
670,0.0766,-2.1459,-8.3921,-47.0957,-12.9391,-14.9565
675,0.0,-2.2609,-8.3921,-48.8348,-13.7043,-15.4435
680,-0.0383,-2.1459,-8.3155,-50.5043,-14.4,-16.1391
685,0.0,-2.0693,-8.5071,-51.8261,-15.3043,-16.9043
690,-0.115,-2.1459,-8.5071,-52.8,-15.8609,-17.3913
695,-0.0766,-2.1843,-8.4305,-53.287,-16.487,-18.1565
700,-0.0766,-2.0693,-8.3155,-53.3565,-17.0435,-18.7826
705,-0.1916,-2.1459,-8.1239,-53.4957,-17.6,-19.3391
710,-0.3449,-2.031,-8.2389,-53.4957,-18.3652,-19.8957
715,-0.2682,-1.916,-8.2005,-53.6348,-19.1304,-20.2435
720,-0.3066,-1.9927,-8.0473,-53.8435,-19.9652,-20.5913
725,-0.3066,-1.9927,-8.2005,-54.3304,-20.9391,-20.9391
730,-0.4215,-2.0693,-8.0856,-55.0957,-21.913,-21.3565
735,-0.3832,-2.031,-8.1622,-56.1391,-22.8174,-21.8435
740,-0.3832,-2.031,-8.3538,-57.6696,-23.8609,-22.5391
745,-0.5365,-1.8394,-8.4305,-59.9652,-24.6261,-23.513
750,-0.4598,-2.0693,-8.3538,-62.1913,-25.6,-24.5565
755,-0.4982,-2.1459,-8.3921,-64.2783,-26.7826,-25.6
760,-0.5748,-2.031,-8.737,-65.7391,-27.8957,-26.5739
765,-0.5365,-2.0693,-8.6987,-67.1304,-29.0783,-27.687
770,-0.6898,-1.916,-8.852,-68.0348,-30.3304,-28.6609
775,-0.6514,-1.7627,-8.6604,-68.5913,-31.6522,-29.7739
780,-0.7664,-1.7627,-8.5838,-69.1478,-32.9739,-30.887
785,-0.7664,-1.6478,-8.5454,-70.1217,-34.2957,-32.1391
790,-0.843,-1.5711,-8.3538,-71.0261,-35.8261,-33.1826
795,-0.843,-1.5711,-8.3155,-72.0,-37.0087,-34.0174
800,-0.843,-1.4945,-8.0473,-72.9739,-38.3304,-34.7826
805,-0.6514,-1.5711,-7.894,-74.1565,-39.4435,-35.2696
810,-0.6131,-1.5711,-8.1239,-75.8261,-40.6957,-35.6174
815,-0.6898,-1.6478,-8.1622,-77.9826,-41.6,-36.0348
820,-0.958,-1.6478,-8.6604,-80.3478,-42.0174,-36.5913
825,-0.7664,-1.4945,-8.5454,-82.5739,-41.9478,-37.287
830,-0.6131,-1.5328,-8.5838,-85.0783,-41.4609,-38.1913
835,-0.3832,-1.7627,-8.737,-86.8174,-40.9043,-38.6783
840,-0.3832,-1.6095,-8.852,-87.9304,-39.9304,-39.3739
845,-0.4598,-1.4945,-8.8137,-88.1391,-38.9565,-40.1391
850,-0.3449,-1.4179,-8.6987,-87.7217,-37.913,-40.9739
855,-0.3832,-1.6095,-8.6987,-86.8174,-37.3565,-41.7391
860,-0.3066,-1.2263,-8.3155,-86.0522,-36.8696,-42.7826
865,-0.3832,-1.1496,-8.0856,-84.8,-37.0087,-42.7826
870,-0.4982,-1.073,-7.9706,-83.8957,-36.8696,-42.7826
875,-0.5365,-0.9963,-7.8173,-83.7565,-36.313,-42.5739
880,-0.5748,-1.0346,-7.7407,-84.0348,-35.4087,-42.3652
885,-0.5365,-1.2646,-7.5491,-84.7304,-34.5739,-42.087
890,-0.5748,-1.4945,-7.5874,-85.287,-33.3217,-41.6
895,-0.6514,-1.6861,-7.2809,-85.4957,-31.7217,-41.3913
900,-0.958,-1.7244,-7.3575,-85.7739,-29.8435,-41.4609
905,-0.6898,-1.916,-7.2425,-86.4696,-27.9652,-42.0174
910,-0.7664,-1.9927,-7.1276,-87.0957,-26.9217,-41.8783
915,-0.6898,-1.8777,-7.0126,-87.513,-26.6435,-41.6696
920,-0.6898,-2.1843,-6.936,-87.8609,-27.687,-41.3913
925,-0.6131,-1.9927,-6.8593,-87.9304,-29.4261,-40.6957
930,-0.6898,-1.9927,-6.7827,-87.5826,-31.513,-39.9304
935,-0.6514,-2.1459,-6.8593,-87.0957,-33.3217,-39.3739
940,-0.7281,-1.5328,-6.936,-86.5391,-34.3652,-39.3739
945,-0.843,-1.5711,-6.936,-85.287,-34.713,-38.887
950,-0.958,-1.3412,-6.9743,-83.7565,-34.2957,-38.5391
955,-0.8814,-1.1879,-6.821,-82.4348,-33.3913,-38.2609
960,-0.958,-1.6478,-6.936,-81.3217,-32.2087,-37.7043
965,-0.958,-0.9963,-6.7061,-80.5565,-30.6783,-36.9391
970,-0.9197,-1.1113,-6.7827,-79.5826,-29.1478,-35.8957
975,-0.843,-1.2263,-6.821,-78.1913,-27.3391,-35.4783
980,-0.843,-1.3029,-6.7061,-76.8696,-25.6,-34.8522
985,-0.8814,-1.1113,-6.6677,-75.2696,-24.4174,-34.5043
990,-0.7281,-0.958,-6.4378,-73.1826,-23.513,-34.5043
995,-0.843,-0.958,-6.5145,-69.8435,-23.6522,-34.0174
1000,-1.073,-0.9197,-6.5145,-65.9478,-24.487,-33.7391
1005,-1.1496,-0.9197,-6.5528,-61.9826,-26.0174,-33.5304
1010,-1.073,-0.8814,-6.3229,-58.2261,-28.4522,-33.3913
1015,-1.1496,-0.7664,-6.1313,-55.0261,-31.513,-33.4609
1020,-1.2646,-0.7664,-6.0929,-52.313,-35.1304,-33.4609
1025,-1.4179,-0.843,-5.9396,-50.5739,-38.6087,-33.6
1030,-1.6478,-1.1113,-5.9396,-50.087,-41.6696,-33.5304
1035,-1.6861,-1.0346,-5.7097,-50.6435,-44.0348,-33.6
1040,-1.7244,-1.1879,-5.5181,-51.7565,-45.6348,-33.7391
1045,-1.8777,-1.4179,-5.2882,-52.5913,-46.8174,-33.7391
1050,-1.916,-1.6861,-5.2499,-52.6609,-47.513,-33.8087
1055,-1.9543,-1.916,-5.1732,-52.1739,-47.7913,-33.5304
1060,-1.9927,-2.1843,-4.905,-51.4783,-47.4435,-33.0435
1065,-1.7627,-2.2226,-4.9816,-50.5739,-47.1652,-32.2783
1070,-1.6478,-2.031,-5.0583,-49.0435,-46.8174,-31.7913
1075,-1.5328,-1.8777,-5.0966,-47.1652,-46.2609,-31.3043
1080,-1.1113,-1.6861,-5.4415,-45.287,-45.2174,-31.0957
1085,-0.9963,-1.3795,-5.8247,-42.9913,-43.8957,-31.4435
1090,-0.7281,-1.3412,-6.1313,-40.5565,-42.6435,-32.1391
1095,-0.6514,-1.3795,-6.3229,-37.913,-42.4348,-33.1826
1100,-0.6514,-1.5328,-6.4378,-35.2696,-43.2696,-34.0174
1105,-0.7281,-1.7627,-6.5528,-32.4174,-45.287,-34.5043
1110,-1.1496,-2.031,-6.6294,-30.0522,-47.7913,-34.6435
1115,-1.4562,-2.2226,-6.4761,-27.8957,-50.5043,-34.5043
1120,-1.7627,-2.5675,-6.1696,-26.3652,-53.4261,-34.1565
1125,-1.8777,-2.6058,-6.2079,-25.5304,-56.4174,-33.3913
1130,-2.1076,-2.9507,-6.1696,-26.2261,-59.0609,-32.487
1135,-2.1076,-3.1806,-5.7864,-27.687,-61.7739,-31.5826
1140,-2.1076,-3.4871,-5.6714,-28.4522,-65.2522,-30.4696
1145,-1.8394,-3.7937,-5.9396,-28.2435,-68.8,-30.0522
1150,-1.5328,-3.7937,-6.4378,-27.8261,-70.887,-29.2174
1155,-1.5328,-3.3722,-7.1659,-28.4522,-71.6522,-28.7304
1160,-1.4945,-3.0273,-7.3192,-29.6348,-71.7217,-28.1043
1165,-1.3795,-2.6441,-7.0509,-29.287,-70.7478,-26.9913
1170,-0.958,-2.1843,-6.7444,-26.6435,-69.9826,-23.1652
1175,-1.073,-1.8011,-6.3995,-23.1652,-69.0087,-18.087
1180,-1.4179,-1.3029,-6.1696,-19.687,-69.287,-13.7739
1185,-1.8394,-0.8047,-6.3229,-16.7652,-71.1652,-8.2087
1190,-2.1843,-0.5748,-6.5145,-14.9565,-75.4087,-3.2
1195,-2.0693,-0.6898,-6.1696,-13.287,-80.9043,0.8348
1200,-1.9927,-0.6131,-6.5145,-10.087,-86.1217,4.5217
1205,-1.916,-0.115,-6.6677,-3.687,-89.3913,6.6087
1210,-1.8394,0.0766,-6.9743,4.313,-90.087,6.887
1215,-1.3029,0.8047,-6.8977,13.6348,-90.5043,6.4
1220,-1.2263,1.1113,-6.5145,18.713,-90.713,5.9826
1225,-0.8814,1.916,-6.936,23.0957,-89.9478,5.4957
1230,-0.958,2.3759,-6.5145,26.2957,-88.1391,4.4522
1235,-1.3795,2.7207,-6.3612,29.3565,-86.1913,3.2
1240,-0.8814,2.9507,-6.1696,30.7478,-82.3652,2.3652
1245,-1.4945,2.3759,-6.3229,32.0,-77.5652,1.4609
1250,-1.3412,1.916,-6.821,36.4522,-72.4174,-2.3652
1255,-0.7281,2.9123,-7.2809,42.9913,-63.3043,-5.4261
1260,-2.2992,2.5675,-7.2042,49.7391,-50.9217,-8.2087
1265,-3.0656,2.6824,-7.3192,58.4348,-41.4609,-16.7652
1270,-3.6021,2.6058,-7.4341,66.2261,-32.9739,-27.5478
1275,-4.062,2.5675,-6.821,73.6696,-24.9043,-39.5826
1280,-4.3302,2.6058,-6.7061,81.5304,-18.5043,-49.8783
1285,-3.9087,3.1423,-7.1276,88.6261,-15.3739,-58.4348
1290,-3.6404,3.3339,-6.5528,89.6,-13.4261,-60.9391
1295,-3.9087,2.874,-5.8247,85.4957,-12.1739,-61.0087
1300,-3.9087,3.1806,-5.748,81.8087,-12.4522,-63.3043
1305,-3.4105,3.947,-6.6294,78.887,-13.0087,-63.2348
1310,-2.9123,4.5984,-6.7827,73.6,-12.4522,-59.7565
1315,-2.989,4.7517,-6.936,67.4087,-10.713,-54.8174
1320,-3.1806,4.3685,-6.7444,63.3739,-8.8348,-51.3391
1325,-3.6021,4.062,-6.8977,63.513,-5.2174,-50.9913
1330,-3.7937,3.4871,-7.0509,65.7391,-1.3217,-51.8957
1335,-4.2536,3.3339,-6.8593,67.7565,-0.0696,-54.3304
1340,-4.6751,3.4105,-7.4341,67.4087,-3.0609,-58.5043
1345,-5.0583,3.4488,-7.4725,62.9565,-9.4609,-63.1652
1350,-5.4415,3.2189,-7.2425,57.3217,-18.4348,-67.3391
1355,-6.1313,3.0656,-6.7444,53.0783,-29.8435,-71.7913
1360,-6.2845,3.2955,-7.0126,47.9304,-44.4522,-76.7304
1365,-6.821,3.4105,-7.2042,41.3217,-61.0087,-81.4609
1370,-7.0893,3.6021,-6.5145,35.5478,-77.1478,-85.5652
1375,-7.6641,3.7171,-6.0546,33.1826,-93.4957,-88.0696
1380,-8.5454,3.832,-5.9013,32.487,-110.0522,-90.5739
1385,-9.3502,4.2536,-5.9396,31.3043,-125.913,-93.4261
1390,-9.4651,4.7134,-6.1313,29.5652,-142.9565,-97.1826
1395,-10.1549,5.5564,-6.2462,27.4087,-160.9043,-101.0087
1400,-10.8063,6.3612,-6.6294,23.5826,-178.7826,-103.0261
1405,-11.6111,7.0893,-6.821,17.113,-193.3217,-102.9565
1410,-11.8027,7.5491,-6.2079,7.9304,-205.7739,-102.3304
1415,-11.2662,8.2005,-5.6714,-1.8783,-219.4783,-101.1478
1420,-11.0746,7.3575,-4.8284,-11.6174,-234.2261,-96.9739
1425,-11.2279,6.821,-4.6368,-19.8957,-252.313,-96.2783
1430,-10.8063,6.5528,-4.8284,-26.1565,-268.8696,-95.7217
1435,-10.6914,6.4378,-5.2882,-33.8087,-284.5913,-95.8609
1440,-11.9943,6.6294,-5.2882,-44.8,-299.7565,-96.3478
1445,-16.5544,7.2042,-5.4798,-52.6609,-310.0522,-90.0174
1450,-17.6273,8.737,-6.0929,-56.0,-317.1478,-77.0783
1455,-11.1512,8.9286,-4.905,-55.8609,-327.0261,-62.6783
1460,-9.9633,10.5381,-6.6294,-56.9043,-340.4522,-52.9391
1465,-11.4961,12.4158,-6.8977,-78.2609,-349.9826,-35.4783
1470,-17.8573,13.3355,-5.02,-99.2696,-348.2435,-10.5043
1475,-21.6127,12.0326,-6.5145,-119.6522,-341.913,20.9391
1480,-24.1035,11.9559,-9.3502,-144.5565,-336.487,43.1304
1485,-29.8515,16.5927,-8.6221,-189.1478,-324.0348,44.6609
1490,-38.6269,20.5014,-4.7517,-238.1913,-308.0348,53.1478
1495,-43.2636,19.8116,-6.821,-245.4957,-295.8609,79.8609
1500,-47.2489,20.2714,-11.1895,-227.6174,-298.1565,80.2783
1505,-45.1413,18.1638,-15.9029,-212.3826,-314.9913,61.4957
1510,-41.7308,11.9176,-20.1182,-204.9391,-323.1304,34.2261
1515,-41.6159,5.7097,-21.651,-189.7043,-300.6609,-1.113
1520,-36.1361,5.1732,-19.6583,-146.4348,-265.8783,-34.2957
1525,-27.514,5.4415,-14.3701,-87.0957,-228.2435,-47.5826
1530,-20.7313,4.7134,-7.1659,-23.513,-190.2609,-45.3565
1535,-18.2021,5.7097,-2.5291,39.6522,-158.4,-42.5043
1540,-17.704,6.0929,0.4982,89.0435,-130.7826,-44.8
1545,-16.0179,6.5145,2.9123,115.8261,-110.4696,-50.6435
1550,-13.0289,6.8593,3.947,120.2087,-93.8435,-61.0783
1555,-11.3811,6.5528,5.02,106.3652,-78.1217,-65.9478
1560,-8.4688,4.7517,6.0546,77.287,-64.6261,-64.1391
1565,-6.8977,4.2536,6.5145,40.9739,-56.1391,-64.4174
1570,-4.6751,3.3722,6.6677,7.8609,-52.1043,-64.2087
1575,-2.5291,2.4142,6.2462,-18.1565,-50.2261,-61.9826
1580,-1.5328,1.3412,5.0583,-36.2435,-49.1826,-55.5826
1585,0.5748,0.1916,3.5255,-48.3478,-46.9565,-46.8174
1590,0.3832,-0.3066,3.1423,-56.7652,-42.087,-38.4696
1595,1.3029,-0.6898,2.4908,-61.0087,-41.0435,-29.4261
1600,0.958,-0.8047,2.1459,-63.5826,-41.3913,-19.4783
1605,0.115,-1.1113,1.4945,-61.7043,-42.8522,-8.6261
1610,-0.958,-1.1879,0.7664,-54.9565,-43.6174,0.6261
1615,-2.1459,-0.8047,0.1533,-44.9391,-43.687,6.8174
1620,-2.7591,-0.4598,0.0,-33.3913,-42.3652,10.087
1625,-3.832,-0.0766,0.2682,-21.287,-39.3043,11.2
1630,-4.2919,0.4598,0.6131,-8.9739,-36.2435,10.6435
1635,-4.79,0.7664,1.1879,1.4609,-34.1565,8.9739
1640,-4.9816,0.4982,1.8394,7.2348,-34.2261,6.9565
1645,-4.8284,0.9197,1.8011,7.513,-36.5217,4.2435
1650,-6.1696,0.3832,2.6824,3.5478,-39.7913,3.1304
1655,-5.748,0.115,2.874,-0.6957,-47.3739,1.113
1660,-5.9396,0.0,3.1039,-6.1217,-55.3739,-1.9478
1665,-6.2462,0.0383,3.3339,-10.9913,-62.6087,-4.313
1670,-6.0929,-0.115,3.3339,-15.8609,-68.8696,-5.7739
1675,-6.2462,-0.6898,3.4105,-19.9652,-74.4348,-7.4435
1680,-6.1313,-0.8814,3.5638,-23.2348,-79.0261,-9.3913
1685,-6.0163,-1.1496,3.6404,-25.7391,-82.2261,-11.9652
1690,-6.1313,-1.073,3.5638,-27.2,-84.5913,-14.6783
1695,-6.5911,-1.3029,3.947,-29.0087,-86.4696,-16.9043
1700,-6.7061,-1.1113,3.6787,-31.2348,-87.9304,-18.6435
1705,-6.1696,-0.843,3.8704,-33.9478,-88.3478,-20.1739
1710,-6.7444,-0.5748,3.8704,-36.5913,-88.4174,-20.8
1715,-7.0509,-0.4215,3.7937,-38.0522,-86.6087,-20.5217
1720,-7.3958,-0.0383,3.8704,-37.913,-83.3391,-19.9652
1725,-7.779,0.2299,4.062,-36.313,-81.7391,-18.7826
1730,-7.894,0.8047,4.2152,-34.2957,-81.4609,-16.5565
1735,-8.1239,1.073,4.1386,-31.4435,-81.1826,-13.9826
1740,-8.2005,1.2263,4.0236,-27.7565,-81.3913,-11.4783
1745,-8.2005,0.8814,3.9087,-23.4435,-81.0435,-9.3217
1750,-7.9706,0.5365,3.947,-18.4348,-79.7217,-8.2087
1755,-8.0473,-0.0766,4.0236,-13.5652,-77.5652,-8.0696
1760,-8.2005,-0.4215,4.0236,-9.9478,-75.2,-9.0435
1765,-8.5071,-0.9197,3.947,-7.4435,-72.487,-10.5739
1770,-8.9286,-1.2263,3.832,-5.8435,-68.9391,-12.4522
1775,-9.2735,-1.3795,3.7937,-4.4522,-64.6261,-14.8174
1780,-9.81,-1.4179,3.7171,-2.9217,-59.1304,-17.1826
1785,-10.4231,-1.2263,3.6021,-1.0435,-52.8696,-19.2
1790,-10.768,-1.1496,3.5638,1.2522,-46.4696,-20.6609
1795,-11.2279,-0.9197,3.6404,4.3826,-39.8609,-21.5652
1800,-11.6111,-0.7281,3.6404,7.9304,-33.6,-22.8174
1805,-11.8027,-0.4982,3.6787,11.8261,-27.6174,-24.0696
1810,-11.9943,-0.3449,3.7554,15.4435,-21.7043,-25.2522
1815,-11.9559,-0.2299,3.5638,18.1565,-16.0696,-26.2957
1820,-12.1859,0.0,3.4871,20.5913,-10.3652,-27.0609
1825,-12.1475,0.1533,3.4488,23.2348,-4.4522,-26.9217
1830,-11.9559,0.1916,3.2955,26.2261,1.3217,-26.087
1835,-11.6111,0.4215,3.1039,29.0783,7.4435,-24.7652
1840,-11.8793,0.6898,3.3339,31.4435,14.1913,-23.6522
1845,-11.6877,0.7664,3.4105,34.5043,20.1739,-22.2609
1850,-11.3811,0.9963,3.4871,38.1217,25.8087,-21.3565
1855,-11.7643,0.9963,3.7554,41.5304,31.0261,-20.313
1860,-11.7643,1.073,3.9853,44.4522,34.5739,-19.5478
1865,-11.726,1.2263,4.1769,46.1913,36.8,-18.7826
1870,-11.4195,1.1879,4.4452,46.2609,37.4261,-18.2261
1875,-11.2279,1.0346,4.2536,45.7043,37.0087,-17.7391
1880,-11.1895,1.1496,4.3685,45.0783,36.2435,-16.9739
1885,-10.8446,0.843,4.4452,44.2435,35.5478,-15.3043
1890,-10.7297,0.7281,4.1386,43.4783,35.1304,-13.4261
1895,-10.3848,0.4215,3.9853,42.3652,34.9913,-11.6174
1900,-10.0399,0.3832,3.7937,40.6261,35.4087,-10.2261
1905,-9.6184,0.4598,3.6021,38.4,36.0348,-9.113
1910,-9.1969,0.6131,3.2189,35.4087,37.2174,-8.3478
1915,-8.9286,0.8814,3.1423,32.5565,39.3739,-7.513
1920,-8.1239,0.8814,2.9507,29.7043,42.2261,-6.4696
1925,-7.8173,0.9197,2.7207,26.8522,46.0522,-5.7043
1930,-8.3155,0.9963,2.5675,24.5565,49.7391,-5.4957
1935,-8.2389,0.8047,2.3759,22.887,51.9652,-5.0087
1940,-8.7754,0.7664,2.4525,21.0783,53.5652,-4.9391
1945,-8.737,0.7281,2.3375,19.687,54.1217,-4.8
1950,-8.8137,0.5365,2.2992,18.2261,53.913,-4.8
1955,-8.6987,0.4982,1.8777,16.6261,53.8435,-5.0783
1960,-8.6604,0.3066,1.9543,14.7478,53.7043,-5.4957
1965,-8.852,0.4982,1.7244,14.3304,53.287,-5.9826
1970,-8.967,0.2682,1.5328,14.1217,52.6609,-6.0522
1975,-8.6604,0.2682,1.1879,13.913,51.7565,-6.0522
1980,-8.6604,0.115,0.958,13.287,51.0609,-6.0522
1985,-8.5838,0.0766,0.8814,12.3826,50.6435,-5.913
1990,-8.5838,-0.1533,0.958,11.9652,49.9478,-6.0522
1995,-8.6987,-0.0766,0.7664,12.5217,48.9739,-5.8435
2000,-8.6987,-0.2682,0.958,12.4522,48.487,-5.5652
2005,-8.8137,-0.1533,0.5748,13.3565,48.0,-5.287
2010,-8.852,-0.0766,0.6131,13.4261,48.0696,-5.0087
2015,-9.4268,-0.1533,0.7664,13.5652,48.2087,-4.1739
2020,-9.695,-0.2299,0.7281,13.7043,47.9304,-3.6174
2025,-9.8483,-0.3449,0.5365,13.5652,47.7217,-3.2696
2030,-10.0782,-0.3066,0.3832,13.7739,47.6522,-2.7826
2035,-10.2698,0.0,0.1533,14.3304,47.8609,-2.5043
2040,-10.2698,0.0766,0.0766,13.913,48.3478,-2.6435
2045,-10.3848,0.0383,0.1916,13.0783,48.8348,-2.713
2050,-10.653,0.3066,-0.1916,11.4783,49.6,-3.0609
2055,-10.4231,0.1916,-0.1916,9.7391,50.2261,-3.3391
2060,-10.7297,0.1533,-0.3832,8.2087,50.8522,-3.6174
2065,-10.6147,0.1916,-0.4598,7.3739,51.1304,-3.8261
2070,-10.5381,0.0383,-0.5365,6.5391,51.4783,-4.2435
2075,-10.6914,0.0,-0.6898,5.7043,51.5478,-4.8
2080,-10.7297,0.0,-0.6898,4.6609,51.6174,-5.3565
2085,-10.653,-0.1533,-0.8814,3.6174,51.5478,-5.7739
2090,-10.7297,-0.115,-0.958,2.6435,51.4087,-6.1217
2095,-10.6147,0.0383,-0.843,1.6696,51.0609,-6.6087
2100,-10.5381,0.0766,-0.7281,0.7652,50.4348,-6.4696
2105,-10.6914,0.0383,-0.7281,0.0696,49.6,-6.0522
2110,-10.7297,0.115,-0.7664,-0.6261,48.2783,-5.3565
2115,-10.5764,0.115,-0.9197,-1.0435,46.7478,-4.5217
2120,-10.653,0.0383,-0.7664,-1.8087,45.287,-3.5478
2125,-10.5381,0.0,-0.9197,-2.2957,43.6174,-2.5739
2130,-10.4614,0.1916,-0.7281,-2.8522,42.2261,-1.6
2135,-10.4614,0.1916,-0.7281,-3.4783,40.7652,-0.5565
2140,-10.3082,0.0766,-0.843,-4.0348,39.3043,0.2087
2145,-10.6147,0.115,-0.6898,-5.0087,37.9826,0.6957
2150,-10.4614,0.2299,-0.7664,-5.8435,36.5913,1.1826
2155,-10.4614,0.2299,-0.6131,-6.6783,35.2696,1.9478
2160,-10.3465,0.1916,-0.8047,-7.513,33.9478,2.5043
2165,-10.1932,0.115,-0.6131,-8.4174,32.6957,3.0609
2170,-10.1549,0.1916,-0.6514,-9.1826,31.4435,3.8261
2175,-10.1166,0.0766,-0.6514,-9.8087,30.2609,4.5913
2180,-9.9633,0.0766,-0.6514,-10.6435,29.0087,5.2174
2185,-9.8866,0.0766,-0.4598,-11.2696,27.687,5.7043
2190,-9.8483,0.0,-0.4598,-11.8957,26.5043,6.1913
2195,-9.81,0.0766,-0.4598,-12.4522,25.3217,6.6783
2200,-9.7717,0.0,-0.5365,-12.9391,24.1391,6.8174
2205,-9.7334,-0.0383,-0.5748,-13.287,23.1652,6.887
2210,-9.7717,-0.0383,-0.8814,-13.4261,22.0522,6.887
2215,-9.5034,-0.2682,-0.4598,-13.2174,21.0783,6.8174
2220,-9.7334,-0.2299,-0.5365,-13.2174,20.0348,6.6783
2225,-9.7717,-0.115,-0.4982,-12.9391,19.0609,6.4696
2230,-9.6567,-0.3066,-0.6131,-12.6609,18.1565,6.1913
2235,-9.6567,-0.1916,-0.6514,-12.313,17.1826,5.8435
2240,-9.6567,-0.1916,-0.6514,-12.1043,16.4174,5.5652
2245,-9.695,-0.2299,-0.6898,-11.7565,15.5826,5.6348
2250,-9.7717,-0.1916,-0.8047,-11.5478,14.7478,5.7739
2255,-9.695,-0.0766,-0.7664,-11.1304,13.7739,5.913
2260,-9.7717,-0.0766,-0.843,-10.9217,12.8696,6.0522
2265,-9.7334,-0.0383,-0.843,-10.5739,11.7565,6.4696
2270,-9.7717,0.0,-0.8814,-10.3652,10.713,6.8174
2275,-9.8483,0.0,-0.7664,-10.087,9.8783,7.0957
2280,-9.7717,0.0,-0.8047,-9.8087,8.7652,7.513
2285,-9.81,0.0,-0.7664,-9.5304,7.5826,7.7217
2290,-9.8483,0.0,-0.7664,-9.1826,6.4696,7.9304
2295,-9.8866,-0.0766,-0.6898,-8.5565,5.3565,7.7217
2300,-9.81,-0.0383,-0.7281,-7.9304,4.1739,7.5826
2305,-9.8866,0.0,-0.6898,-6.9565,3.2,7.1652
2310,-10.0399,0.0,-0.6898,-5.9826,2.3652,6.6087
2315,-9.8866,0.0383,-0.4598,-4.9391,1.6696,6.0522
2320,-9.9633,-0.0383,-0.6898,-4.0348,1.2522,5.4957
2325,-10.0399,0.0,-0.6131,-3.2696,1.0435,4.8
2330,-10.0016,0.0,-0.6131,-2.6435,0.9739,4.1739
2335,-10.0782,0.0,-0.5365,-2.2261,1.1826,3.687
2340,-10.0016,0.0766,-0.6514,-1.9478,1.5304,3.2696
2345,-10.0782,0.115,-0.5748,-1.5304,1.9478,2.8522
2350,-10.0782,0.0383,-0.7281,-1.113,2.2957,2.6435
2355,-10.1549,0.2299,-0.7281,-0.6261,2.5739,2.5043
2360,-10.1549,0.1916,-0.6898,-0.0696,2.7826,2.2261
2365,-10.1166,0.2299,-0.5748,0.2783,2.9217,2.087
2370,-10.1166,0.4598,-0.3449,0.6261,2.8522,2.0174
2375,-10.0016,0.3832,-0.4982,0.7652,2.8522,1.8783
2380,-10.1166,0.5748,-0.4598,0.8348,2.6435,1.8783
2385,-9.9633,0.4982,-0.2682,0.8348,2.3652,1.8783
2390,-10.0016,0.5365,-0.4215,0.6957,2.0174,1.8783
2395,-9.925,0.5365,-0.3449,0.6261,1.4609,1.9478
2400,-9.925,0.4598,-0.3832,0.5565,0.9739,1.8783
2405,-9.81,0.3832,-0.3832,0.6261,0.2087,2.0174
2410,-9.8483,0.4215,-0.2299,0.487,-0.4174,2.087
2415,-9.925,0.5748,-0.3449,0.5565,-1.113,2.2261
2420,-9.81,0.3832,-0.2682,0.6261,-1.6696,2.2261
2425,-9.8483,0.4215,-0.1916,0.8348,-2.1565,2.1565
2430,-9.81,0.3066,-0.1533,0.9739,-2.5739,2.1565
2435,-9.81,0.3066,-0.2299,1.113,-2.9217,2.1565
2440,-9.8483,0.2299,-0.2299,1.3217,-3.2696,2.0174
2445,-9.7717,0.3449,-0.2299,1.5304,-3.5478,1.7391
2450,-9.7717,0.3066,-0.115,1.6696,-3.6174,1.5304
2455,-9.81,0.2682,-0.115,1.7391,-3.687,1.2522
2460,-9.8866,0.3832,-0.2682,1.8783,-3.687,0.9739
2465,-9.81,0.4215,-0.3449,1.9478,-3.4783,0.487
2470,-9.81,0.3449,-0.1916,2.0174,-3.4087,0.0696
2475,-9.7334,0.3066,-0.3449,2.087,-3.2,-0.4174
2480,-9.7717,0.2682,-0.2299,2.1565,-2.9217,-0.6957
2485,-9.81,0.4215,-0.2682,2.3652,-2.713,-1.113
2490,-9.81,0.3832,-0.0383,2.5043,-2.5043,-1.5304
2495,-9.8483,0.3449,-0.1916,2.4348,-2.2261,-1.8783
2500,-9.8483,0.4598,-0.3066,2.5043,-1.9478,-2.2261
2505,-9.81,0.3832,-0.2682,2.5043,-1.8783,-2.5043
2510,-9.8866,0.4215,-0.2299,2.2957,-1.9478,-2.7826
2515,-9.8483,0.5748,-0.115,2.1565,-1.8087,-3.1304
2520,-9.8483,0.4598,-0.1916,2.087,-1.8087,-3.2696
2525,-10.0016,0.4215,-0.0766,1.8783,-1.8087,-3.3391
2530,-9.8483,0.5365,-0.3832,1.6696,-1.9478,-3.687
2535,-9.925,0.4215,-0.1533,1.4609,-2.0174,-3.8261
2540,-9.9633,0.4215,-0.1916,1.1826,-2.0174,-3.8957
2545,-9.925,0.3449,-0.2299,1.2522,-2.0174,-4.1043
2550,-9.9633,0.3449,-0.1533,1.1826,-2.1565,-4.1043
2555,-10.0399,0.3066,-0.115,1.0435,-2.087,-4.2435
2560,-9.925,0.3449,-0.115,0.9043,-2.1565,-4.2435
2565,-9.8866,0.4598,-0.3449,0.7652,-2.1565,-4.313
2570,-9.9633,0.2682,-0.0383,0.6957,-2.087,-4.313
2575,-9.8483,0.2682,-0.2682,0.487,-2.087,-4.313
2580,-9.925,0.2682,-0.0383,0.3478,-2.087,-4.313
2585,-9.8483,0.1533,-0.1916,0.3478,-2.0174,-4.3826
2590,-9.81,0.2682,-0.115,0.5565,-1.9478,-4.313
2595,-9.8866,0.2299,0.0,0.5565,-1.9478,-4.1739
2600,-9.81,0.0383,-0.0766,0.6957,-1.7391,-4.2435
2605,-9.7717,0.1916,-0.0766,0.6957,-1.3913,-3.9652
2610,-9.7717,0.1533,0.0,0.6957,-1.1826,-3.8957
2615,-9.7334,0.115,0.0,0.7652,-0.9043,-3.7565
2620,-9.8483,0.0,-0.0383,0.8348,-0.6957,-3.6174
2625,-9.8483,0.1916,0.0,0.9043,-0.6261,-3.5478
2630,-9.925,0.0383,0.0,0.9739,-0.3478,-3.3391
2635,-9.6567,0.115,0.0383,0.9739,-0.2087,-3.3391
2640,-9.81,0.0383,0.0383,1.0435,0.0,-3.1304
2645,-9.81,0.0383,0.0,1.2522,0.0696,-3.0609
2650,-9.925,0.1533,0.0,1.4609,0.2783,-2.7826
2655,-9.8483,0.115,0.0,1.6,0.3478,-2.7826
2660,-9.81,0.115,0.0,1.8087,0.6261,-2.6435
2665,-9.8483,0.0,0.0383,1.8783,0.8348,-2.5043
2670,-9.81,0.0383,0.0,1.9478,1.1826,-2.3652
2675,-9.81,0.115,0.0,2.087,1.3217,-2.2261
2680,-9.8866,0.0766,0.0766,2.0174,1.6,-2.1565
2685,-9.81,0.0766,-0.0383,2.0174,1.8087,-1.9478
2690,-9.7717,0.0,0.0383,2.0174,2.1565,-1.8087
2695,-9.8866,0.0383,0.0766,2.0174,2.4348,-1.7391
2700,-9.8483,0.0,0.0383,2.0174,2.6435,-1.5304
2705,-9.81,0.0,0.0383,1.9478,2.9217,-1.3217
2710,-9.8483,0.0766,-0.0766,1.9478,3.2,-1.0435
2715,-9.8866,0.0766,0.115,1.8783,3.2696,-0.9739
2720,-9.8483,0.0383,0.0,1.8783,3.4783,-0.7652
2725,-9.81,0.0383,0.0383,1.8087,3.687,-0.6261
2730,-9.8483,0.1533,0.0766,1.7391,3.7565,-0.4174
2735,-9.8866,0.0383,0.0383,1.6696,4.0348,-0.3478
2740,-9.9633,-0.115,-0.0383,1.6,4.1043,-0.2087
2745,-9.8483,0.1916,-0.0766,1.3913,4.2435,-0.0696
2750,-9.925,0.1916,0.0766,1.2522,4.2435,0.1391
2755,-9.81,0.0766,-0.0766,1.113,4.5217,0.0696
2760,-9.8866,0.1916,0.0,0.9739,4.6609,0.2087
2765,-9.9633,0.115,0.1533,0.8348,4.8,0.2783
2770,-9.8866,0.1533,-0.0383,0.7652,5.0783,0.4174
2775,-9.925,0.1533,0.0383,0.487,5.0783,0.5565
2780,-9.8483,0.115,0.0766,0.3478,5.0783,0.6261
2785,-9.8483,0.2682,0.0,0.2087,5.1478,0.6957
2790,-9.8483,0.2299,0.0383,0.0696,5.287,0.8348
2795,-9.8866,0.115,0.0383,-0.1391,5.287,0.8348
2800,-9.8866,0.2682,0.0,-0.2783,5.4261,0.9739
2805,-9.8483,0.115,0.0,-0.4174,5.5652,1.1826
2810,-9.8483,0.1533,0.0,-0.5565,5.5652,1.0435
2815,-9.8866,0.0766,0.0,-0.6261,5.6348,1.0435
2820,-9.8866,0.2682,-0.0383,-0.6261,5.7043,1.113
2825,-9.8866,0.1533,0.0766,-0.7652,5.7739,1.1826
2830,-9.925,0.1916,0.115,-0.9043,5.913,1.1826
2835,-9.81,0.1533,0.0,-0.9043,5.913,1.1826
2840,-9.8866,0.2299,0.0,-0.6957,5.9826,1.1826
2845,-9.8866,0.115,-0.1533,-0.7652,6.1217,1.0435
2850,-9.81,0.1533,0.115,-0.7652,6.0522,1.0435
2855,-9.81,0.1916,0.0,-0.8348,6.1217,0.9739
2860,-9.925,0.2299,0.0,-0.7652,6.1217,0.9043
2865,-9.8483,0.1916,-0.1533,-0.7652,6.1913,0.9043
2870,-9.8866,0.1916,-0.0766,-0.6261,6.2609,0.8348
2875,-9.8483,0.2299,0.0383,-0.6261,6.3304,0.6957
2880,-9.8866,0.1916,-0.115,-0.6957,6.3304,0.6957
2885,-9.81,0.1533,-0.0383,-0.7652,6.3304,0.6261
2890,-9.8483,0.3066,-0.0383,-0.6957,6.2609,0.6957
2895,-9.8866,0.115,0.0,-0.7652,6.1217,0.6957
2900,-9.8483,0.1916,-0.0766,-0.8348,6.1217,0.6957
2905,-9.8866,0.2299,-0.0383,-0.9043,6.0522,0.6261
2910,-9.9633,0.2299,-0.0766,-0.9739,5.9826,0.6957
2915,-9.8483,0.1533,-0.1533,-1.0435,5.9826,0.6261
2920,-9.8483,0.2682,-0.0383,-1.0435,5.9826,0.5565
2925,-9.8483,0.2299,0.0,-1.113,5.913,0.487
2930,-9.81,0.2299,-0.115,-1.113,5.8435,0.487
2935,-9.81,0.0383,0.0383,-1.0435,5.9826,0.487
2940,-9.9633,0.2682,0.0,-0.9739,5.913,0.487
2945,-9.925,0.2682,-0.0383,-0.9739,5.7739,0.4174
2950,-9.8866,0.2682,-0.115,-0.9043,5.7739,0.4174
2955,-9.7717,0.115,0.2299,-0.9043,5.6348,0.487
2960,-10.0016,0.1533,-0.0766,-0.8348,5.6348,0.487
2965,-9.8483,0.1916,-0.115,-0.8348,5.5652,0.3478
2970,-9.8483,0.1916,-0.2299,-0.8348,5.4957,0.2783
2975,-9.8866,0.2682,-0.0766,-0.7652,5.3565,0.1391
2980,-9.925,0.1533,-0.0766,-0.6957,5.3565,0.1391
2985,-10.0399,0.2682,-0.0383,-0.5565,5.287,0.0
2990,-9.8483,0.115,-0.0383,-0.487,5.2174,0.0
2995,-9.925,0.115,-0.0766,-0.6261,5.0783,-0.1391
