timestamp,accX,accY,accZ,gyroX,gyroY,gyroZ
0,0.958,-10.0399,1.0346,-8.0696,103.7913,-13.0783
5,0.3832,-9.0053,1.073,-3.4087,99.3391,-8.0
10,0.0766,-7.2425,1.2646,4.313,92.7304,-3.3391
15,0.0383,-5.5181,1.073,14.6783,85.4261,1.0435
20,0.0383,-3.7554,0.3832,26.8522,79.1652,4.313
25,0.2299,-2.1459,-0.3832,37.7043,74.2957,6.0522
30,0.6131,-0.115,-1.3412,44.9391,70.2609,7.7217
35,1.1496,1.5328,-1.9927,48.487,65.8087,9.1826
40,1.1496,2.8357,-3.0656,51.1304,62.1913,10.5043
45,1.1879,3.6787,-4.0236,50.8522,59.4087,12.2435
50,1.1496,3.9853,-4.905,47.6522,57.8783,13.913
55,1.1879,4.062,-5.6331,40.9739,56.7652,15.2348
60,0.9963,3.5638,-5.978,31.9304,55.5826,16.2087
65,0.6514,3.1423,-6.2845,21.6348,54.1217,17.5304
70,0.2299,2.5291,-6.3995,10.8522,51.7565,19.1304
75,-0.0383,1.3795,-6.0163,1.2522,47.9304,20.4522
80,-0.4982,0.4598,-5.7864,-7.0957,41.8087,21.2174
85,-0.843,-0.4215,-5.02,-14.0522,33.2522,21.4957
90,-1.1879,-1.4945,-4.2919,-19.4783,23.2348,22.7478
95,-1.5328,-2.3375,-3.3722,-22.4,12.2435,24.7652
100,-1.8394,-2.9123,-2.7207,-22.1217,1.4609,27.4087
105,-2.0693,-3.4488,-2.4525,-19.7565,-8.2087,30.4
110,-2.1843,-3.4871,-2.031,-16.2783,-16.0,33.8087
115,-2.6441,-2.989,-1.6095,-11.4783,-21.3565,36.7304
120,-1.916,-2.9507,-1.4562,-6.6087,-24.0,39.7217
125,-1.3029,-2.7591,-1.2646,-1.3217,-24.0,40.0696
130,-0.8047,-2.1843,-0.8814,4.4522,-21.4957,38.9565
135,0.0,-1.6095,-0.6514,10.5043,-17.113,37.0087
140,0.4598,-1.1879,-0.843,16.487,-13.4957,33.9478
145,1.3412,-0.6898,-1.1879,19.9652,-11.4087,30.0522
150,1.9927,-0.3449,-1.3029,21.7043,-10.9217,25.3217
155,2.3759,0.0,-1.3412,22.5391,-12.9391,20.1739
160,2.6824,0.1916,-2.1076,22.3304,-17.3217,15.0261
165,2.5291,0.3832,-3.0656,20.4522,-22.9565,10.9913
170,2.8357,-0.1916,-4.8284,15.1652,-28.9391,9.2522
175,3.1806,-1.4562,-6.7061,3.8957,-34.9913,8.0
180,2.989,-2.8357,-9.6567,-15.6522,-40.5565,5.7043
185,1.3412,-4.5218,-14.6,-46.0522,-41.8087,5.0087
190,-0.843,-6.6677,-21.4211,-88.1391,-33.6696,6.4
195,-3.2572,-9.4651,-26.7476,-135.2348,-14.8174,5.8435
200,-3.3339,-13.4504,-25.6746,-167.5826,5.4957,-0.9739
205,-0.6514,-17.5124,-16.5927,-164.9391,10.713,-16.0696
210,2.5675,-21.6127,-2.5675,-130.0174,3.3391,-34.7826
215,3.1806,-26.2111,7.2425,-79.1652,-7.3043,-51.2
220,1.8394,-29.0085,9.1969,-32.0696,-12.7304,-61.0087
225,0.4215,-30.6562,7.4725,-1.3913,-7.7913,-64.6261
230,-1.073,-31.2694,4.4068,14.9565,-2.4348,-68.5217
235,-2.6824,-30.0814,0.7664,26.2957,1.1826,-73.8783
240,-3.1423,-27.7439,-1.6095,37.8435,5.8435,-76.8
245,-3.6787,-24.2951,-3.1039,48.0696,13.4957,-75.3391
250,-3.4105,-20.0032,-3.7937,56.9739,14.7478,-66.2261
255,-2.4908,-16.2478,-3.2189,62.3304,8.0696,-49.9478
260,-1.5711,-13.642,-2.1459,63.3739,-8.2087,-30.8174
265,-1.1113,-12.4541,-1.6095,57.0435,-31.3043,-13.4261
270,-0.843,-12.7607,-1.0346,41.3217,-53.2174,0.6261
275,-0.3832,-12.8373,-1.3412,17.8783,-73.1826,11.5478
280,-0.115,-13.9486,-1.7627,-4.2435,-86.6087,22.1217
285,0.0,-15.673,-1.9543,-21.2174,-91.1304,33.7391
290,-0.3832,-17.9339,-1.8394,-33.8783,-90.3652,44.313
295,-0.6514,-19.4667,-1.3412,-42.2261,-86.4696,51.3391
300,-0.2299,-19.9649,-1.0346,-45.287,-81.6696,56.0
305,0.115,-20.1948,-0.5748,-43.687,-79.0957,60.1043
310,0.5748,-19.9649,0.0,-38.887,-79.4435,62.887
315,1.3029,-19.2751,0.0383,-31.7913,-82.2261,64.7652
320,1.4562,-18.777,0.0,-25.5304,-84.8,65.9478
325,0.958,-18.9302,0.1533,-22.9565,-86.3304,65.3217
330,0.8047,-18.8536,0.3832,-23.3739,-86.5391,60.6609
335,0.8047,-18.4704,0.8047,-23.513,-87.0261,53.0087
340,1.1879,-17.704,0.843,-20.1043,-85.0087,46.8174
345,1.1113,-16.4011,0.6514,-13.0783,-78.6783,42.7826
350,1.2646,-14.7533,0.0766,-4.6609,-69.4957,38.9565
355,1.1113,-13.2971,-0.0383,3.4087,-59.0609,35.6174
360,1.073,-12.0326,-0.3832,8.5565,-51.2,32.9043
365,1.1113,-10.5764,-0.4982,9.113,-47.6522,29.9826
370,1.4945,-9.6184,-0.3449,5.8435,-46.6087,27.687
375,2.1459,-8.9286,0.0,2.2957,-46.0522,26.0174
380,2.4142,-8.4305,0.4215,2.2957,-44.5913,22.6783
385,2.8357,-7.2809,0.6131,8.2087,-41.113,17.0435
390,2.6058,-6.3229,0.0383,17.8087,-35.0609,10.9913
395,3.3339,-5.1732,-0.6898,26.9913,-30.7478,3.9652
400,3.2572,-3.5255,-2.0693,33.8783,-26.6435,-1.8783
405,3.5255,-2.4142,-3.0656,37.9826,-24.1391,-8.3478
410,3.0273,-1.073,-4.4835,39.7217,-23.7913,-15.4435
415,2.6441,-0.0383,-5.0583,38.5391,-23.7217,-21.4957
420,1.9543,0.4215,-5.1732,34.9217,-23.513,-26.087
425,0.958,0.7664,-4.5601,30.4,-23.5826,-29.3565
430,-0.2299,0.4215,-4.2919,26.9913,-23.1652,-31.6522
435,-1.1879,0.3449,-4.4452,24.4174,-22.5391,-32.1391
440,-1.4179,0.1533,-4.7517,21.5652,-20.8,-32.2783
445,-1.3029,-0.2299,-4.7517,17.9478,-15.0957,-32.6957
450,-0.9963,-0.4982,-4.905,15.1652,-6.0522,-33.6
455,-0.3449,-0.6131,-4.4452,13.5652,5.913,-34.2261
460,0.1916,-0.843,-4.0236,14.1913,18.5043,-34.5739
465,0.7281,-1.2646,-3.5255,15.0261,29.913,-34.713
470,1.3412,-1.6095,-2.7207,15.4435,39.2348,-35.0609
475,1.3029,-1.7627,-2.4525,15.513,45.8435,-36.2435
480,1.4562,-1.916,-1.6095,15.8609,50.5043,-36.4522
485,1.7627,-1.9543,-1.1496,17.6696,53.5652,-35.3391
490,1.8777,-1.6095,-0.8814,20.8696,54.9565,-33.3217
495,1.8394,-1.4945,-0.958,23.7913,55.0261,-31.3043
500,1.8394,-0.8814,-0.9197,24.2087,54.9565,-29.0783
505,2.1843,-0.7281,-0.6514,23.0957,55.1652,-25.3913
510,2.4142,-0.8814,-0.5365,21.7043,57.3913,-20.9391
515,2.7591,-1.4945,-0.7281,19.5478,62.2609,-16.9043
520,3.1423,-1.8394,-1.8011,17.8783,68.313,-13.6348
525,3.7937,-2.3759,-3.6787,16.1391,72.0,-11.4087
530,4.2536,-2.4525,-6.5145,9.3913,70.3304,-10.2957
535,4.6368,-3.0656,-10.8063,-9.0435,65.3913,-11.4087
540,4.1003,-3.9087,-18.1638,-44.6609,60.0348,-13.8435
545,4.1769,-5.2882,-23.682,-96.9739,56.6957,-13.7739
550,4.8667,-7.0893,-25.6363,-149.4957,64.0,-10.8522
555,3.0656,-9.0053,-19.8499,-181.8435,92.313,-6.1217
560,-1.1113,-11.2279,-10.1932,-185.6,119.8609,0.6261
565,-4.8667,-13.9869,-2.031,-160.4174,125.0087,10.8522
570,-7.0893,-16.4011,3.832,-119.3043,114.2261,22.9565
575,-7.0509,-17.9722,5.7864,-77.913,99.4783,34.4348
580,-6.1696,-19.4667,4.8284,-49.1826,82.5043,42.8522
585,-5.1732,-20.0415,3.0273,-34.1565,66.9913,49.113
590,-4.5601,-19.3518,0.9963,-23.6522,54.1217,53.4957
595,-3.832,-17.8956,-0.7664,-12.7304,39.3739,55.513
600,-3.2189,-16.0945,-2.1843,0.1391,24.7652,53.6348
605,-3.2189,-14.1402,-3.4488,12.0348,14.2609,48.5565
610,-3.2955,-12.7223,-4.2919,19.6174,10.713,43.4783
615,-3.4871,-11.8027,-3.7554,21.5652,15.0957,40.2783
620,-3.4871,-11.1895,-3.1423,18.3652,24.2087,39.6522
625,-3.1039,-11.2662,-2.4525,12.4522,34.5043,40.6957
630,-2.5675,-11.1512,-2.3375,5.0783,43.5478,41.8087
635,-1.8394,-11.6877,-1.8777,-3.4783,50.2261,41.6696
640,-1.073,-11.9943,-1.6478,-11.0609,53.4957,39.3043
645,-0.3066,-12.4924,-1.8394,-16.2783,52.7304,34.8522
650,-0.4598,-12.7607,-2.3759,-21.0087,48.2087,28.8696
655,0.1533,-12.6457,-2.7591,-26.5043,41.2522,23.0261
660,0.4982,-12.799,-2.874,-33.1826,35.4783,18.5043
665,1.1496,-12.9523,-2.5291,-40.7652,33.1826,15.513
670,1.1879,-12.9523,-1.8394,-47.0261,34.0174,13.7739
675,1.3412,-13.1822,-1.2646,-50.2957,36.0348,13.0087
680,1.8394,-13.4504,-1.0346,-50.3652,38.4696,11.9652
685,1.6861,-13.4504,-1.0346,-49.113,40.6957,9.3913
690,1.4562,-13.7953,-0.9963,-49.113,42.9913,7.0261
695,1.073,-14.3318,-0.843,-51.4783,45.6348,3.9652
700,0.958,-14.5234,-0.4598,-54.9565,48.2087,1.2522
705,1.1496,-14.7916,-0.0766,-57.5304,51.2,-1.0435
710,1.4179,-15.0599,0.115,-58.2261,53.7043,-3.2696
715,1.4562,-15.0982,0.115,-57.6696,55.5826,-6.0522
720,1.5711,-15.1365,0.1533,-56.7652,56.4174,-8.2783
725,1.8011,-15.2515,0.1533,-55.3739,57.6696,-10.5739
730,2.1843,-15.5197,0.2299,-53.4261,59.1304,-13.6348
735,2.1076,-15.4814,0.4215,-49.5304,61.4261,-17.0435
740,2.0693,-15.4048,0.5748,-43.8957,64.2087,-20.1739
745,2.0693,-15.4814,1.1496,-37.8435,67.7565,-23.9304
750,2.0693,-15.1748,1.4945,-31.513,72.3478,-27.6174
755,1.8011,-14.7533,2.1459,-25.0435,78.2609,-30.6783
760,1.3029,-13.7953,2.2609,-19.4087,84.6609,-33.1826
765,0.3066,-11.9943,1.4562,-15.513,89.3913,-34.5739
770,-0.115,-9.9633,0.0766,-14.4696,91.1304,-33.2522
775,-1.073,-8.0856,-1.1879,-16.0,90.3652,-30.1913
780,-2.031,-6.6677,-1.9543,-18.7826,87.8609,-25.8783
785,-2.7207,-5.8247,-2.5675,-22.7478,84.313,-20.3826
790,-2.9123,-5.4032,-2.6058,-29.0783,81.1826,-13.0783
795,-2.7207,-5.5564,-2.1843,-38.6087,80.7652,-5.8435
800,-2.4142,-6.2079,-0.9197,-51.9652,82.1565,0.3478
805,-1.7244,-7.2809,0.4598,-66.6435,84.2435,5.0783
810,-0.9197,-8.7754,1.6095,-80.3478,83.4783,8.2087
815,-0.2299,-9.4651,1.9927,-90.5739,77.5652,9.5304
820,0.4215,-10.3848,1.9927,-95.8609,65.6696,8.9043
825,1.0346,-10.0399,1.8394,-95.513,51.5478,7.0261
830,1.3412,-9.0053,0.9963,-92.4522,37.4957,5.3565
835,1.0346,-7.2425,-0.1916,-88.6261,26.4348,3.7565
840,0.7664,-5.4798,-1.6095,-85.7043,18.087,1.5304
845,0.3066,-3.7171,-3.4488,-84.9391,11.4087,0.2087
850,-0.0766,-2.2992,-5.5181,-85.2174,6.4696,-0.8348
855,-0.7281,-1.2263,-7.2042,-85.9826,2.9217,-1.6
860,-1.3795,-0.6131,-9.1586,-85.8435,-1.113,-3.0609
865,-2.2992,-0.6131,-10.1549,-85.5652,-6.6783,-5.0087
870,-2.989,-1.2263,-10.4614,-86.4,-14.2609,-6.7478
875,-3.4488,-2.6824,-10.0016,-88.3478,-23.7913,-7.3043
880,-3.7171,-4.6368,-8.4305,-89.113,-34.0174,-6.7478
885,-3.4488,-6.5911,-6.9743,-85.4957,-43.0609,-4.4522
890,-2.1843,-8.0473,-5.5564,-77.5652,-48.9043,-1.113
895,-0.4215,-9.3502,-3.9853,-68.2435,-49.8087,2.9913
900,1.3795,-9.6567,-2.5675,-58.3652,-45.8435,6.4
905,3.3339,-9.4651,-1.8777,-48.6957,-37.4957,7.7217
910,4.9816,-9.0436,-1.4562,-40.2783,-25.7391,5.9826
915,6.5528,-8.9286,-1.6861,-34.1565,-13.287,1.3217
920,7.894,-9.1202,-2.4525,-31.4435,-1.6,-5.9826
925,8.1239,-9.0436,-3.7171,-32.0696,5.5652,-14.6087
930,8.3155,-9.2352,-5.3648,-35.3391,7.7217,-22.4696
935,7.8557,-9.5418,-7.0893,-39.7913,7.9304,-28.1043
940,6.9743,-9.925,-7.3958,-43.687,7.6522,-31.7217
945,5.3648,-10.1932,-7.3192,-45.7739,8.2087,-33.7391
950,3.7171,-10.5764,-6.3612,-45.6348,10.2261,-33.9478
955,2.0693,-10.6914,-5.3648,-45.0783,12.8696,-31.513
960,0.843,-10.6914,-4.9433,-45.2174,15.3043,-24.5565
965,0.0383,-10.653,-5.1349,-46.9565,16.7652,-12.9391
970,-0.3449,-10.4231,-5.9396,-50.6435,15.3043,0.1391
975,-0.6898,-10.6914,-6.7061,-57.3913,10.2957,11.8261
980,-0.7281,-11.2662,-6.7061,-66.087,2.2957,20.0348
985,-0.6898,-12.0326,-6.3229,-72.0696,-5.6348,24.9739
990,-0.4598,-12.799,-5.4032,-71.7913,-11.4783,28.8696
995,0.0,-13.7953,-4.6751,-64.5565,-16.4174,33.5304
1000,0.6514,-15.0599,-4.1003,-53.5652,-21.0087,39.513
1005,1.3029,-16.1712,-3.7171,-43.2,-25.6,45.287
1010,1.7244,-17.1292,-3.4488,-37.8435,-29.0783,49.4609
1015,2.031,-18.0872,-2.7974,-38.1217,-31.3043,52.6609
1020,2.7974,-18.8536,-1.6478,-40.9739,-33.9478,55.3043
1025,3.2955,-19.8116,-0.6898,-40.487,-35.7565,58.3652
1030,3.6787,-20.463,-0.7281,-35.3391,-37.0783,61.287
1035,4.0236,-20.7313,-0.3066,-27.4783,-37.6348,65.3913
1040,4.3302,-20.578,0.1916,-19.5478,-38.9565,70.1913
1045,4.79,-20.1948,0.8047,-13.913,-38.6783,74.9217
1050,5.3265,-19.505,1.2646,-10.1565,-34.087,80.4174
1055,6.0546,-18.777,1.4945,-5.6348,-26.5043,86.1913
1060,7.1659,-18.5854,2.1459,-0.6261,-17.6696,91.687
1065,7.3192,-18.2405,2.5675,5.3565,-7.7913,97.113
1070,6.0929,-18.0489,3.7171,8.0696,-0.6957,100.1043
1075,4.6751,-16.9759,3.2955,9.9478,9.2522,107.0609
1080,5.7097,-14.7916,2.2992,15.9304,29.9826,115.8261
1085,8.5454,-14.4851,2.031,12.6609,58.2261,117.0087
1090,9.925,-15.6347,2.4908,-1.8087,75.5478,105.3217
1095,8.7754,-13.4504,-0.6898,-4.8696,81.0435,83.0609
1100,7.1659,-9.7717,-5.978,-2.9913,94.8174,61.9826
1105,3.7171,-5.748,-8.5454,-5.2174,109.5652,49.4609
1110,0.6514,-2.1076,-9.3885,-6.7478,111.0957,39.0261
1115,-2.4142,-0.0383,-7.5108,-10.713,105.1826,24.2087
1120,-6.4761,1.9543,-5.1732,-4.5913,98.7826,7.513
1125,-7.3958,-0.4982,-4.905,11.8957,84.6609,-8.9043
1130,-9.3885,0.3066,-6.3229,36.313,59.0609,-30.2609
1135,-11.4195,0.0,-7.5491,61.5652,23.7913,-43.7565
1140,-14.0252,1.1496,-9.8866,70.7478,-16.6957,-53.287
1145,-15.7496,1.8394,-11.4578,62.8174,-51.6174,-56.0696
1150,-15.673,3.3339,-13.4121,45.4957,-68.5217,-52.1739
1155,-13.9486,5.5181,-14.6767,19.2696,-73.3913,-41.113
1160,-10.8446,6.3229,-15.0599,-14.2609,-76.5217,-22.4696
1165,-7.5874,5.4798,-14.83,-52.1739,-83.4783,-6.2609
1170,-4.8284,4.1003,-13.757,-84.313,-93.1478,3.2
1175,-2.6824,2.1459,-12.1092,-103.6522,-100.5217,5.8435
1180,-0.7281,0.1533,-10.1932,-109.7739,-103.6522,5.9826
1185,1.1113,-1.4562,-9.6184,-106.3652,-105.113,6.1217
1190,2.2609,-2.9123,-8.4688,-100.1739,-107.6174,6.6087
1195,2.4908,-4.2919,-6.9743,-99.3391,-110.2609,7.6522
1200,1.9543,-4.8284,-4.7134,-104.7652,-111.3739,10.0174
1205,2.1076,-4.5218,-1.8777,-109.0783,-108.3826,14.9565
1210,3.4871,-3.6021,-0.843,-102.887,-102.3304,22.6783
1215,5.6714,-1.9927,-2.5675,-89.8087,-96.6261,29.3565
1220,7.3192,0.0766,-5.1349,-82.087,-91.1304,32.4174
1225,8.3155,2.3375,-7.2809,-85.9826,-84.0348,32.6261
1230,8.737,3.5638,-7.3958,-98.3652,-73.113,31.6522
1235,8.3921,4.2919,-5.978,-113.113,-61.7739,27.9652
1240,8.0856,4.3302,-3.8704,-126.4696,-52.6609,20.313
1245,7.6641,3.7171,-2.7974,-133.913,-41.7391,12.0348
1250,7.3958,3.0273,-3.7554,-133.7739,-31.7913,4.9391
1255,7.2809,2.5291,-5.8247,-129.1826,-21.6348,1.6
1260,7.4725,2.3375,-7.0126,-128.3478,-11.8957,1.113
1265,7.3958,1.6095,-6.8977,-132.1739,-3.4783,1.7391
1270,6.7827,0.9197,-6.2845,-134.9565,2.5043,1.2522
1275,6.0929,0.3066,-5.9396,-132.8,6.8174,0.7652
1280,4.5984,0.0,-5.4032,-128.2087,10.2957,-0.2783
1285,3.3339,-0.2299,-4.905,-123.3391,12.6609,-1.4609
1290,2.1843,-0.2682,-4.1769,-119.7217,15.2348,-3.2696
1295,1.3029,-0.115,-3.4105,-116.8696,16.9739,-6.1217
1300,0.0766,-0.3066,-2.7207,-113.0435,17.2522,-8.8348
1305,-0.6898,-0.0766,-2.9507,-106.6435,17.0435,-11.4087
1310,-1.3412,0.0383,-3.1423,-99.8957,15.513,-14.9565
1315,-1.4562,0.115,-3.947,-93.7043,14.6087,-17.8783
1320,-1.6095,0.2299,-3.6404,-88.6261,18.713,-18.2957
1325,-1.8777,-0.0383,-3.1806,-83.0609,21.7739,-18.2957
1330,-1.4562,-0.4598,-2.7591,-76.3826,23.8609,-18.2261
1335,-2.031,-0.4982,-2.031,-69.3565,25.3217,-18.713
1340,-2.031,-1.1113,-1.2263,-62.4,29.7739,-16.9043
1345,-2.1459,-2.031,-0.5365,-57.8783,33.3913,-15.513
1350,-2.3759,-2.5291,0.5365,-54.6783,36.0348,-15.2348
1355,-2.4908,-3.2955,0.8047,-49.8087,35.7565,-14.6087
1360,-3.0656,-3.7554,0.9197,-42.1565,34.0174,-12.5217
1365,-3.3339,-3.8704,0.9963,-33.8087,29.287,-11.2
1370,-2.8357,-3.947,0.3066,-26.4348,22.6783,-11.1304
1375,-3.0656,-3.7554,-1.7627,-21.0087,14.9565,-13.6348
1380,-3.4105,-3.1423,-5.5181,-22.0522,8.7652,-13.2174
1385,-3.2955,-3.7171,-10.9979,-34.0174,-5.7739,-11.687
1390,0.9963,-6.2845,-19.0452,-59.0609,-28.9391,-13.7739
1395,4.8284,-8.6604,-24.525,-95.9304,-53.0783,-23.1652
1400,6.5911,-11.6111,-21.4594,-133.9826,-73.9478,-37.4957
1405,6.5145,-14.9449,-14.4468,-168.487,-101.7043,-56.487
1410,1.6861,-18.4321,-5.6331,-183.0957,-128.2783,-69.2174
1415,-4.4068,-19.1218,0.0383,-173.287,-151.0261,-67.0609
1420,-13.757,-17.589,2.4525,-140.4522,-156.5217,-34.5739
1425,-18.662,-14.6,2.4142,-99.3391,-152.2783,18.7826
1430,-21.9575,-8.5071,2.6441,-62.4696,-146.9217,67.0609
1435,-23.2604,-2.4908,-0.5748,-37.0087,-145.113,102.1217
1440,-23.3371,3.8704,-4.9433,-38.7478,-136.2087,128.6261
1445,-22.3407,7.3958,-8.5454,-87.8609,-130.3652,144.6261
1450,-22.4174,9.5418,-6.5528,-168.8348,-147.3391,146.5739
1455,-21.1911,11.2662,-4.062,-234.5739,-185.3217,144.0696
1460,-21.3444,11.8027,-3.7171,-270.1217,-225.3217,140.4522
1465,-21.0379,13.642,-5.5948,-266.1565,-241.6696,144.4174
1470,-12.9906,15.673,-9.1969,-234.4348,-244.1043,168.9043
1475,1.0346,11.7643,-12.4158,-211.2,-241.113,211.7565
1480,15.673,5.0583,-13.872,-210.1565,-227.8261,244.4522
1485,29.2767,-2.3375,-16.746,-228.4522,-211.5478,248.5565
1490,40.083,-9.0436,-17.9722,-239.1652,-169.1826,232.8348
1495,45.6778,-13.5654,-18.6237,-241.2522,-99.9652,201.2522
1500,-87.9451,79.7446,-152.2466,-255.6522,-37.913,167.4435
1505,-54.2999,-22.1491,57.7104,-1032.6261,617.6696,591.0957
1510,46.5975,11.6877,77.9818,-1181.7739,818.087,868.9391
1515,46.4442,84.8412,-53.955,-242.9913,483.5478,482.5043
1520,57.6338,14.2552,-44.8731,-81.8087,132.6609,149.6348
1525,-19.7733,-4.9816,-27.7822,-124.5217,-318.887,-81.7391
1530,-36.7875,-0.843,-18.0105,-333.9826,-277.4957,-82.9217
1535,-8.0473,-40.1214,-41.156,-361.1826,-69.9826,-36.4522
1540,-44.3749,-42.2673,-44.03,-290.713,-51.2,-77.8435
1545,-43.187,-33.6069,-27.2457,-251.8957,-88.5565,-76.5913
1550,-46.8274,19.3518,-33.2237,-192.6261,-81.5304,-51.6174
1555,-29.5833,11.3428,-42.3823,-145.6696,-68.8696,-9.7391
1560,-30.388,5.2882,-38.5886,-141.4957,-88.9739,-15.2348
1565,-28.0888,19.3134,-36.366,-159.9304,-117.6348,15.2348
1570,-24.5633,12.3008,-32.8405,-194.2261,-121.8087,58.5043
1575,-24.6783,7.4341,-24.0652,-238.1217,-118.0522,72.1391
1580,-17.3974,-37.0941,-21.2678,-216.2783,-116.4522,136.3478
1585,-15.1748,26.5177,-33.6069,-129.4609,-139.4087,132.8696
1590,-11.9559,8.6987,-25.483,-189.3565,-148.1739,136.487
1595,-8.4688,12.5307,-26.556,-235.0609,-144.3478,77.287
1600,-40.0447,-37.1707,1.5711,-303.7217,-110.6087,70.4
1605,-13.4121,-6.0546,-15.8646,-234.087,-172.2435,202.5043
1610,-0.6514,6.7061,-14.4468,-188.6609,-190.7478,222.2609
1615,-1.7244,24.9848,-14.6767,-223.7913,-168.7652,163.5478
1620,-3.2189,9.4268,-10.0399,-289.113,-169.6696,138.9913
1625,-5.4798,7.5874,-10.883,-320.2783,-178.6435,129.2522
1630,-4.1386,-5.2499,-9.4651,-298.6435,-199.1652,117.6348
1635,-6.2079,-7.5874,-4.7517,-258.5739,-215.3043,86.5391
1640,-8.737,2.4142,-7.3575,-239.3043,-231.2348,103.4435
1645,-4.8284,9.6184,-11.4578,-225.9478,-198.6783,157.913
1650,-12.0709,-26.1345,10.4614,-220.9391,-139.5478,209.0435
1655,-8.5838,-31.461,6.5911,-103.8609,-118.9565,65.113
1660,7.3575,-48.7434,20.0415,-23.513,-151.0261,-36.4522
1665,-0.9963,-24.8316,-0.5748,85.7739,-213.3565,-92.8
1670,-14.9449,11.7643,-12.9523,221.4261,-158.8174,-65.9478
1675,-4.6368,17.8573,-16.4777,281.8783,-58.4348,29.913
1680,9.8866,13.9486,-17.2441,257.6696,-8.2783,48.0696
1685,12.3391,14.83,-12.684,189.5652,21.3565,-37.0783
1690,8.9286,22.4174,-7.0126,124.8,35.4783,-119.513
1695,2.5291,31.1161,-6.4761,105.3217,48.5565,-149.913
1700,-0.5748,37.5922,-7.4725,110.5391,73.7391,-139.2
1705,0.4215,37.7455,-9.1586,104.9043,94.6087,-103.3739
1710,3.7554,34.335,-11.0363,74.087,94.1913,-72.9043
1715,5.0583,28.2038,-13.642,26.5043,82.8522,-67.4087
1720,3.2572,22.1491,-12.1859,-30.5391,78.8174,-76.6609
1725,0.6898,16.2095,-8.3155,-76.313,81.9478,-83.2
1730,-1.1879,11.1512,-3.3339,-97.1826,86.6087,-77.0087
1735,-2.2609,6.7061,-1.8011,-88.9043,90.5739,-64.5565
1740,-3.1039,3.0273,-1.2646,-67.2,96.6261,-55.4435
1745,-2.3759,-0.6514,-2.031,-42.5739,106.3652,-50.2957
1750,-1.8011,-3.6021,-0.5365,-23.1652,115.8261,-46.9565
1755,-0.8814,-5.0583,-0.7664,-8.1391,114.713,-42.6435
1760,-0.6514,-6.1313,-0.7281,5.913,114.5043,-37.7043
1765,-0.6131,-6.5528,0.2682,17.3913,117.1478,-34.6435
1770,-0.7664,-4.2919,0.2682,27.687,117.287,-31.0957
1775,-1.4562,-0.0766,0.115,38.4,112.7652,-23.1652
1780,-1.1879,4.4068,-1.4179,46.3304,103.6522,-13.5652
1785,-1.1879,8.6221,-3.1423,53.6348,103.7913,-4.4522
1790,0.7281,9.81,-5.7097,55.5826,110.1217,1.6696
1795,3.1806,9.1202,-7.8557,46.3304,116.0348,-6.4
1800,1.6095,6.5911,-7.6641,29.4957,119.6522,-21.6348
1805,-6.3995,6.3229,-4.7134,14.4696,116.2435,-34.0174
1810,-9.9633,9.8866,-6.5145,23.7913,121.4609,-17.8087
1815,-6.821,7.7024,-6.8977,31.0261,130.5043,6.0522
1820,-7.2042,7.9323,-7.0126,21.5652,127.3739,13.3565
1825,-10.3465,10.8063,-7.1659,3.2,119.3043,20.4522
1830,-10.4998,12.4924,-8.852,-20.4522,114.087,39.9304
1835,-4.2919,7.9323,-5.1349,-30.887,122.6435,52.313
1840,-5.1732,10.2315,-5.6331,-28.1043,119.6522,65.2522
1845,-1.8011,7.0126,-4.7517,-31.7913,111.0957,80.3478
1850,-2.6058,6.7444,-3.6787,-19.0609,113.8783,84.8
1855,-5.2116,8.6604,-4.3302,-6.1217,106.5739,87.5826
1860,-3.2572,5.2499,-3.832,-11.0609,94.7478,96.3478
1865,-0.9963,-3.2955,-1.4562,-12.5217,91.4783,93.7043
1870,-2.9507,-9.695,0.5748,9.5304,88.7652,78.2609
1875,-3.8704,-14.5617,0.5365,31.0261,78.1913,66.9217
1880,0.2299,-18.2405,0.2682,50.9217,73.2522,64.5565
1885,-0.3066,-17.1675,-3.4871,72.8348,70.9565,52.0348
1890,-2.6058,-5.978,-8.4305,67.687,85.7739,45.1478
1895,-1.7244,5.748,-12.3391,15.9304,102.887,64.8348
1900,0.4215,7.2042,-5.6331,-46.3304,80.487,74.2261
1905,3.1039,12.3391,-8.0856,-60.8696,42.3652,62.0522
1910,0.5365,20.2714,-11.6494,-78.6783,32.0,56.1391
1915,0.3832,18.1638,-1.7627,-99.4783,23.7217,49.8087
1920,-4.2536,21.9959,-3.9853,-72.8348,0.2087,39.8609
1925,-2.0693,22.0725,-7.0126,-31.9304,-0.0696,46.0522
1930,-6.7444,27.6673,-10.1166,-2.087,36.5913,53.3565
1935,-5.3648,20.8079,-12.6457,53.5652,87.5826,43.6174
1940,-5.748,14.5617,-10.6147,99.4087,112.3478,12.8696
1945,-3.8704,0.4598,-1.3795,139.687,121.0435,-6.6087
1950,-4.2152,8.8137,-3.7937,236.4522,106.7826,-31.0261
1955,-5.02,9.695,-21.1528,296.8348,109.1478,-14.8174
1960,-5.7864,12.6074,-21.536,257.4609,141.7043,-8.4174
1965,-8.2389,16.5544,-30.4646,210.5043,152.1391,-9.6
1970,-8.1239,12.5307,-27.1308,134.7478,143.0957,-13.3565
1975,-9.925,10.3848,-20.6546,74.6435,114.3652,-22.1913
1980,-9.4268,7.5491,-14.5617,48.0,88.7652,-21.0087
1985,-8.7754,7.9323,-12.1475,53.7043,71.7913,-13.287
1990,-6.0546,4.9433,-11.0363,70.8174,61.7739,-1.3217
1995,-6.0546,7.2042,-12.4541,93.6348,60.1739,7.1652
2000,-3.9087,8.4688,-14.2935,103.0261,53.9826,16.6957
2005,-3.5638,9.0436,-14.8683,101.913,49.6696,21.2174
2010,-4.4068,8.0089,-14.715,96.4174,48.8348,21.4261
2015,-4.5984,8.852,-14.1019,88.2783,48.2087,17.6696
2020,-3.832,9.1586,-12.5307,79.9304,47.3043,15.0957
2025,-3.3339,7.9706,-12.3775,72.7652,46.6087,10.0174
2030,-1.5328,8.1622,-11.5727,67.2696,46.1913,2.7826
2035,-1.3795,7.4341,-12.0326,60.1739,43.8957,-3.5478
2040,-1.3412,5.7097,-11.726,48.1391,38.9565,-9.2522
2045,-2.1843,5.5181,-10.4231,40.2783,34.2261,-12.6609
2050,-2.0693,6.0163,-9.1969,38.0522,29.913,-12.9391
2055,-2.1459,7.3192,-9.4268,42.6435,28.8696,-14.4696
2060,-1.1879,4.2919,-12.5307,45.1478,29.1478,-13.3565
2065,-0.9197,2.4908,-10.9979,28.6609,30.4696,-10.5043
2070,-1.5711,1.6478,-8.5071,12.313,29.7043,-8.4174
2075,-2.1459,1.3412,-7.6257,8.1391,27.7565,-9.4609
2080,-2.3375,0.8814,-7.3192,9.2522,26.4348,-10.9913
2085,-2.3375,1.3795,-7.4341,10.087,23.9304,-14.0522
2090,-1.4945,1.6861,-7.7024,8.6957,20.5217,-16.5565
2095,-1.2646,1.8777,-8.0856,5.4261,18.087,-18.5043
2100,-0.7664,1.6095,-8.5454,-0.0696,14.5391,-20.5913
2105,-0.0383,1.2263,-8.3921,-4.7304,13.9826,-22.4
2110,-0.115,1.1113,-8.2772,-7.513,15.6522,-23.2348
2115,0.0383,0.843,-8.2005,-7.2348,18.5043,-24.6957
2120,0.0,1.0346,-8.4688,-2.4348,22.9565,-25.7391
2125,-0.3066,1.1496,-8.6987,2.713,27.687,-26.2957
2130,-0.1916,1.4562,-8.8903,8.0,32.3478,-26.087
2135,-0.3832,1.8011,-9.6184,12.6609,35.1304,-25.8087
2140,-0.1533,0.7664,-9.5418,13.8435,36.5217,-25.4609
2145,-0.6514,1.073,-10.0016,16.4174,39.2348,-27.8261
2150,-0.7664,0.9197,-10.1932,17.8783,39.9304,-29.0783
2155,-0.3066,0.7281,-10.1932,19.2696,40.2087,-29.9826
2160,-0.6131,0.7664,-10.4231,21.3565,42.3652,-29.4957
2165,-0.2682,0.958,-10.4614,22.887,43.2696,-30.2609
2170,-0.0766,0.9963,-10.5381,24.3478,44.3826,-31.3043
2175,-0.4215,0.843,-10.7297,26.6435,44.6609,-32.0696
2180,-0.2299,1.1496,-11.1129,28.6609,43.4087,-33.1826
2185,-1.1113,2.1076,-11.8793,29.2174,41.8783,-33.6
2190,-0.0766,1.1496,-11.9943,20.1043,36.0348,-37.0783
2195,0.2299,-0.4598,-11.3045,13.1478,35.9652,-37.0783
2200,-1.8011,1.8394,-12.2625,12.5913,36.8,-36.8
2205,-0.9197,1.2646,-11.726,5.287,31.7217,-35.8261
2210,0.4982,-0.0766,-11.5344,3.4087,31.0261,-35.9652
2215,-0.115,-0.5365,-12.1475,8.5565,33.8087,-35.1304
2220,-0.843,0.4982,-12.4158,12.5913,33.6,-32.6261
2225,-0.4982,0.4598,-12.2625,12.5217,32.2783,-30.2609
2230,-0.8047,1.0346,-12.4541,13.0087,30.4696,-28.5913
2235,-0.6898,2.1076,-12.9906,12.4522,28.1739,-27.6174
2240,-0.0383,0.8814,-12.5307,7.3043,25.8783,-27.4783
2245,-0.0383,-0.0766,-11.6877,2.5043,24.7652,-25.1826
2250,-0.6514,0.0383,-11.841,2.1565,23.7913,-22.6783
2255,-0.958,-0.115,-11.9176,2.6435,21.287,-20.313
2260,-0.4215,0.4598,-12.2242,3.8957,18.5739,-17.7391
2265,-0.4982,0.8047,-12.6457,2.713,15.6522,-15.2348
2270,-0.6131,0.6514,-12.1859,-2.3652,12.5913,-13.913
2275,-0.8047,0.958,-11.9176,-5.1478,9.9478,-12.5217
2280,-0.4982,0.6898,-12.1475,-6.9565,7.5826,-11.2
2285,-0.6898,0.1916,-11.4578,-8.6957,5.287,-10.5739
2290,-1.0346,0.115,-11.5727,-9.2522,2.713,-10.2261
2295,-1.1113,0.2682,-11.726,-7.5826,0.487,-9.113
2300,-1.1113,0.0383,-12.0709,-6.6087,-1.5304,-7.4435
2305,-1.3795,-0.115,-12.1475,-8.3478,-3.3391,-6.5391
2310,-1.2646,0.0383,-11.6494,-9.113,-4.8696,-5.287
2315,-1.4179,0.0383,-11.6111,-9.0435,-5.8435,-3.8261
2320,-1.4179,0.0766,-11.5727,-8.8348,-6.6087,-2.9217
2325,-1.3029,0.1533,-11.5344,-8.6261,-7.7217,-2.2261
2330,-1.2263,0.4982,-11.6877,-8.7652,-8.4174,-1.6
2335,-1.1113,0.6131,-11.4961,-9.1826,-9.1826,-1.113
2340,-1.0346,0.6898,-11.3428,-9.4609,-10.087,-0.8348
2345,-1.2646,0.958,-11.3428,-9.7391,-10.9217,-0.6261
2350,-1.2646,0.958,-11.0746,-10.087,-11.6174,-0.2783
2355,-1.2646,0.8047,-11.1895,-10.5043,-12.1739,-0.1391
2360,-1.1879,0.8814,-11.0746,-10.9217,-12.5217,0.1391
2365,-1.0346,0.9197,-11.0746,-11.8261,-12.6609,0.4174
2370,-1.1879,0.958,-10.9596,-12.6609,-12.5217,0.8348
2375,-1.073,0.843,-10.883,-13.3565,-12.313,1.113
2380,-0.958,0.9197,-11.0363,-13.8435,-12.1043,1.3217
2385,-0.9963,0.8814,-10.9979,-14.2609,-11.9652,1.4609
2390,-0.9197,0.9963,-10.883,-14.4696,-11.8957,1.6696
2395,-0.843,0.9197,-10.9596,-14.7478,-11.8261,1.9478
2400,-0.9963,1.0346,-10.768,-14.9565,-11.5478,2.1565
2405,-0.8814,0.9963,-10.7297,-15.3739,-11.2,2.3652
2410,-1.1113,1.073,-10.8063,-15.513,-10.7826,2.4348
2415,-0.9963,0.9963,-10.7297,-15.5826,-10.5739,2.5739
2420,-0.9963,1.073,-10.9213,-15.7217,-10.3652,2.7826
2425,-1.073,0.9963,-10.6147,-15.6522,-10.1565,2.9913
2430,-1.2263,1.0346,-10.653,-15.513,-10.0174,3.1304
2435,-0.9963,1.0346,-10.8446,-15.3739,-9.8783,3.3391
2440,-1.1113,1.2263,-10.6914,-15.2348,-9.6696,3.5478
2445,-1.0346,1.1879,-10.768,-14.9565,-9.3913,3.687
2450,-0.958,1.1496,-10.8063,-14.6783,-9.1826,3.687
2455,-0.958,1.073,-10.8063,-14.5391,-9.0435,3.7565
2460,-0.9963,1.1879,-10.883,-14.3304,-8.7652,3.8261
2465,-1.0346,1.2646,-10.883,-14.1217,-8.487,3.7565
2470,-0.9963,1.2263,-10.883,-13.7739,-8.1391,3.8957
2475,-0.9963,1.2263,-10.9213,-13.3565,-7.7913,3.8261
2480,-1.073,1.4179,-10.9596,-12.9391,-7.513,3.8957
2485,-1.073,1.3412,-10.9213,-12.5913,-7.4435,3.8957
2490,-1.0346,1.4179,-11.0746,-12.2435,-7.2348,4.0348
2495,-0.9963,1.4179,-10.883,-12.1043,-6.887,3.687
2500,-1.1113,1.3795,-10.883,-11.7565,-6.4696,3.5478
2505,-1.3029,1.3795,-10.9979,-11.5478,-5.9826,3.2
2510,-1.2646,1.3029,-10.8446,-11.0609,-5.5652,2.9217
2515,-1.1496,1.4562,-10.9213,-10.5043,-5.2174,2.8522
2520,-1.1496,1.3795,-10.9979,-9.8783,-5.0783,2.713
2525,-1.3029,1.3795,-10.9979,-9.3217,-5.0087,2.4348
2530,-1.2263,1.2646,-11.0363,-8.6261,-4.7304,2.3652
2535,-1.1879,1.3795,-10.9979,-8.1391,-4.6609,2.4348
2540,-1.2646,1.4179,-11.1129,-7.8609,-4.4522,2.2957
2545,-1.3412,1.4945,-10.9213,-7.4435,-4.313,2.2261
2550,-1.2646,1.4562,-10.8446,-6.9565,-4.0348,1.8783
2555,-1.3412,1.4179,-10.9596,-6.5391,-3.6174,1.6696
2560,-1.3795,1.4179,-10.9596,-5.9826,-3.0609,1.3217
2565,-1.3029,1.5711,-10.9596,-5.5652,-2.4348,1.0435
2570,-1.3412,1.5328,-10.9213,-5.0087,-1.7391,0.6957
2575,-1.3412,1.4562,-10.768,-4.4522,-1.1826,0.487
2580,-1.3029,1.4179,-10.9213,-3.8957,-0.5565,0.2087
2585,-1.2646,1.4562,-10.768,-3.4087,0.0,0.0
2590,-1.2646,1.3412,-10.9596,-3.1304,0.5565,-0.2087
2595,-1.3029,1.3795,-10.883,-2.6435,0.9739,-0.4174
2600,-1.3795,1.3412,-10.8446,-2.2957,1.3913,-0.487
2605,-1.3412,1.4562,-10.7297,-2.0174,1.5304,-0.487
2610,-1.2646,1.3795,-10.9213,-1.8087,1.9478,-0.5565
2615,-1.2646,1.3412,-10.8446,-1.5304,2.2261,-0.6261
2620,-1.2646,1.2263,-10.8063,-1.113,2.5739,-0.7652
2625,-1.4562,1.3795,-10.8063,-0.7652,2.713,-0.8348
2630,-1.2263,1.3795,-10.768,-0.487,2.9217,-1.113
2635,-1.3029,1.3412,-10.8446,0.0,3.1304,-1.2522
2640,-1.2263,1.3412,-10.9213,0.2087,3.3391,-1.3217
2645,-1.2263,1.2263,-10.768,0.487,3.5478,-1.3913
2650,-1.2646,1.2263,-10.6914,0.5565,3.7565,-1.5304
2655,-1.1879,1.1879,-10.9213,0.5565,4.1739,-1.6
2660,-1.2263,1.3029,-10.9979,0.7652,4.3826,-1.6696
2665,-1.3029,1.3029,-10.6914,0.9043,5.0087,-1.7391
2670,-1.2263,1.2263,-10.9213,0.9739,5.4957,-1.9478
2675,-1.3029,1.3029,-10.9213,1.0435,5.9826,-1.8783
2680,-1.1496,1.2646,-10.883,1.113,6.4696,-2.0174
2685,-1.2263,1.3412,-10.9213,1.1826,6.9565,-2.1565
2690,-1.2646,1.3412,-10.883,1.113,7.2348,-2.2261
2695,-1.1113,1.1879,-10.9213,1.113,7.4435,-2.2261
2700,-1.1113,1.2263,-10.9596,1.1826,7.5826,-2.1565
2705,-1.1879,1.073,-11.0363,1.2522,7.5826,-2.1565
2710,-1.2646,1.2263,-11.0363,1.1826,7.3739,-2.1565
2715,-1.1879,1.2646,-10.9979,1.1826,7.2348,-2.1565
2720,-1.1879,1.1496,-11.1512,1.113,7.1652,-1.9478
2725,-1.2263,1.2263,-11.0363,0.7652,7.1652,-1.9478
2730,-1.2263,1.073,-10.883,0.487,7.2348,-1.8087
2735,-1.1113,1.1496,-10.883,0.2783,7.1652,-1.7391
2740,-1.1113,1.1113,-10.9979,0.0,7.0261,-1.6
2745,-1.1113,1.1496,-10.9979,-0.1391,6.887,-1.4609
2750,-1.1113,1.1113,-11.1895,-0.2783,6.6783,-1.3913
2755,-1.1113,1.1113,-11.0746,-0.4174,6.4,-1.1826
2760,-1.1879,1.2646,-11.1512,-0.8348,6.0522,-1.0435
2765,-1.1113,1.073,-11.0746,-1.2522,5.6348,-0.8348
2770,-1.1113,1.1496,-11.1512,-1.8783,5.2174,-0.6261
2775,-1.1879,1.1496,-11.1512,-2.3652,4.8696,-0.4174
2780,-1.1496,0.958,-10.9213,-2.6435,4.7304,-0.2783
2785,-1.1113,1.073,-11.0363,-2.6435,4.5217,-0.2087
2790,-1.2263,1.073,-11.2279,-2.6435,4.5217,-0.2087
2795,-1.073,1.1113,-11.4195,-2.5043,4.4522,-0.0696
2800,-1.1496,1.2646,-11.1895,-2.9217,4.313,0.0
2805,-1.1113,1.0346,-11.1895,-3.4783,4.313,0.1391
2810,-1.1113,1.1879,-11.1129,-3.7565,4.2435,0.2087
2815,-1.1879,1.073,-11.0746,-3.9652,4.2435,0.2783
2820,-0.9197,1.1496,-11.1129,-4.313,4.0348,0.4174
2825,-1.1113,1.1496,-11.1129,-4.5217,3.8957,0.3478
2830,-1.073,0.8814,-10.8063,-4.7304,3.5478,0.487
2835,-1.073,1.2646,-11.1129,-4.8696,3.2,0.487
2840,-1.0346,1.3029,-11.1129,-4.8696,2.9913,0.487
2845,-0.9963,1.1496,-11.1129,-4.7304,2.713,0.487
2850,-1.1496,1.3029,-11.1512,-4.7304,2.5043,0.4174
2855,-1.0346,1.2646,-11.0746,-4.8,2.2261,0.487
2860,-1.073,1.2263,-11.0746,-4.7304,2.0174,0.487
2865,-0.958,1.1879,-11.0363,-4.7304,1.8783,0.487
2870,-0.958,1.2646,-10.9596,-4.6609,1.8783,0.4174
2875,-1.073,1.3029,-10.883,-4.5913,1.9478,0.3478
2880,-1.073,1.2263,-11.0363,-4.4522,1.8783,0.2783
2885,-1.1113,1.0346,-10.4998,-4.313,1.8087,0.2783
2890,-1.073,1.2263,-11.0363,-4.1043,1.7391,0.1391
2895,-1.0346,1.2263,-11.0363,-4.0348,1.6,0.1391
2900,-1.0346,1.2646,-10.883,-3.9652,1.5304,0.2087
2905,-1.0346,1.2646,-10.9213,-3.8957,1.4609,0.1391
2910,-1.0346,1.3795,-10.768,-3.8261,1.5304,0.0
2915,-1.073,1.2646,-10.9596,-3.8261,1.6,-0.0696
2920,-1.073,1.2646,-10.9979,-3.7565,1.6,-0.2087
2925,-1.0346,1.3029,-11.0363,-3.5478,1.5304,-0.2087
2930,-1.1113,1.3412,-11.1129,-3.4783,1.5304,-0.2087
2935,-1.0346,1.3029,-10.883,-3.3391,1.4609,-0.2087
2940,-1.073,1.2263,-11.0746,-3.2,1.3217,-0.2783
2945,-0.9963,1.2646,-11.0363,-3.1304,1.2522,-0.3478
2950,-1.1496,1.2646,-11.0363,-2.9217,1.2522,-0.3478
2955,-1.1496,1.1879,-10.9979,-2.9217,1.113,-0.4174
2960,-1.1879,1.2263,-10.9596,-2.7826,1.3217,-0.2783
2965,-1.0346,1.3029,-10.9596,-2.713,1.3217,-0.3478
2970,-0.9197,1.2263,-10.9213,-2.5739,1.2522,-0.4174
2975,-0.9963,1.4179,-11.0746,-2.5043,1.2522,-0.3478
2980,-1.1113,1.2646,-11.0363,-2.6435,1.3217,-0.4174
2985,-1.0346,1.2646,-10.9213,-2.5739,1.3217,-0.4174
2990,-1.1496,1.1879,-10.9979,-2.7826,1.3217,-0.4174
2995,-1.073,1.1496,-11.0363,-2.6435,1.3217,-0.487
