timestamp,accX,accY,accZ,gyroX,gyroY,gyroZ
0,-1.2263,-9.1969,-3.7937,-44.6609,29.0087,10.6435
5,-1.3412,-9.3118,-3.9087,-45.4261,31.7217,10.5043
10,-1.4179,-9.4268,-3.947,-46.6783,33.9478,10.1565
15,-1.5328,-9.5418,-3.7937,-48.1391,35.687,9.6696
20,-1.6095,-9.5801,-3.7554,-49.6696,36.8,9.2522
25,-1.916,-9.6184,-3.6021,-50.5739,37.2174,8.6957
30,-1.8394,-9.5418,-3.5638,-50.713,37.0783,8.3478
35,-1.916,-9.5034,-3.2572,-50.1565,36.6609,8.6957
40,-2.031,-9.4651,-3.2189,-49.1826,35.9652,8.9739
45,-2.031,-9.3502,-2.989,-47.7913,34.7826,9.4609
50,-2.2226,-9.0436,-2.989,-46.3304,33.2522,9.8783
55,-2.2226,-8.8903,-3.0273,-45.287,31.2348,10.3652
60,-2.2609,-8.6987,-3.0273,-44.5217,29.2174,11.2
65,-2.2226,-8.5454,-2.874,-44.4522,27.1304,12.1043
70,-2.3759,-8.2772,-2.989,-44.5913,24.9739,12.7304
75,-2.2992,-8.2772,-2.8357,-45.1478,23.3739,13.3565
80,-2.3759,-8.1239,-3.1039,-45.8435,22.0522,13.6348
85,-2.3375,-7.9706,-3.1039,-46.887,20.8,12.9391
90,-2.3759,-7.9706,-3.1039,-47.8609,20.0348,11.8957
95,-2.3375,-7.8557,-3.2189,-48.9043,19.8957,10.6435
100,-2.3759,-7.8173,-3.3722,-50.0174,20.1739,9.6
105,-2.2226,-7.8557,-3.5638,-51.4783,20.7304,8.6261
110,-1.9927,-7.9706,-3.5255,-53.3565,21.5652,7.3739
115,-1.916,-8.0089,-3.6787,-55.6522,22.8174,6.4696
120,-1.5711,-8.2772,-3.9087,-57.8783,24.2087,5.4957
125,-1.6095,-8.3921,-3.8704,-61.0087,25.5304,4.8696
130,-1.5711,-8.5071,-3.947,-64.1391,26.713,4.3826
135,-1.3029,-8.7754,-3.8704,-67.2696,27.8261,4.0348
140,-1.1496,-8.7754,-3.7171,-69.9826,28.6609,3.9652
145,-1.3029,-8.967,-3.7554,-72.0696,29.3565,4.1739
150,-0.9963,-9.1202,-3.6404,-73.7391,29.8435,4.5913
155,-0.843,-9.0053,-3.6787,-74.9913,30.3304,5.0087
160,-0.843,-9.2352,-3.6021,-75.7565,30.6783,5.4957
165,-0.6131,-8.967,-3.5255,-75.9652,31.0957,5.913
170,-0.5748,-9.0436,-3.5638,-75.8261,31.4435,5.913
175,-0.5365,-8.8137,-3.4488,-75.6174,31.5826,6.1217
180,-0.4982,-8.5838,-3.7937,-75.4783,31.7913,5.913
185,-0.7281,-8.2389,-4.2919,-75.8261,31.5826,5.7739
190,0.0,-8.1239,-4.4835,-77.9826,31.8609,5.4957
195,-0.1533,-8.0856,-4.5984,-80.9739,32.3478,4.1739
200,-0.4598,-8.0473,-4.8284,-83.3391,31.4435,3.1304
205,-1.1496,-7.8173,-4.6751,-84.313,30.1217,2.8522
210,-1.5328,-7.894,-4.7517,-85.1478,28.2435,3.5478
215,-1.7627,-8.1239,-4.5601,-86.2609,26.7826,4.5217
220,-1.9927,-8.2389,-4.2919,-86.887,26.5739,5.1478
225,-1.9927,-8.3538,-3.9087,-85.7043,27.2696,5.8435
230,-1.8777,-8.5838,-3.4105,-81.8087,28.2435,6.8174
235,-1.8394,-8.6604,-3.2189,-76.313,28.6609,7.8609
240,-1.6095,-8.852,-3.2189,-70.4696,28.7304,9.0435
245,-1.4179,-9.0819,-3.3722,-65.8087,28.5217,10.0174
250,-1.1496,-9.3502,-3.6021,-63.1652,28.9391,10.9217
255,-0.8814,-9.2735,-3.5255,-62.4,29.8435,11.7565
260,-0.7281,-9.2735,-3.832,-62.9565,31.513,12.1043
265,-0.4215,-8.967,-3.8704,-64.0696,33.7391,12.313
270,-0.3832,-8.7754,-3.947,-65.3913,35.9652,11.9652
275,-0.0766,-8.5071,-3.9087,-66.5739,38.3304,11.3391
280,0.0383,-8.2389,-3.8704,-67.3391,40.4174,10.9913
285,0.0383,-8.0473,-3.6404,-67.7565,41.8783,10.5043
290,-0.1533,-7.894,-3.5255,-68.0348,42.6435,10.1565
295,0.0,-7.7024,-3.7554,-67.8261,42.5739,9.6
300,-0.1533,-7.5491,-3.7554,-67.5478,42.0174,8.6957
305,-0.3449,-7.2809,-3.8704,-67.7565,40.9739,8.0696
310,-0.7281,-7.0509,-3.9853,-68.5217,39.0261,6.4696
315,-0.8814,-6.9743,-4.1386,-69.7043,36.4522,4.2435
320,-1.1879,-6.8593,-4.4068,-71.7913,34.087,2.2261
325,-1.5711,-6.8593,-4.5984,-74.9913,31.6522,0.4174
330,-1.7244,-6.9743,-4.79,-78.8174,28.9391,-0.9043
335,-2.1459,-7.0509,-4.9433,-82.7826,25.8783,-1.8087
340,-2.3759,-7.3575,-4.9433,-86.1913,22.6087,-2.4348
345,-2.6058,-7.5874,-4.9433,-88.8348,19.0609,-2.6435
350,-2.9123,-8.0089,-4.79,-90.6435,15.3043,-2.5739
355,-2.9123,-8.3155,-4.6368,-91.6174,11.5478,-2.2261
360,-2.989,-8.5071,-4.5601,-91.7565,8.0696,-1.6696
365,-2.9123,-8.9286,-4.4452,-90.9217,4.5217,-1.2522
370,-2.7974,-9.1586,-4.3685,-88.6261,0.6261,-0.7652
375,-2.6441,-9.3502,-4.4068,-85.3565,-3.3391,-0.3478
380,-2.4908,-9.5418,-4.4068,-81.5304,-7.2348,0.1391
385,-2.0693,-9.695,-4.3685,-77.287,-11.0609,0.6261
390,-1.8394,-9.7717,-4.2536,-73.0435,-14.5391,1.1826
395,-1.5711,-9.7334,-4.2536,-68.5913,-18.087,1.3913
400,-1.1113,-9.81,-3.9853,-63.7913,-21.1478,1.3913
405,-0.843,-9.8483,-3.9087,-58.5739,-24.1391,1.1826
410,-0.4215,-9.8866,-3.7554,-52.8,-26.8522,0.7652
415,-0.115,-9.695,-3.7171,-46.6783,-29.287,0.1391
420,0.3449,-9.5801,-3.4488,-40.9043,-30.9565,-0.3478
425,0.7281,-9.3118,-3.3722,-35.8957,-31.8609,-1.0435
430,1.1113,-9.1969,-3.4488,-32.2783,-32.4174,-1.8783
435,1.3795,-8.852,-3.4488,-29.4957,-31.5826,-1.6696
440,1.4945,-8.3538,-3.6787,-27.9652,-30.6783,-2.087
445,1.8011,-7.894,-3.7937,-27.687,-29.913,-2.9217
450,1.916,-7.1276,-4.2536,-29.2174,-28.5913,-3.5478
455,2.031,-6.7827,-4.8284,-32.9043,-26.6435,-3.8261
460,1.8011,-6.2079,-4.905,-38.6087,-24.6957,-3.9652
465,1.8011,-5.863,-5.2116,-44.7304,-22.7478,-3.6174
470,1.4179,-5.3648,-5.5564,-50.2957,-21.4957,-3.4783
475,1.3029,-5.1349,-5.978,-55.0261,-21.0087,-3.4783
480,0.958,-4.8667,-6.3229,-58.4348,-21.3565,-3.4783
485,0.6514,-4.79,-6.7827,-60.4522,-22.2609,-3.8957
490,0.1533,-4.7134,-6.8977,-61.1478,-23.4435,-4.3826
495,-0.3832,-4.8284,-7.1659,-61.4957,-24.6957,-5.1478
500,-0.8047,-4.7134,-7.5108,-61.4261,-25.6696,-6.5391
505,-1.3029,-5.02,-7.9706,-61.5652,-26.1565,-8.3478
510,-1.4562,-5.0583,-8.1622,-61.7043,-25.8087,-10.6435
515,-1.6861,-5.5181,-8.3155,-61.0087,-25.1826,-12.6609
520,-1.9927,-6.3229,-8.5071,-58.4348,-24.2087,-14.1217
525,-1.8777,-7.1659,-8.6987,-53.8435,-22.9565,-14.9565
530,-1.5711,-7.9706,-9.0436,-48.5565,-21.4957,-14.8174
535,-1.1496,-8.6221,-9.0819,-43.687,-18.4348,-13.913
540,-0.9963,-9.0819,-9.2352,-37.9826,-14.5391,-12.6609
545,-0.5365,-9.3502,-9.4651,-29.9826,-10.713,-11.4783
550,-0.3066,-9.1969,-9.695,-19.8957,-7.7913,-11.1304
555,-0.115,-8.6221,-10.1932,-8.9739,-5.5652,-11.8261
560,0.1533,-7.7024,-10.4231,0.0,-4.3826,-12.8696
565,0.2299,-6.821,-10.8446,5.8435,-3.4783,-14.1913
570,0.4215,-5.748,-10.9213,8.0696,-2.3652,-15.4435
575,0.4215,-4.8667,-10.6147,7.7913,-1.113,-16.2087
580,0.5365,-4.0236,-10.2698,7.0261,0.5565,-16.6261
585,0.4982,-3.5255,-10.0016,6.4696,2.3652,-16.2087
590,0.1916,-3.3339,-9.5418,5.7739,3.9652,-15.6522
595,0.0383,-3.0656,-9.2352,5.5652,5.6348,-15.1652
600,-0.2299,-3.2189,-9.0053,6.1913,6.887,-15.1652
605,-0.3066,-3.6404,-9.1969,7.7913,7.9304,-15.5826
610,-0.5365,-3.7554,-9.3118,10.087,9.113,-15.8609
615,-0.5365,-3.7554,-9.2735,11.9652,10.5739,-15.5826
620,-0.4215,-3.9087,-9.3885,12.8696,12.1739,-14.8174
625,-0.2299,-4.0236,-9.4651,12.6609,14.1217,-13.3565
630,0.0,-4.1003,-9.4651,12.0348,15.513,-11.2696
635,0.115,-4.2152,-9.6184,11.4087,16.5565,-8.6261
640,0.0383,-4.1386,-9.6567,10.5739,17.5304,-6.0522
645,0.0,-4.2536,-9.7717,9.6,18.0174,-3.687
650,-0.2682,-4.3302,-9.7334,8.4174,18.2957,-1.2522
655,-0.6898,-4.5984,-9.7334,7.7913,18.3652,0.9739
660,-0.9963,-4.8284,-9.81,7.8609,18.0174,2.5739
665,-1.4562,-4.9816,-9.6567,8.1391,17.3913,3.7565
670,-1.7627,-5.1732,-9.6184,8.5565,16.6957,4.2435
675,-2.4908,-5.2882,-9.8483,9.3217,15.3043,3.8261
680,-3.1039,-5.2116,-10.1166,10.3652,13.6348,2.8522
685,-3.6404,-4.9433,-10.3465,10.9217,11.6174,1.3913
690,-3.9853,-4.5601,-10.4614,10.3652,9.0435,-0.1391
695,-4.2536,-4.062,-10.2698,8.2087,5.1478,-1.6696
700,-4.1386,-3.5255,-9.8866,5.287,0.2087,-3.5478
705,-4.062,-3.2955,-9.695,2.7826,-4.7304,-5.9826
710,-4.0236,-3.0273,-9.6567,0.9043,-10.0174,-8.8348
715,-3.6787,-3.0273,-9.4651,-0.4174,-15.0957,-12.0348
720,-3.4105,-3.3339,-9.5034,-1.2522,-20.4522,-14.9565
725,-3.3722,-3.1806,-9.5034,-1.0435,-26.0174,-17.6
730,-3.2189,-3.4488,-9.695,0.2087,-31.513,-19.5478
735,-3.2189,-3.832,-9.925,1.9478,-36.6609,-21.0783
740,-2.9123,-4.0236,-10.0399,3.2696,-41.3913,-22.0522
745,-2.7974,-4.2536,-10.0399,4.1043,-45.6348,-22.6783
750,-2.4908,-4.7134,-10.1166,4.2435,-49.2522,-22.6783
755,-2.4142,-4.8284,-10.0399,3.687,-52.1739,-22.1913
760,-2.2609,-5.0583,-9.9633,2.6435,-54.5391,-21.3565
765,-1.9543,-5.2116,-9.925,1.1826,-56.0696,-20.3826
770,-1.8011,-5.5564,-9.4651,-0.3478,-56.9739,-19.1304
775,-1.9543,-5.6331,-9.3885,-1.8087,-57.8087,-17.9478
780,-1.8011,-5.8247,-9.1969,-2.9217,-59.0609,-16.8348
785,-1.916,-5.863,-9.1202,-3.4783,-61.0087,-15.9304
790,-1.6478,-5.7097,-9.3118,-3.8261,-63.2348,-15.0957
795,-1.7244,-5.863,-9.2735,-4.8,-65.2522,-14.5391
800,-1.6861,-5.8247,-9.0436,-6.0522,-67.2,-13.913
805,-1.8394,-5.7864,-9.0436,-7.0261,-68.4522,-13.5652
810,-1.916,-5.6331,-9.0819,-7.7217,-69.3565,-13.5652
815,-1.8777,-5.2499,-8.852,-8.9043,-69.9826,-13.8435
820,-1.8394,-5.02,-8.8137,-10.4348,-69.913,-14.7478
825,-1.8011,-4.8284,-8.8137,-11.8261,-69.4261,-15.5826
830,-1.8777,-4.7517,-8.8903,-13.1478,-69.1478,-16.487
835,-1.5711,-5.0966,-8.4688,-14.0522,-68.8,-17.4609
840,-1.6478,-5.2882,-8.4688,-14.4,-68.5217,-18.5043
845,-1.3795,-5.5181,-8.1622,-14.0522,-68.4522,-19.4783
850,-1.4945,-5.6331,-8.2005,-12.8,-68.5217,-20.0348
855,-1.4945,-5.748,-8.0856,-11.5478,-68.9391,-20.1043
860,-1.5328,-6.1313,-8.1239,-10.713,-69.6348,-19.8261
865,-1.6095,-6.2079,-8.1239,-10.087,-70.4,-19.2696
870,-1.6478,-6.3995,-8.0856,-9.6696,-71.4435,-18.3652
875,-1.6861,-6.5145,-8.0473,-9.1826,-72.2783,-17.2522
880,-1.7244,-6.6294,-8.1239,-8.487,-72.9739,-16.3478
885,-1.8777,-6.3612,-8.0473,-7.9304,-73.3217,-15.3739
890,-1.9927,-6.3229,-8.0473,-7.2348,-73.2522,-14.4696
895,-1.8777,-6.2079,-8.0856,-6.3304,-72.6261,-13.7739
900,-1.8394,-5.9013,-7.9323,-4.9391,-71.3739,-12.9391
905,-1.6478,-5.8247,-7.779,-3.5478,-69.8435,-12.4522
910,-1.4179,-5.748,-7.6257,-2.3652,-68.2435,-11.8957
915,-1.4945,-5.748,-7.6641,-1.1826,-67.1304,-11.2
920,-1.2646,-5.7097,-7.7024,0.0,-66.2957,-10.8522
925,-1.1879,-5.6714,-7.5874,0.9739,-65.8783,-10.713
930,-1.1496,-5.6331,-7.3192,1.6696,-65.8783,-10.5739
935,-1.2646,-5.8247,-7.7024,1.9478,-66.087,-10.2957
940,-1.1879,-5.748,-7.1659,1.3913,-66.6435,-10.0174
945,-1.2646,-5.7097,-7.1659,0.4174,-67.3391,-9.8087
950,-1.3029,-5.7864,-7.1276,-0.6261,-67.8957,-9.8783
955,-1.4179,-5.7097,-7.0893,-1.8783,-68.3826,-10.2261
960,-1.6095,-5.863,-6.9743,-2.9913,-68.7304,-10.5739
965,-1.8011,-5.748,-7.0893,-3.5478,-68.3826,-11.0609
970,-1.8777,-5.8247,-6.9743,-3.8957,-67.6174,-11.5478
975,-2.031,-5.8247,-6.936,-4.0348,-66.5739,-11.8261
980,-2.1843,-5.8247,-7.1276,-4.1043,-65.6,-12.0348
985,-2.3375,-5.9013,-7.0126,-3.8261,-65.113,-12.3826
990,-2.4142,-6.0163,-6.7061,-3.0609,-65.3217,-12.6609
995,-2.4142,-5.978,-6.821,-1.9478,-65.9478,-12.8
1000,-2.3759,-5.978,-6.6677,-0.9739,-66.9217,-13.0087
1005,-2.3759,-5.978,-6.6294,-0.2783,-68.1739,-13.0783
1010,-2.3375,-6.0929,-6.821,-0.2783,-69.7739,-13.0783
1015,-2.2992,-6.0929,-6.7827,-0.6957,-71.9304,-13.0087
1020,-2.2609,-6.0929,-6.6677,-1.2522,-74.1565,-13.2174
1025,-2.1843,-5.978,-6.7061,-1.6696,-76.5913,-13.6348
1030,-2.1843,-5.863,-6.5911,-1.9478,-78.9565,-14.1913
1035,-2.1843,-5.7097,-6.5528,-1.9478,-81.2522,-15.0957
1040,-1.916,-5.8247,-6.4378,-1.8087,-83.3391,-15.9304
1045,-2.1076,-5.4415,-6.2845,-1.3217,-85.0783,-16.9739
1050,-1.916,-5.748,-6.4378,-0.8348,-86.4,-18.087
1055,-1.916,-5.8247,-6.2079,-0.487,-87.8609,-19.3391
1060,-1.8011,-5.748,-6.1313,-0.6261,-88.9739,-20.0348
1065,-1.8394,-5.7864,-5.978,-1.2522,-89.6696,-20.8
1070,-1.8394,-5.7097,-6.1313,-1.8087,-89.7391,-21.4957
1075,-1.7627,-5.5948,-5.9396,-2.5043,-89.3913,-22.1217
1080,-1.8011,-5.4415,-6.0163,-3.8261,-88.8348,-22.7478
1085,-1.8011,-5.3648,-5.978,-5.2174,-88.2087,-23.3043
1090,-1.916,-5.2499,-6.0546,-6.0522,-87.3739,-24.0
1095,-1.9927,-5.1732,-6.0929,-6.1913,-86.7478,-24.5565
1100,-1.9927,-4.9433,-6.0163,-5.7043,-86.887,-25.5304
1105,-1.916,-4.905,-6.0929,-4.9391,-87.3043,-26.2261
1110,-1.8011,-4.8284,-6.0163,-4.1043,-88.1391,-26.5739
1115,-1.7244,-4.8284,-6.1696,-3.2,-89.4609,-27.1304
1120,-1.5328,-4.8284,-6.2079,-2.7826,-91.1304,-27.4087
1125,-1.4562,-4.79,-6.1696,-2.9217,-92.4522,-27.4087
1130,-1.1496,-4.79,-6.0546,-3.4783,-93.0087,-26.6435
1135,-0.9197,-4.8667,-5.863,-4.2435,-93.0087,-25.9478
1140,-0.7281,-4.8667,-5.8247,-4.9391,-92.4522,-25.1826
1145,-0.6514,-4.6751,-5.7864,-5.4261,-91.5478,-24.6957
1150,-0.3449,-4.4835,-5.7864,-5.287,-90.6435,-24.9043
1155,-0.3066,-4.4068,-5.4798,-4.7304,-89.5304,-25.5304
1160,-0.3449,-4.1003,-5.4415,-3.687,-88.6261,-26.7826
1165,-0.2682,-3.832,-5.2882,-2.6435,-87.4435,-28.0348
1170,-0.2682,-3.6404,-4.9816,-2.2957,-86.1217,-29.0783
1175,-0.5748,-3.3722,-4.9433,-2.713,-85.1478,-30.1913
1180,-0.7664,-3.1039,-4.8667,-3.4087,-85.1478,-31.7217
1185,-0.8814,-3.0656,-4.79,-4.0348,-85.5652,-32.6957
1190,-0.9197,-3.1806,-4.5984,-4.9391,-86.6087,-33.113
1195,-1.2263,-3.2189,-4.5984,-5.7043,-88.1391,-33.4609
1200,-1.4179,-3.3722,-4.2536,-6.1217,-90.3652,-33.3217
1205,-1.5711,-3.5255,-4.3685,-6.1913,-93.1478,-32.8348
1210,-1.8394,-3.6787,-4.4068,-6.1217,-96.6957,-31.8609
1215,-1.8394,-3.6021,-4.3685,-5.7043,-100.6609,-30.5391
1220,-1.8011,-3.5638,-4.4452,-5.287,-104.4174,-29.0783
1225,-1.916,-3.4488,-4.1769,-4.5913,-107.8261,-27.6174
1230,-1.6478,-3.2572,-4.062,-4.1043,-110.6783,-26.1565
1235,-1.3029,-3.1039,-3.9853,-3.8957,-113.0435,-24.9739
1240,-1.1113,-2.9123,-3.8704,-3.4087,-114.8522,-23.8609
1245,-0.9197,-2.5291,-3.5255,-2.8522,-116.3826,-23.1652
1250,-0.6131,-2.2609,-3.2572,-2.0174,-117.4261,-22.887
1255,-0.4215,-2.031,-3.0273,-0.5565,-117.913,-23.3043
1260,0.0383,-2.0693,-2.874,1.3913,-117.9826,-24.2783
1265,0.3066,-1.7244,-2.8357,3.5478,-117.7043,-25.3913
1270,0.5748,-1.4562,-2.6058,5.0087,-117.4261,-27.0609
1275,0.6898,-1.1496,-2.5291,5.3565,-117.0087,-28.8
1280,0.8814,-0.7281,-2.2992,4.9391,-116.1739,-29.9826
1285,1.0346,-0.8047,-2.1076,3.6174,-115.2,-30.887
1290,1.073,-0.843,-1.9543,1.5304,-113.8783,-31.6522
1295,0.958,-0.9963,-1.9543,-1.0435,-112.2783,-31.8609
1300,0.843,-1.1879,-1.4562,-4.1043,-110.7478,-31.1652
1305,0.7281,-1.3029,-1.4562,-7.2348,-108.8,-29.8435
1310,0.4598,-1.5328,-1.2646,-10.5739,-107.2,-27.5478
1315,0.3066,-1.7627,-0.8814,-12.6609,-104.6957,-24.6957
1320,0.1916,-1.9927,-0.843,-13.7739,-101.5652,-21.4261
1325,0.0,-2.2609,-0.3832,-14.5391,-98.3652,-18.2957
1330,-0.3832,-2.4908,-0.115,-14.2609,-94.9565,-14.9565
1335,-0.8047,-2.5291,0.1533,-12.313,-90.9913,-11.4783
1340,-0.9963,-2.8357,0.1916,-9.2522,-86.7478,-6.6087
1345,-1.1496,-3.1039,0.2299,-4.5217,-82.0174,-0.6957
1350,-1.4945,-3.1806,0.0766,0.487,-78.1913,4.6609
1355,-1.8394,-3.3339,-0.2299,3.687,-75.8261,9.6
1360,-2.0693,-3.5638,-0.1916,5.1478,-74.9913,15.0261
1365,-2.1459,-3.9853,-0.0766,5.2174,-75.3391,20.1739
1370,-2.4142,-4.1769,0.0,6.0522,-73.9478,25.7391
1375,-2.8357,-4.3302,0.4598,8.487,-70.887,31.6522
1380,-3.1423,-4.4452,0.6131,11.7565,-68.3826,37.4957
1385,-3.4871,-4.5984,0.6514,15.3739,-66.8522,43.5478
1390,-3.9853,-4.905,0.3832,18.5739,-66.7826,49.8087
1395,-4.5984,-5.0583,0.1533,21.0783,-67.7565,56.2783
1400,-5.2882,-5.02,-0.0766,22.1913,-69.8435,62.8174
1405,-6.0929,-5.02,-0.3832,22.1913,-72.7652,69.5652
1410,-6.7061,-5.2116,-0.1533,21.4261,-77.7739,76.0348
1415,-7.4725,-5.1349,-0.5365,21.3565,-84.9391,82.1565
1420,-8.3921,-5.1732,-0.6898,22.6087,-93.4957,87.9304
1425,-9.1586,-5.2882,-0.7664,24.487,-103.3043,93.0783
1430,-9.7717,-5.1732,-0.7281,27.4087,-113.0435,98.5739
1435,-9.9633,-5.1732,-0.7664,31.4435,-121.6,104.2087
1440,-10.1166,-4.905,-1.1879,36.0348,-128.6957,109.4957
1445,-10.1549,-4.905,-1.4945,40.0696,-134.4696,113.7391
1450,-10.653,-5.0583,-2.031,43.0609,-139.3391,116.5913
1455,-11.3045,-5.748,-2.4142,44.1739,-144.4174,118.5391
1460,-12.4158,-6.5528,-2.8357,43.9652,-149.7739,119.7217
1465,-14.6384,-7.5108,-3.1039,41.4609,-154.3652,120.2087
1470,-18.547,-8.6604,-3.4871,36.5217,-158.887,122.713
1475,-22.6856,-10.768,-4.6751,31.6522,-164.8,128.0
1480,-32.9171,-13.757,-6.1696,27.5478,-175.7217,139.2
1485,-49.0117,-19.6966,-9.0053,21.7043,-198.0522,168.487
1490,-73.7666,-28.6253,-8.2005,11.6174,-246.1913,234.4348
1495,-91.0491,-46.0993,-13.8336,33.5304,-311.8609,349.913
1500,-99.6711,-56.9823,-34.1051,73.113,-288.9739,515.4783
1505,-93.8848,-56.8673,-42.3823,74.087,-132.8696,642.5043
1510,-68.0186,-48.207,-29.5066,49.8087,-10.4348,576.8348
1515,-41.156,-37.7455,-18.4321,65.3217,-11.0609,400.0696
1520,-21.9575,-35.2164,-13.6804,102.3304,-59.5478,213.5652
1525,-6.9743,-31.461,-10.6914,127.3043,-129.3913,28.8696
1530,1.1113,-24.7549,-4.905,147.9652,-195.4087,-117.2174
1535,8.5838,-18.2788,-1.7244,180.0348,-250.5043,-170.5043
1540,11.2662,-12.1859,1.2646,221.7739,-280.9739,-143.7913
1545,14.1019,-4.1003,1.916,253.0783,-285.1478,-78.887
1550,17.2058,4.062,5.4798,270.8174,-260.7304,-8.2783
1555,21.4211,12.7223,6.0546,295.3739,-216.7652,57.6
1560,21.9575,20.8079,5.2116,297.9478,-144.2087,103.8609
1565,23.6053,25.1764,3.5638,251.7565,-62.1217,131.8957
1570,21.6127,24.5633,1.8394,163.3391,-0.4174,145.2522
1575,17.1675,20.3481,0.3449,50.6435,38.4696,159.6522
1580,12.4924,15.0599,0.8814,-67.8261,61.3565,178.8522
1585,5.8247,8.8137,1.6095,-170.7826,67.6174,190.6087
1590,-1.7627,1.9927,1.4179,-230.7478,55.3043,190.7478
1595,-7.6257,-4.7134,1.7627,-230.9565,31.2348,179.0609
1600,-15.4048,-12.4924,3.1423,-193.6,0.7652,162.0174
1605,-15.8263,-16.3245,4.7134,-129.3913,-31.513,149.9826
1610,-17.0909,-19.2368,5.4415,-50.6435,-62.1217,138.8522
1615,-17.3591,-19.2368,3.4871,32.9043,-93.0087,131.6174
1620,-15.7113,-18.662,3.5255,95.5826,-117.4957,135.7217
1625,-13.6037,-17.0142,3.0273,130.4348,-126.1217,150.9565
1630,-11.4195,-15.4048,2.2992,141.2174,-125.913,165.4957
1635,-9.3885,-13.757,1.6095,134.1913,-120.9739,171.8957
1640,-6.8977,-12.3391,0.9197,117.913,-114.9913,169.3217
1645,-3.9087,-11.1895,0.6131,102.1217,-108.7304,162.713
1650,-1.4945,-9.7334,0.1916,93.7043,-101.8435,158.1913
1655,0.0766,-7.6641,-0.0383,92.1043,-94.9565,154.7826
1660,0.8047,-5.5948,0.4982,91.9652,-90.5043,159.2348
1665,0.5365,-3.6787,1.5711,90.2957,-92.313,165.4957
1670,-0.4215,-2.3375,2.9123,93.0087,-99.1304,170.087
1675,1.1113,-1.9543,4.2152,102.5391,-107.3391,172.6609
1680,0.5365,-1.073,5.3265,120.487,-114.087,170.1565
1685,-0.2299,0.8814,6.7827,142.0522,-120.8348,168.8348
1690,-2.1459,2.2226,8.0089,160.2783,-130.1565,172.5913
1695,-4.5601,3.0273,8.8137,167.1652,-143.3043,174.7478
1700,-5.978,3.8704,9.7334,166.4,-156.3826,176.8348
1705,-8.3155,4.1003,10.5381,167.7913,-169.8783,182.887
1710,-10.1932,4.7517,9.9633,176.6261,-179.6174,190.6783
1715,-10.653,6.1696,8.0089,181.7043,-177.8783,194.9913
1720,-13.1439,9.5801,7.2042,177.113,-162.1565,197.0783
1725,-15.7113,12.2242,8.5838,155.4783,-148.7304,204.8696
1730,-17.1675,12.7223,10.4231,130.4348,-140.5217,218.6435
1735,-20.8463,13.5654,11.6494,121.113,-132.5217,228.313
1740,-21.651,14.7533,11.0746,113.2522,-129.0435,234.713
1745,-20.2331,14.5617,11.0363,100.7304,-119.6522,231.4435
1750,-18.6237,14.83,10.8446,92.5217,-101.2174,224.6261
1755,-18.6237,17.0142,9.6184,90.7826,-80.9739,211.687
1760,-19.0835,20.1182,7.7407,88.0,-66.087,190.6783
1765,-18.1638,22.1108,5.7864,84.313,-53.7043,161.9478
1770,-15.9413,23.1838,2.7207,87.2348,-36.5217,118.9565
1775,-13.4504,23.6053,-1.073,89.6,-8.9043,60.0348
1780,-12.1475,19.9266,-3.8704,89.3217,22.1913,-2.5043
1785,-9.7717,17.5507,-4.1003,81.7391,57.7391,-58.713
1790,-9.81,14.4468,-0.1916,58.2261,86.887,-95.0261
1795,-11.841,9.81,3.7554,43.6174,99.5478,-113.113
1800,-12.0326,6.9743,5.4415,45.1478,92.8,-117.0783
1805,-10.653,5.1732,7.5491,37.2174,80.7652,-111.3739
1810,-9.1586,2.7207,7.3575,23.0261,60.4522,-103.3739
1815,-9.9633,-0.7664,10.0399,3.9652,50.6435,-96.1391
1820,-7.5874,-2.9507,9.3885,1.113,43.4783,-77.9826
1825,-5.4415,-3.2955,7.9706,3.1304,30.4696,-66.6435
1830,-4.2919,-2.2609,6.0929,-0.5565,16.0,-64.0696
1835,-4.062,-1.4562,4.8667,-10.713,2.713,-62.1913
1840,-3.2955,-1.2263,3.8704,-20.5217,-6.4696,-52.3826
1845,-2.3759,-1.1113,2.6441,-26.5043,-12.5913,-38.6087
1850,-2.1843,-1.1113,1.8011,-29.4261,-17.5304,-26.8522
1855,-1.8777,-0.843,1.3412,-27.6174,-21.287,-16.6957
1860,-1.6861,-0.6898,0.958,-19.2696,-23.1652,-7.513
1865,-1.7244,0.2299,0.9197,-5.3565,-22.7478,-0.8348
1870,-2.2226,1.4179,1.1496,11.7565,-20.4522,2.087
1875,-3.0656,2.8357,1.4562,28.3826,-17.2522,2.8522
1880,-3.9087,4.3685,1.7627,44.0348,-12.9391,2.5739
1885,-3.8704,5.4798,1.8011,58.6435,-7.0957,1.6696
1890,-4.1003,7.0509,1.4179,71.513,-0.4174,-1.2522
1895,-4.1003,8.0089,1.2646,80.5565,5.2174,-5.1478
1900,-3.832,8.8903,1.2646,84.313,9.2522,-8.9739
1905,-3.0273,9.1969,1.2263,83.6174,13.0087,-12.3826
1910,-2.2609,9.3885,0.9197,79.3043,16.5565,-15.2348
1915,-2.1076,9.2735,0.3832,71.7913,20.2435,-16.0696
1920,-2.9123,9.0436,0.5365,60.3826,22.6783,-13.6348
1925,-4.0236,8.6221,0.9197,44.4522,20.6609,-10.2957
1930,-4.7134,7.894,1.6095,25.8087,15.3739,-7.7217
1935,-5.6331,7.2809,2.4142,7.3043,8.7652,-6.887
1940,-6.821,6.4378,2.9507,-9.113,0.9043,-7.7217
1945,-7.8173,5.5564,3.7937,-23.4435,-7.3043,-9.8783
1950,-8.5454,4.2919,4.2919,-34.2957,-14.7478,-13.4261
1955,-9.4268,3.3339,4.4835,-40.6957,-19.0609,-16.9043
1960,-10.2698,2.4142,4.79,-43.0609,-20.1739,-19.2
1965,-11.1129,1.8777,5.0966,-42.5739,-19.2,-19.4087
1970,-11.8027,1.6861,5.3265,-39.3043,-17.9478,-18.0174
1975,-12.0326,1.6095,5.4798,-33.9478,-16.5565,-15.513
1980,-12.3008,1.9927,5.5564,-27.687,-15.3739,-12.9391
1985,-12.2242,2.4908,5.7097,-21.287,-14.4696,-11.0609
1990,-11.841,2.7974,5.748,-14.887,-13.1478,-10.2261
1995,-11.4578,3.5638,5.4415,-9.113,-10.9913,-10.9913
2000,-10.653,4.3302,5.8247,-3.7565,-8.0,-13.2174
2005,-10.4614,4.8284,5.4415,0.9739,-3.687,-16.487
2010,-10.1932,5.4032,5.4798,4.8696,1.6696,-20.2435
2015,-9.925,5.748,5.2116,8.7652,7.9304,-24.5565
2020,-9.8483,6.2845,4.9816,12.6609,14.4,-29.4261
2025,-9.8866,6.2462,4.6368,15.9304,20.1043,-34.6435
2030,-9.6184,6.2462,4.2152,17.7391,24.7652,-40.0
2035,-9.4268,6.0163,4.1003,18.2261,28.1043,-45.0783
2040,-9.2735,5.4798,4.062,17.8087,30.1217,-49.6696
2045,-8.967,5.0583,3.947,16.9043,30.4,-53.0783
2050,-8.7754,4.4452,4.0236,15.7217,29.4261,-55.8609
2055,-8.5838,3.7937,3.947,14.887,28.4522,-57.8783
2060,-9.0436,3.2189,4.062,15.3043,27.0609,-57.9478
2065,-8.8137,2.5291,4.1386,17.3913,24.3478,-56.5565
2070,-8.737,2.4525,4.1769,20.3826,22.6783,-54.4
2075,-8.8137,1.7244,4.1769,23.9304,22.4696,-51.4087
2080,-9.3885,1.6478,4.2152,26.8522,22.6087,-49.2522
2085,-9.2735,1.1879,4.1769,29.913,22.8174,-46.6783
2090,-9.2352,1.1113,3.7937,31.513,23.7217,-44.313
2095,-9.0053,1.3029,3.4871,30.4696,25.4609,-42.0174
2100,-9.0053,1.5711,3.1423,27.8261,27.3391,-38.9565
2105,-8.4688,1.6095,3.1039,23.8609,28.9391,-34.9913
2110,-8.3155,2.031,2.7207,19.2696,31.3739,-32.1391
2115,-7.4725,1.9543,2.5291,14.7478,35.4783,-29.4261
2120,-6.7061,2.1459,2.3375,10.4348,41.3217,-25.6
2125,-6.1696,1.9927,2.3759,4.9391,47.1652,-22.6783
2130,-6.0163,1.8394,2.4908,-1.7391,51.4087,-20.2435
2135,-5.978,1.5711,2.989,-8.6957,54.4,-16.8348
2140,-5.978,0.958,3.6021,-14.7478,55.9304,-13.2174
2145,-6.3229,0.7664,4.0236,-19.2696,55.0957,-9.9478
2150,-6.3612,0.2299,4.3302,-21.8435,52.313,-7.1652
2155,-6.5145,-0.6131,4.8667,-22.4,49.3913,-3.4783
2160,-6.7444,-1.1113,5.3648,-17.6696,47.3739,1.8783
2165,-7.2425,-1.6095,5.2499,-7.513,44.7304,7.7217
2170,-7.8557,-2.0693,4.9433,6.7478,43.2,12.6609
2175,-8.8903,-1.6861,4.2919,21.0087,43.3391,15.513
2180,-9.5801,-1.5328,4.1003,34.3652,44.1739,18.3652
2185,-10.3082,-0.8814,3.6787,47.1652,44.6609,18.9217
2190,-10.9979,0.2299,2.8357,55.0957,46.6783,18.2957
2195,-11.5344,0.6131,2.3375,57.0435,49.3913,18.5739
2200,-11.726,0.9197,1.7244,54.887,51.6174,17.3913
2205,-11.9176,1.1113,0.9963,49.7391,53.6348,14.1217
2210,-12.0326,1.2263,0.3449,43.4087,56.0696,9.113
2215,-11.8793,1.5711,-0.0766,33.2522,59.5478,3.5478
2220,-11.8793,1.5328,0.0766,22.2609,62.5391,-2.087
2225,-11.6111,1.3412,0.0,12.0348,63.5826,-7.3043
2230,-11.3811,1.0346,-0.0383,3.687,62.6783,-11.5478
2235,-11.4195,1.1113,-0.1533,-2.0174,59.6174,-14.9565
2240,-10.883,0.4598,0.0383,-6.4696,54.7478,-17.7391
2245,-10.7297,0.0766,0.0,-6.887,50.6435,-16.487
2250,-10.883,0.2299,0.2682,-7.4435,45.4957,-15.7217
2255,-11.0363,0.2299,0.4982,-9.9478,39.2348,-16.3478
2260,-10.3465,-0.3066,0.958,-11.0609,35.2,-14.6783
2265,-10.1932,-0.4598,0.9963,-8.2783,33.8783,-10.4348
2270,-10.3848,-0.2682,1.0346,-4.5913,31.0261,-10.087
2275,-10.4998,-0.115,1.2263,-2.5043,28.3826,-10.5043
2280,-10.2698,-0.0766,1.1113,-2.2261,26.9913,-8.4174
2285,-10.0399,0.3449,0.958,-0.5565,26.6435,-5.913
2290,-10.0782,0.7664,0.843,1.0435,27.4087,-3.9652
2295,-10.5764,1.2263,0.6131,2.0174,26.9913,-4.1043
2300,-10.6147,1.5328,0.8047,1.6696,23.2348,-7.4435
2305,-9.6184,1.6095,0.7664,0.2087,20.1043,-7.0957
2310,-9.5034,1.9543,0.7281,0.8348,21.0783,-3.1304
2315,-9.925,2.031,0.6898,1.1826,21.7043,-0.487
2320,-9.925,2.0693,0.9197,0.5565,20.4522,1.1826
2325,-10.0016,2.0693,0.6898,-0.6957,18.5739,2.4348
2330,-10.0782,1.916,0.7281,-2.2957,16.2087,3.1304
2335,-10.0782,1.8011,0.843,-3.687,14.3304,3.687
2340,-10.1549,1.5711,0.7664,-4.8696,12.7304,4.6609
2345,-10.1549,1.6861,0.9963,-5.4261,11.4783,5.7043
2350,-9.925,1.5328,0.958,-5.9826,10.4348,6.887
2355,-9.81,1.5328,1.1879,-6.4696,9.6696,8.2087
2360,-9.7717,1.4945,1.2263,-6.887,9.6,9.4609
2365,-9.695,1.4945,1.3029,-7.6522,9.5304,10.6435
2370,-9.5034,1.6861,1.4179,-9.3217,9.1826,11.8957
2375,-9.6567,1.5711,1.5328,-10.9913,8.8348,12.7304
2380,-9.8483,1.6095,1.4945,-12.5217,8.487,13.5652
2385,-9.81,1.6478,1.6478,-13.5652,7.8609,14.6087
2390,-9.695,1.6478,1.8011,-14.2609,7.0261,15.3043
2395,-9.8866,1.6861,1.6861,-15.1652,6.1913,15.7913
2400,-9.8866,1.8011,1.8394,-15.0957,5.7043,16.2783
2405,-10.0016,1.7627,1.8777,-13.8435,5.9826,16.7652
2410,-10.0782,1.9543,1.9927,-11.4783,6.9565,17.6
2415,-10.0399,2.031,2.031,-8.7652,8.1391,18.4348
2420,-10.2698,2.2992,1.9543,-5.913,9.6,19.4783
2425,-10.1166,2.3759,1.7627,-4.0348,10.5043,19.687
2430,-10.1549,2.3759,1.6095,-3.0609,10.8522,19.1304
2435,-9.8483,2.4525,1.5711,-2.5739,11.3391,18.5739
2440,-9.7717,2.6058,1.3795,-2.7826,11.7565,17.8783
2445,-9.4651,2.4908,1.5711,-3.4783,11.8957,17.0435
2450,-9.3885,2.5675,1.4945,-4.313,11.5478,15.7913
2455,-9.3502,2.3375,1.4179,-5.1478,10.5739,14.1217
2460,-9.1969,2.3375,1.4945,-6.0522,9.3913,12.2435
2465,-9.1202,2.3759,1.3412,-7.1652,7.8609,10.2261
2470,-9.1586,2.2609,1.4945,-8.1391,6.5391,8.5565
2475,-9.3502,2.2609,1.4945,-9.113,5.0087,6.887
2480,-9.3118,2.1076,1.4945,-9.9478,3.2,5.4261
2485,-10.1932,2.1076,1.8394,-10.4348,1.3913,4.0348
2490,-9.695,1.9543,1.7244,-10.7826,-0.3478,2.713
2495,-9.7717,1.8777,1.6478,-10.5739,-1.6,2.2957
2500,-9.925,1.7627,1.6478,-9.9478,-2.5043,2.2261
2505,-9.9633,1.8011,1.8011,-9.113,-3.0609,2.2957
2510,-10.0016,1.8011,1.7244,-7.7913,-3.1304,2.1565
2515,-10.0016,1.9927,1.6861,-6.3304,-3.2696,2.5043
2520,-9.81,2.1076,1.8011,-5.3565,-3.1304,2.7826
2525,-9.8483,2.1076,1.8011,-4.313,-2.7826,2.7826
2530,-9.6567,2.2226,1.8011,-3.1304,-2.1565,2.5043
2535,-9.5801,2.4525,2.031,-2.2261,-1.5304,2.2261
2540,-9.5034,2.6058,1.9927,-1.8783,-1.0435,1.6696
2545,-9.2735,2.6824,2.031,-1.8783,-0.9043,1.113
2550,-9.2735,2.6824,2.0693,-1.9478,-0.8348,0.2783
2555,-9.1586,2.7207,1.9543,-2.087,-0.6957,-0.6261
2560,-9.2735,2.7591,1.9543,-2.3652,-0.6957,-1.4609
2565,-9.1969,2.7207,2.031,-2.5043,-0.9043,-2.2957
2570,-9.1969,2.7207,1.916,-2.6435,-0.5565,-3.1304
2575,-9.1969,2.4908,1.8394,-2.5739,-0.2783,-3.8261
2580,-9.3502,2.5675,1.8011,-1.8783,0.2783,-4.6609
2585,-9.4651,2.2609,1.8777,-0.7652,0.8348,-5.5652
2590,-9.5801,2.2609,1.8011,0.5565,1.0435,-6.2609
2595,-9.7334,2.2992,1.8777,1.8783,0.9043,-6.887
2600,-9.695,2.2226,1.8011,3.2,0.2087,-7.4435
2605,-9.6567,2.2226,1.6095,4.5217,-0.3478,-7.7913
2610,-9.695,2.1459,1.6095,5.6348,-1.0435,-8.1391
2615,-9.7334,2.031,1.6861,6.4696,-1.4609,-8.487
2620,-9.695,1.916,1.5711,6.9565,-2.0174,-8.6957
2625,-9.7717,1.8394,1.4945,7.1652,-2.4348,-8.7652
2630,-9.7717,1.7244,1.5328,7.2348,-2.9217,-8.7652
2635,-9.7717,1.7244,1.4179,7.4435,-3.6174,-8.9043
2640,-9.81,1.6861,1.6095,7.5826,-4.5913,-8.6261
2645,-9.7717,1.5711,1.6861,8.0,-5.6348,-7.5826
2650,-9.7334,1.6478,1.6095,8.9739,-6.887,-6.6783
2655,-9.81,1.6478,1.7244,10.4348,-7.6522,-5.913
2660,-9.6567,1.7627,1.6478,12.0348,-7.7913,-5.287
2665,-9.81,1.8011,1.8011,13.7043,-7.3043,-4.8
2670,-9.81,1.9543,1.8011,14.9565,-6.1913,-4.6609
2675,-9.7717,2.1076,1.7244,15.3043,-5.7739,-4.6609
2680,-9.6567,2.031,1.6861,15.0261,-5.2174,-4.5217
2685,-9.7717,2.1459,1.7627,14.9565,-4.1043,-4.5217
2690,-9.5801,2.031,1.8394,14.8174,-2.9913,-4.313
2695,-9.6567,2.0693,1.8011,14.2609,-1.8783,-3.9652
2700,-9.695,1.916,1.6861,13.4957,-1.3217,-3.687
2705,-9.695,1.9927,1.916,12.0348,-1.113,-3.2696
2710,-9.5801,1.9543,1.916,10.3652,-1.1826,-2.9913
2715,-9.6567,2.031,1.9927,8.7652,-1.2522,-2.713
2720,-9.6184,1.916,2.0693,6.9565,-1.8087,-2.2957
2725,-9.4268,1.9543,2.1076,5.4957,-2.1565,-2.3652
2730,-9.7334,2.031,2.0693,3.8957,-2.5739,-2.5043
2735,-9.5418,1.916,2.1843,2.2957,-3.1304,-2.5043
2740,-9.5801,1.9927,1.9927,0.7652,-3.6174,-2.8522
2745,-9.3118,1.9543,2.0693,-0.3478,-3.4783,-2.9913
2750,-9.4268,1.9543,1.9927,-1.1826,-2.713,-3.2696
2755,-9.1969,1.7627,2.4142,-2.1565,-1.8783,-3.4087
2760,-9.5034,1.8777,1.9543,-3.2,-1.1826,-3.2696
2765,-9.6184,1.8011,1.9543,-3.9652,-0.8348,-3.4087
2770,-9.5418,1.7244,1.8011,-4.4522,-0.6261,-3.3391
2775,-9.6184,1.6478,1.8777,-4.8,-0.487,-3.0609
2780,-9.5418,1.6478,1.8394,-4.7304,-0.4174,-2.9913
2785,-9.6184,1.7244,1.9927,-4.8,-0.3478,-2.713
2790,-9.6184,1.5328,2.031,-4.7304,-0.3478,-2.5043
2795,-9.5418,1.6095,2.0693,-4.8,-0.5565,-2.2261
2800,-9.5418,1.6095,1.9927,-4.7304,-0.9043,-1.8783
2805,-9.5034,1.8011,2.031,-4.8,-1.113,-1.6696
2810,-9.5034,1.6478,1.8777,-4.7304,-0.487,-1.3913
2815,-9.5801,1.6478,1.9543,-4.7304,0.4174,-1.113
2820,-9.6184,1.6861,2.0693,-4.8,1.113,-1.113
2825,-9.5801,1.6478,2.0693,-4.9391,1.3217,-1.113
2830,-9.5801,1.6095,2.2609,-4.7304,1.7391,-0.7652
2835,-9.6184,1.3795,2.2992,-4.0348,2.087,-0.2783
2840,-9.7717,1.4179,2.2992,-2.7826,2.7826,0.2087
2845,-9.7717,1.4179,2.0693,-1.1826,3.0609,0.7652
2850,-9.6184,1.3412,2.2992,1.3913,3.0609,0.9739
2855,-9.6567,1.4562,2.2226,4.6609,3.2,1.3217
2860,-9.5801,1.6861,2.1843,8.0,3.2,1.6696
2865,-9.5034,1.7244,2.1076,10.713,2.713,2.087
2870,-9.3502,2.031,2.1459,12.4522,1.8087,2.5043
2875,-9.2352,2.2609,2.0693,12.6609,0.7652,2.9217
2880,-9.1202,2.4908,1.8777,11.687,-0.2087,3.2696
2885,-9.1586,2.6441,1.916,9.5304,-1.3913,3.4783
2890,-9.1202,2.7207,2.031,6.5391,-2.4348,3.5478
2895,-9.0819,2.6058,1.8777,3.0609,-3.2696,3.4783
2900,-9.1969,2.6824,1.9543,-0.487,-4.0348,3.3391
2905,-9.1202,2.5291,2.2609,-3.9652,-4.7304,3.0609
2910,-9.2352,2.5675,2.2226,-6.8174,-5.2174,2.5043
2915,-9.2352,2.1843,2.0693,-8.6957,-5.1478,1.6696
2920,-9.2735,2.1459,2.2609,-9.6,-4.5217,0.9739
2925,-9.3885,1.9543,2.2609,-9.1826,-3.1304,0.0
2930,-9.5418,1.9543,2.1843,-8.2087,-1.1826,-0.6957
2935,-9.7334,1.8777,2.0693,-7.513,0.487,-1.4609
2940,-9.6567,1.6478,2.1459,-7.1652,2.0174,-1.8783
2945,-9.81,1.5328,2.031,-6.6783,3.3391,-2.087
2950,-9.81,1.4945,2.1459,-5.9826,4.5217,-2.087
2955,-9.8483,1.4945,2.1459,-5.2174,5.3565,-1.8783
2960,-9.81,1.3795,2.1459,-3.9652,5.7739,-1.6
2965,-9.7717,1.3412,2.2992,-2.2261,6.0522,-1.0435
2970,-9.7717,1.3795,2.3375,-0.0696,6.1913,-0.487
2975,-9.6184,1.5328,2.1076,2.2261,5.913,0.2087
2980,-9.5418,1.5711,2.2226,4.8,5.7043,0.6261
2985,-9.3502,1.6095,2.1076,6.9565,5.1478,0.9739
2990,-9.4651,1.8011,2.3375,8.8348,4.313,1.1826
2995,-9.1586,1.9543,2.1459,10.5043,2.9217,1.2522
