timestamp,accX,accY,accZ,gyroX,gyroY,gyroZ
0,0.843,-9.1586,-0.1533,6.7478,-55.6522,10.1565
5,0.8047,-9.1202,-0.0766,6.6783,-56.4174,10.087
10,0.9197,-8.967,-0.2682,6.4696,-57.0435,9.8783
15,0.7664,-8.737,-0.2299,6.0522,-57.6,9.4609
20,0.6131,-8.6987,-0.3832,5.5652,-58.1565,8.7652
25,0.4982,-8.6221,-0.1533,4.3826,-58.2957,8.2783
30,0.5365,-8.5838,-0.2682,3.687,-58.9217,7.7217
35,0.6514,-8.6604,-0.1533,2.5739,-57.8087,8.1391
40,0.7664,-8.967,-0.0383,1.6696,-56.7652,8.2087
45,1.0346,-9.2352,0.115,1.3217,-56.2087,8.0696
50,0.9963,-9.4268,0.1533,1.1826,-55.9304,8.2087
55,1.1113,-9.6567,0.3832,1.4609,-55.6522,8.6261
60,1.2646,-9.8483,0.3832,2.087,-55.513,9.2522
65,1.0346,-9.9633,0.4215,3.3391,-55.7217,8.8348
70,1.4945,-10.2315,0.1533,4.8696,-55.8609,9.5304
75,1.9927,-10.4998,0.1916,5.913,-54.3304,10.2957
80,2.1843,-10.5381,0.1533,6.8174,-52.9391,10.2957
85,2.1459,-10.5764,0.115,7.8609,-51.7565,10.0174
90,2.1459,-10.6914,0.0383,8.6957,-50.5739,9.6696
95,1.7244,-10.4998,0.0766,9.6,-49.9478,8.487
100,1.8394,-10.6147,-0.3066,10.9217,-50.4348,8.2087
105,1.8777,-10.4614,-0.3449,11.2,-49.6696,8.487
110,2.4908,-10.653,-0.6514,10.3652,-49.3217,8.487
115,1.6095,-10.653,-1.4179,8.9739,-49.8087,7.7217
120,1.9927,-10.8446,-2.1843,6.7478,-47.4435,8.2783
125,2.2992,-11.1895,-2.6441,3.5478,-43.1304,8.0696
130,2.6058,-11.3045,-3.2572,-0.1391,-37.913,7.5826
135,3.1423,-11.6494,-4.1769,-3.8261,-31.3043,6.6087
140,4.0236,-12.0326,-4.905,-7.7913,-22.5391,5.5652
145,4.79,-12.3775,-5.4032,-11.0609,-11.8261,4.1739
150,5.2499,-12.9139,-5.6714,-13.2174,-0.2087,2.2261
155,5.3648,-12.8756,-5.863,-13.3565,11.5478,0.1391
160,5.748,-12.8756,-6.0546,-11.7565,21.9826,-1.8783
165,5.7097,-12.8373,-6.2079,-9.3913,30.9565,-3.687
170,5.4032,-12.4541,-6.3995,-7.2348,38.8174,-4.6609
175,4.9816,-12.2625,-6.3612,-6.0522,45.913,-5.2174
180,4.3685,-11.9176,-6.3229,-6.1217,52.1043,-5.287
185,3.6787,-11.726,-6.1313,-7.5826,56.2087,-4.8
190,2.7974,-11.4961,-5.9013,-9.3217,58.1565,-3.8261
195,2.031,-11.7643,-5.863,-10.6435,58.5739,-2.4348
200,1.3412,-11.841,-5.5181,-10.7826,57.6,-1.0435
205,0.3449,-11.6877,-5.1732,-9.3217,55.0261,0.2783
210,-0.4215,-11.6877,-4.9816,-6.5391,50.5043,1.3217
215,-1.4945,-11.3428,-4.79,-2.7826,43.8957,2.0174
220,-2.6058,-10.8446,-4.7134,1.4609,35.8957,2.7826
225,-3.2955,-10.4231,-4.5601,5.6348,26.9217,3.6174
230,-3.7554,-9.7717,-4.4452,9.8087,17.6,4.1043
235,-4.1003,-9.3502,-4.1769,13.6348,8.4174,4.9391
240,-4.1386,-8.6987,-4.1003,17.3217,-0.3478,5.3565
245,-3.947,-8.4305,-3.9087,20.3826,-7.9304,5.4261
250,-3.5638,-8.2389,-3.7937,22.9565,-14.1913,5.7043
255,-3.1423,-8.2005,-3.7171,24.7652,-19.2696,5.913
260,-2.3375,-8.1622,-3.6021,25.6696,-23.0261,5.913
265,-1.7627,-8.2389,-3.6404,25.8087,-25.3217,5.913
270,-1.2263,-8.1239,-3.9087,24.8348,-26.6435,5.8435
275,-0.6898,-8.2389,-3.7171,23.0261,-26.7826,5.6348
280,-0.0766,-8.2772,-3.7937,20.5913,-26.0174,5.7739
285,0.4982,-8.1622,-3.7171,17.6696,-24.3478,5.9826
290,0.958,-7.9706,-3.7937,15.3043,-21.8435,5.6348
295,1.1879,-7.7407,-3.7171,13.0087,-18.6435,5.1478
300,1.4945,-7.5108,-3.6021,10.6435,-15.1652,4.5217
305,1.7244,-7.4341,-3.5638,8.487,-11.4783,4.0348
310,1.8011,-7.5108,-3.5638,6.2609,-7.6522,3.4783
315,1.8394,-7.4341,-3.4871,3.8957,-3.8261,3.2
320,1.8777,-7.6641,-3.3722,1.5304,0.2087,3.4087
325,1.4945,-8.1622,-3.2572,-0.7652,4.3826,4.0348
330,1.4179,-8.6604,-3.4105,-2.713,8.4174,4.9391
335,1.073,-8.967,-3.0656,-4.1739,11.3391,6.2609
340,0.6898,-9.3502,-3.2189,-4.8696,12.9391,7.9304
345,0.4982,-9.7334,-3.1039,-5.2174,13.4957,9.5304
350,0.2299,-9.8483,-3.0273,-5.0783,13.5652,10.9217
355,0.115,-9.8866,-2.9507,-4.313,13.5652,12.1043
360,0.1533,-9.81,-2.989,-2.9217,13.1478,12.8
365,0.2299,-9.6184,-2.874,-0.487,13.0087,12.6609
370,0.2682,-9.4268,-2.8357,2.3652,12.9391,12.2435
375,0.115,-9.1586,-2.7207,5.287,12.8696,11.9652
380,0.1533,-8.967,-2.6441,8.2087,12.8,11.6174
385,0.115,-8.5838,-2.6824,10.4348,12.6609,11.4783
390,0.2299,-8.3921,-2.6441,12.0348,12.9391,11.4783
395,0.2299,-8.2389,-2.6058,12.8696,13.4261,11.8957
400,0.2682,-8.0473,-2.6824,12.8,14.3304,12.3826
405,0.115,-7.894,-2.4908,12.4522,15.5826,13.2174
410,0.2299,-7.894,-2.7591,11.6174,17.0435,14.1217
415,0.0383,-7.7024,-2.6441,10.2261,18.8522,14.6783
420,0.0383,-7.8173,-2.5675,8.8348,20.6609,15.1652
425,0.0,-7.8173,-2.5291,7.1652,22.3304,15.5826
430,0.0383,-7.8557,-2.4908,5.4957,23.9304,15.6522
435,0.0383,-8.1622,-2.4525,3.8261,25.113,15.7913
440,0.115,-8.2389,-2.4142,2.4348,26.087,16.1391
445,0.0766,-8.5071,-2.3759,1.5304,26.8522,16.3478
450,0.0383,-8.4688,-2.4142,1.113,27.4783,16.6957
455,-0.1533,-8.6221,-2.4142,0.7652,27.7565,17.2522
460,-0.2299,-8.6604,-2.1843,0.6957,27.8261,17.3913
465,-0.3449,-8.7754,-2.2226,0.1391,27.7565,17.8783
470,-0.3449,-8.8137,-2.1843,0.6957,27.0609,17.7391
475,-0.4982,-8.737,-2.3375,1.3913,26.5739,17.7391
480,-0.4598,-8.6987,-2.4142,1.9478,26.2957,17.4609
485,-0.4215,-8.6987,-2.2992,2.5739,26.2261,17.0435
490,-0.3449,-8.5838,-2.3375,3.2,26.5739,16.6261
495,-0.2682,-8.6221,-2.3375,3.6174,27.687,16.0
500,-0.0383,-8.3538,-2.5291,3.7565,28.9391,15.0957
505,0.0,-8.4688,-2.5675,3.9652,30.4,14.1217
510,0.115,-8.3921,-2.4525,3.6174,31.8609,13.0783
515,0.1533,-8.5454,-2.3759,3.3391,33.6,12.0348
520,0.3832,-8.6604,-2.4525,2.9913,35.2,10.9913
525,0.3832,-8.737,-2.4525,2.713,36.9391,9.9478
530,0.4598,-8.8137,-2.2992,2.8522,38.2609,9.2522
535,0.5365,-8.852,-2.4142,2.9913,39.6522,8.6957
540,0.7664,-8.967,-2.4142,3.2,41.113,8.2087
545,0.7281,-8.852,-2.2992,3.3391,42.7826,7.8609
550,0.843,-8.852,-2.4142,3.4783,44.7304,7.7217
555,0.9963,-9.0436,-2.3759,3.5478,47.0261,7.7913
560,1.073,-9.0436,-2.1843,3.687,49.3217,7.6522
565,0.958,-9.0053,-2.031,4.1739,51.4087,7.513
570,0.9197,-9.0436,-2.1459,5.0087,53.3565,7.513
575,0.958,-9.0436,-2.1843,6.1217,55.513,7.3739
580,0.843,-8.852,-2.1076,7.4435,57.9478,7.2348
585,0.8047,-8.8137,-2.1076,8.6261,60.6609,7.0957
590,0.843,-8.9286,-2.3759,9.4609,63.3739,6.9565
595,0.6514,-8.737,-2.1459,10.1565,66.087,6.7478
600,0.6514,-8.5838,-2.1076,10.8522,68.8,6.6087
605,0.4982,-8.5071,-2.1076,11.2696,71.3043,6.5391
610,0.4215,-8.3155,-2.1076,11.5478,73.3217,6.5391
615,0.2682,-8.1239,-2.1076,11.1304,74.9913,6.4696
620,0.0383,-7.894,-2.1076,10.2957,76.313,6.4696
625,0.0766,-7.7407,-2.2226,8.9043,77.3565,6.4
630,0.0766,-7.7024,-2.1843,7.3043,78.1217,6.3304
635,-0.0383,-7.6641,-2.1076,5.287,78.5391,6.0522
640,-0.4215,-7.7407,-2.1076,3.1304,78.1913,5.7739
645,-0.6514,-8.0473,-2.031,0.9043,77.3565,5.4261
650,-0.8047,-8.1239,-2.031,-1.5304,75.8261,5.287
655,-0.843,-8.4688,-2.2609,-3.6174,73.9478,5.0783
660,-0.9197,-8.6604,-2.031,-5.4957,72.0696,4.8696
665,-0.9963,-9.0819,-2.2226,-6.9565,70.0522,4.4522
670,-0.9963,-9.3885,-2.1459,-8.0,68.3826,3.6174
675,-1.073,-9.8866,-2.1459,-8.6261,66.1565,2.7826
680,-1.073,-10.1166,-2.031,-8.6261,63.3043,1.8087
685,-1.1496,-10.4998,-2.031,-8.1391,60.1739,0.6957
690,-1.2263,-10.7297,-2.0693,-7.1652,56.6957,-0.3478
695,-1.3412,-10.6914,-2.0693,-5.5652,52.7304,-1.5304
700,-1.4945,-10.5381,-2.1843,-3.4783,48.0696,-2.4348
705,-1.3795,-10.4231,-2.1459,-1.113,42.7826,-3.4087
710,-1.4562,-10.1549,-2.0693,1.6696,37.4957,-4.313
715,-1.4179,-9.7334,-2.1843,4.313,32.487,-5.2174
720,-1.4562,-9.3502,-2.2609,6.5391,28.0348,-6.1217
725,-1.4179,-9.0053,-2.2609,8.2783,24.0,-7.0957
730,-1.4179,-8.4688,-2.3759,9.113,20.1739,-8.1391
735,-1.6095,-8.1622,-2.2226,9.3217,16.2087,-9.2522
740,-1.4945,-7.9706,-2.0693,9.113,11.7565,-9.8783
745,-1.6861,-7.6257,-2.1843,8.6957,7.1652,-10.2957
750,-1.8394,-7.5108,-1.916,8.2087,2.5739,-10.4348
755,-1.916,-7.5108,-1.7627,7.7217,-1.6696,-10.4348
760,-1.9543,-7.5108,-1.9543,6.7478,-5.7043,-10.087
765,-2.0693,-7.4725,-1.8777,5.5652,-9.6,-9.6
770,-1.7244,-7.5874,-1.7244,4.313,-13.1478,-8.7652
775,-1.5328,-7.7024,-1.8011,2.9217,-16.5565,-7.7913
780,-1.2646,-7.8557,-1.6861,1.113,-20.0348,-6.7478
785,-1.4179,-7.6641,-1.4562,-0.3478,-23.7913,-6.0522
790,-1.1496,-7.8173,-1.3029,-1.3913,-27.8957,-5.287
795,-0.8814,-7.9323,-1.2263,-2.0174,-32.4174,-5.0087
800,-0.7664,-7.779,-1.1496,-2.7826,-37.4957,-4.7304
805,-0.6514,-7.779,-1.073,-3.4783,-42.713,-4.5913
810,-0.6131,-7.8557,-1.1879,-4.313,-48.0,-4.4522
815,-0.5365,-7.7407,-1.1879,-4.8696,-52.8,-4.4522
820,-0.4215,-8.0856,-1.4179,-5.2174,-57.113,-4.6609
825,-0.6131,-7.8557,-1.3029,-5.4261,-60.6609,-4.8
830,-0.3449,-7.8557,-1.3795,-5.1478,-63.5826,-4.9391
835,-0.6131,-7.894,-1.4562,-5.0783,-66.087,-4.9391
840,-0.7281,-8.0089,-1.3795,-5.287,-68.1043,-5.0783
845,-0.8047,-8.0473,-1.3795,-5.287,-69.7739,-5.287
850,-0.8047,-7.9323,-1.3029,-4.7304,-71.3739,-5.0087
855,-1.3795,-8.0473,-1.2646,-3.4087,-72.8348,-4.6609
860,-1.6861,-8.0856,-1.2263,-1.6696,-73.8783,-4.0348
865,-1.8394,-7.9323,-1.073,-0.2087,-74.9913,-3.2
870,-2.0693,-7.779,-1.1879,0.9739,-76.0348,-2.2261
875,-2.031,-7.6641,-1.3412,1.6696,-77.1478,-1.3913
880,-2.0693,-7.4725,-1.1879,1.8783,-78.6783,-0.3478
885,-2.1076,-7.1276,-1.3412,1.3913,-80.487,0.6261
890,-1.7627,-7.0509,-1.3029,0.2783,-82.9217,1.3217
895,-1.5711,-6.9743,-1.3029,-0.9739,-85.7043,1.8087
900,-1.4945,-6.6294,-1.1496,-2.3652,-88.9739,2.1565
905,-1.073,-6.8593,-1.1879,-3.4783,-92.6609,2.2261
910,-1.0346,-6.821,-1.2646,-4.5217,-96.4174,2.2957
915,-0.7664,-6.9743,-1.3795,-5.4261,-99.9652,2.3652
920,-0.6898,-7.0509,-1.4562,-6.4,-103.0957,2.713
925,-0.6898,-7.0893,-1.3029,-7.2348,-106.2957,3.3391
930,-0.4598,-7.4341,-1.3795,-7.6522,-109.0783,4.0348
935,-0.4598,-7.5874,-1.3029,-8.0696,-111.8609,4.5913
940,-0.4215,-7.6257,-1.4179,-8.2783,-114.5043,5.1478
945,-0.3449,-7.8557,-1.5328,-7.9304,-117.1478,5.8435
950,-0.1533,-7.894,-1.2263,-7.4435,-118.887,6.1913
955,-0.3832,-7.8173,-1.1879,-6.3304,-119.9304,6.887
960,-0.4598,-7.8557,-1.2263,-4.9391,-120.2087,7.3739
965,-0.4215,-7.6641,-1.0346,-3.8261,-120.1391,7.7217
970,-0.3066,-7.4725,-1.1113,-2.9913,-120.0696,7.7913
975,-0.3832,-7.4725,-0.8814,-2.4348,-120.0696,7.5826
980,-0.4215,-7.3958,-0.958,-2.4348,-120.2783,7.3043
985,-0.2682,-7.1659,-0.958,-2.7826,-120.9043,6.6783
990,-0.0766,-6.8977,-1.1113,-3.6174,-122.087,5.9826
995,-0.0766,-6.4761,-1.3029,-4.8,-123.6174,5.3565
1000,-0.2682,-6.1313,-1.5328,-6.7478,-125.7043,5.0087
1005,-0.1916,-5.9013,-1.5328,-9.3913,-128.2783,5.0783
1010,-0.2682,-5.7864,-1.6861,-12.8696,-131.2696,5.6348
1015,-0.5365,-5.9396,-1.5328,-16.487,-133.913,6.4
1020,-0.4982,-6.0546,-1.5328,-19.5478,-136.1391,7.5826
1025,-0.4982,-6.4378,-1.5328,-22.1217,-137.6,9.0435
1030,-0.4982,-6.7827,-1.3795,-23.8609,-138.6435,10.1565
1035,-0.7281,-7.2809,-1.2263,-25.1826,-139.4783,11.0609
1040,-0.5748,-7.7024,-1.3412,-25.8087,-140.8,11.9652
1045,-0.6898,-7.9323,-1.2646,-25.9478,-142.1217,12.8696
1050,-0.6898,-8.0473,-1.2263,-26.0174,-143.7913,13.9826
1055,-0.8047,-8.3155,-1.3412,-25.1826,-145.9478,15.2348
1060,-0.5748,-8.3155,-1.2263,-22.7478,-147.6174,15.6522
1065,-0.4598,-7.894,-1.3029,-20.1739,-148.1739,16.1391
1070,-0.4982,-7.779,-1.3029,-18.6435,-148.1043,16.6261
1075,-0.3449,-7.5874,-1.1879,-17.0435,-149.0783,17.0435
1080,-0.3449,-7.5874,-0.958,-14.9565,-150.4,17.6
1085,-0.4215,-7.4725,-0.7281,-12.313,-152.1391,18.2261
1090,-0.1533,-7.4341,-0.6898,-9.6,-153.8087,18.5043
1095,-0.1533,-7.4725,-0.6514,-7.6522,-155.1304,19.3391
1100,-0.1533,-7.2042,-0.958,-6.887,-155.8957,20.1739
1105,-0.0766,-7.1659,-0.9197,-7.4435,-155.9652,21.2174
1110,0.0383,-7.2042,-0.8814,-8.8348,-155.4087,22.2609
1115,-0.1916,-7.0893,-0.9197,-9.6696,-154.5043,23.2348
1120,0.0,-7.2042,-0.7664,-10.713,-154.4348,24.487
1125,0.0383,-7.0509,-0.6898,-11.2,-154.7826,24.3478
1130,0.0,-7.1659,-0.6131,-11.0609,-155.2,24.6261
1135,-0.1533,-7.0509,-0.4982,-10.5043,-155.687,24.0696
1140,-0.1533,-7.1276,-0.4598,-9.2522,-156.6609,23.7217
1145,-0.115,-6.9743,-0.4598,-6.3304,-157.9826,23.1652
1150,0.0,-6.5528,-0.6898,-3.7565,-158.7478,23.6522
1155,0.0,-6.4378,-0.5365,-4.5913,-158.887,25.3913
1160,-0.3066,-6.3229,-0.6514,-4.5217,-160.3478,25.5304
1165,-0.0766,-5.9013,-0.7664,-3.4087,-162.3652,24.6957
1170,-0.0766,-5.6714,-0.6514,-4.2435,-163.8261,24.8348
1175,0.0,-5.4415,-0.6131,-6.9565,-165.4957,24.9739
1180,0.3066,-5.3648,-0.5748,-8.6261,-167.4435,24.1391
1185,0.3832,-5.1732,-0.5365,-10.2261,-168.487,24.0
1190,0.4598,-5.2116,-0.7281,-12.1739,-168.9043,24.2783
1195,0.843,-4.9433,-0.6898,-14.6087,-168.5565,25.113
1200,0.8814,-4.8667,-0.6514,-17.9478,-167.2348,26.4348
1205,0.8047,-4.79,-0.5365,-22.6783,-166.3304,28.313
1210,0.7281,-5.02,-0.5748,-26.5739,-166.3304,28.8
1215,0.5748,-4.8284,-0.7281,-28.1739,-167.3043,28.0348
1220,0.5365,-4.79,-0.6898,-29.287,-167.7217,27.6174
1225,0.3449,-4.6368,-0.958,-31.1652,-167.7913,27.4087
1230,0.4982,-4.4068,-1.3029,-33.5304,-168.0696,27.6174
1235,0.5365,-3.832,-1.6478,-35.9652,-167.7913,28.5913
1240,0.5365,-4.062,-1.7244,-40.1391,-166.8174,30.0522
1245,0.4598,-3.9087,-1.8011,-43.2696,-165.4261,30.8174
1250,0.843,-3.6021,-2.031,-45.4261,-164.3826,31.5826
1255,0.5365,-3.3722,-2.2226,-47.8609,-163.2696,32.1391
1260,0.7281,-3.1039,-2.4525,-48.9043,-162.9913,32.6261
1265,0.6898,-3.0656,-2.6824,-50.6435,-162.1565,33.5304
1270,0.5748,-2.6824,-2.8357,-52.8696,-161.3913,33.9478
1275,0.5748,-2.4142,-3.1423,-55.2348,-160.4174,34.5739
1280,0.1916,-2.031,-3.1423,-58.2957,-160.1391,35.9652
1285,0.1916,-1.6478,-3.5638,-60.6609,-161.113,38.0522
1290,-0.0766,-1.5711,-3.4488,-63.513,-161.8783,41.3913
1295,-0.0766,-1.8777,-3.832,-67.4087,-162.3652,42.8522
1300,0.0,-2.031,-4.1386,-71.8609,-162.713,43.4783
1305,0.2682,-2.4142,-4.3685,-76.8696,-162.087,44.6609
1310,0.3832,-2.874,-4.4068,-81.0435,-161.3913,45.913
1315,0.6131,-3.6021,-4.1769,-84.2435,-160.7652,46.2609
1320,0.6514,-4.1386,-4.3685,-85.9826,-160.8348,46.1913
1325,0.0383,-4.5218,-4.3685,-86.4,-161.4609,46.4696
1330,-0.2682,-4.8284,-4.3685,-85.7043,-163.0609,48.2783
1335,-0.6131,-4.8284,-4.3685,-83.8261,-165.287,51.5478
1340,-0.8047,-4.6751,-4.4068,-82.2957,-167.513,55.7913
1345,-0.9963,-4.2919,-4.5601,-81.3217,-169.6,63.0957
1350,-0.843,-3.5638,-5.02,-82.2261,-170.9913,70.1913
1355,-0.5365,-2.874,-5.4032,-86.1913,-172.1739,78.887
1360,-0.1533,-2.5291,-5.9396,-92.6609,-173.5652,87.1652
1365,-0.0766,-2.0693,-6.2845,-100.2435,-173.9826,94.5391
1370,0.2299,-1.9543,-7.2425,-107.6174,-172.8,101.5652
1375,0.4982,-1.9927,-7.9323,-114.3652,-170.5739,108.5913
1380,0.8047,-2.2609,-8.6221,-121.9478,-168.6261,114.2957
1385,0.7281,-2.9507,-9.2352,-127.5826,-166.4696,119.7913
1390,0.2682,-3.0656,-9.3885,-133.1478,-165.4261,125.913
1395,-1.1113,-4.062,-9.2352,-137.1826,-165.8435,132.313
1400,-3.0656,-4.905,-8.6221,-139.7565,-170.5043,138.8522
1405,-5.5948,-5.5948,-7.8173,-140.5913,-178.9913,145.4609
1410,-7.8173,-5.978,-7.1659,-140.4522,-191.7217,151.9304
1415,-11.2662,-6.4761,-6.5911,-139.3391,-208.2087,158.1217
1420,-14.3318,-6.7827,-6.0929,-136.487,-226.087,164.8
1425,-17.4357,-7.5874,-5.0583,-130.2957,-244.8696,170.087
1430,-20.0798,-8.5454,-3.9087,-118.9565,-264.6957,171.6174
1435,-20.463,-8.737,-3.4871,-103.8609,-284.3826,169.6696
1440,-20.7313,-9.0436,-2.7591,-88.6261,-298.2261,166.887
1445,-21.1911,-8.8903,-2.2226,-73.3913,-308.9391,165.2174
1450,-20.9995,-8.737,-0.2682,-62.1217,-318.3304,168.2783
1455,-20.5014,-9.3118,0.5365,-53.4261,-329.6696,174.5391
1460,-21.0762,-9.6567,0.3832,-47.0261,-347.687,185.5304
1465,-21.651,-12.3391,0.1916,-44.6609,-369.113,205.4957
1470,-23.1071,-15.4814,-0.1533,-43.9652,-388.3826,230.1913
1475,-26.7093,-20.1948,-0.3832,-44.6609,-402.9913,257.4609
1480,-31.8825,-25.598,0.8047,-43.687,-412.2435,284.313
1485,-35.293,-29.5833,-0.1916,-40.3478,-418.5739,305.3913
1490,-40.8878,-33.3004,0.115,-38.2609,-411.687,326.1913
1495,-45.9844,-35.6762,2.6441,-37.4261,-387.8261,347.3391
1500,-48.4369,-35.2164,4.905,-36.6609,-355.687,361.5304
1505,-47.0957,-31.9591,5.9013,-46.2609,-322.5739,363.5478
1510,-42.1523,-29.5833,9.2352,-60.5217,-285.0783,358.9565
1515,-15.0599,-26.0578,4.5601,-56.2783,-246.8174,350.2609
1520,-11.3811,-20.9995,7.2042,-41.7391,-186.8522,334.3304
1525,-5.2116,-16.8609,9.4651,-21.0087,-136.2087,322.9913
1530,-3.832,-11.9943,12.0326,5.6348,-106.9913,316.313
1535,-1.3412,-8.6987,10.0399,25.6,-97.3217,316.8
1540,-2.989,-5.7097,9.1202,33.8087,-92.8696,323.4087
1545,-8.8137,-4.0236,9.2352,40.0,-105.8087,330.0174
1550,-13.4888,-3.8704,7.5491,50.0174,-137.6,335.2348
1555,-17.3591,-1.3029,4.1003,61.913,-167.2348,339.687
1560,-20.1565,-0.1916,0.8814,64.1391,-182.4,344.1391
1565,-25.7513,-0.1916,-1.2646,54.6087,-180.313,342.1217
1570,-27.399,-2.1459,-0.7281,41.3913,-168.0,327.7217
1575,-24.1035,-3.8704,-0.2299,33.0435,-151.8609,299.9652
1580,-25.2148,-3.9853,1.3412,43.5478,-128.2087,272.8348
1585,-21.8426,-2.2992,2.6058,61.8435,-111.2348,249.9478
1590,-15.0216,0.2299,2.874,80.0696,-95.9304,236.1043
1595,-8.3155,2.4908,2.6441,87.9304,-78.4696,220.313
1600,-4.2152,3.7171,2.1843,83.6174,-55.3043,196.4522
1605,-2.9123,3.9087,2.1459,70.3304,-31.0261,161.3913
1610,-4.8284,3.5255,3.0273,53.287,-9.8783,117.2174
1615,-8.852,4.1386,4.1003,34.4348,5.6348,71.0261
1620,-12.2625,4.3302,5.2116,15.0957,22.1217,36.7304
1625,-13.9869,4.905,5.02,-0.2783,34.8522,13.3565
1630,-13.4121,4.1769,5.2882,-7.4435,41.6696,3.8957
1635,-12.5307,2.874,4.4452,-4.8,40.487,4.8696
1640,-12.6074,2.989,3.4105,0.1391,27.0609,6.4696
1645,-12.2242,3.3722,3.0273,6.5391,12.1043,12.5913
1650,-9.7717,3.6021,2.8357,13.0783,-2.087,18.2261
1655,-7.3958,3.2955,2.7207,19.5478,-13.2174,19.6174
1660,-4.8667,2.7974,2.6441,22.9565,-19.2696,14.6783
1665,-1.9543,2.2609,2.989,25.113,-20.0348,6.6783
1670,-2.2609,2.0693,3.2572,28.1739,-12.8,-4.3826
1675,-3.1423,2.6824,3.4488,30.8174,-2.2261,-13.7739
1680,-2.3759,3.1423,2.989,34.3652,9.3217,-16.7652
1685,-2.4908,3.4105,2.6058,36.7304,21.7739,-17.9478
1690,-2.7974,3.1039,1.7244,33.8783,32.2087,-17.7391
1695,-2.9123,2.6824,1.1496,28.9391,41.0435,-15.513
1700,-3.947,2.2992,0.9963,25.3217,49.113,-10.6435
1705,-4.5601,1.9927,0.8047,24.8348,52.6609,-3.8261
1710,-4.0236,2.1843,0.4982,27.3391,50.5739,0.2783
1715,-4.1386,1.6095,0.7664,31.5826,48.9043,5.7739
1720,-4.6751,1.6478,1.1113,37.287,46.4696,11.5478
1725,-4.79,1.8394,1.2263,42.4348,39.5826,15.3739
1730,-4.4452,2.6058,1.6861,45.6348,29.913,16.487
1735,-4.2919,3.0656,2.1843,46.5391,20.1739,16.0
1740,-4.1386,3.2955,2.7974,46.0522,11.8261,15.6522
1745,-4.2152,3.6021,2.9123,45.287,3.687,14.4
1750,-4.2536,3.947,2.8357,44.3826,-4.6609,13.0087
1755,-4.3302,4.2152,2.4908,42.8522,-12.0348,10.8522
1760,-4.9433,4.5601,2.5675,39.7913,-17.5304,8.9043
1765,-5.3648,4.6751,2.4525,35.5478,-22.2609,7.2348
1770,-6.2845,4.7517,2.2226,29.0783,-26.7826,5.913
1775,-6.6294,4.79,2.2226,21.0087,-31.0261,3.8957
1780,-6.936,4.7134,2.2609,12.2435,-33.9478,0.6261
1785,-6.4761,4.7134,2.4142,4.1043,-35.3391,-3.2
1790,-6.3995,4.8284,2.7974,-3.4087,-35.3391,-7.0957
1795,-6.5145,4.7517,3.4871,-9.8087,-34.6435,-11.5478
1800,-6.6294,4.7517,3.7171,-14.1217,-34.5043,-16.0
1805,-6.2079,4.79,4.1386,-17.7391,-33.8087,-20.6609
1810,-6.2462,4.7517,4.1386,-21.5652,-31.6522,-25.5304
1815,-6.3995,4.7134,4.4068,-25.3913,-29.7739,-30.6087
1820,-6.9743,4.1003,4.6368,-30.7478,-30.4,-35.2696
1825,-7.0509,3.5638,4.5601,-35.8261,-34.1565,-39.2348
1830,-7.0126,3.0273,4.5601,-39.7913,-37.7043,-43.687
1835,-7.2042,2.7207,4.5218,-41.6696,-38.7478,-47.3043
1840,-7.3958,2.2226,4.6368,-41.3217,-37.913,-50.1565
1845,-7.8557,2.0693,4.7517,-39.5826,-37.287,-51.7565
1850,-7.9706,1.9927,4.8667,-37.1478,-38.2609,-52.7304
1855,-7.7407,2.1076,4.8284,-33.9478,-40.3478,-52.1043
1860,-8.6221,2.1843,5.1732,-30.0522,-42.2957,-50.2957
1865,-9.4651,2.4142,5.978,-26.7826,-45.1478,-48.2087
1870,-8.967,2.6824,6.1313,-23.4435,-49.2522,-45.4957
1875,-9.4268,3.1423,6.5528,-19.6174,-51.2696,-42.7826
1880,-10.2698,3.2572,7.2809,-16.2087,-53.5652,-40.6261
1885,-10.7297,3.5255,7.6641,-13.1478,-56.7652,-38.4696
1890,-10.883,3.7937,7.9323,-9.6696,-58.8522,-35.8261
1895,-11.3428,3.947,7.779,-6.5391,-60.0348,-33.113
1900,-11.3428,4.1003,7.894,-4.8,-60.313,-30.887
1905,-11.9176,4.2536,8.4305,-2.5043,-60.0348,-27.5478
1910,-11.7643,4.8284,8.737,-0.4174,-61.4957,-23.513
1915,-11.9176,4.4452,9.3118,1.8783,-62.6087,-18.4348
1920,-11.6877,4.062,9.5801,2.9217,-63.3043,-15.3043
1925,-11.1512,3.6787,9.6184,2.6435,-61.6348,-13.9826
1930,-10.7297,2.9123,9.3885,2.0174,-56.2087,-13.9826
1935,-10.1932,2.5675,9.2735,2.5739,-48.2783,-15.0957
1940,-10.1549,2.2609,9.3118,4.5913,-39.3043,-16.5565
1945,-9.8483,1.9927,9.2735,6.9565,-31.4435,-18.4348
1950,-9.3885,1.4945,8.852,9.4609,-24.9043,-20.1739
1955,-9.1586,1.6095,8.4688,12.0348,-19.5478,-21.7739
1960,-8.0473,1.3412,7.7024,14.2609,-14.4696,-23.5826
1965,-8.1239,0.9963,7.3958,16.8348,-7.3739,-25.9478
1970,-7.5491,0.843,7.0126,18.9913,0.9739,-29.1478
1975,-8.2772,0.6131,6.8977,21.0783,10.087,-33.1826
1980,-9.0819,0.843,6.936,23.6522,17.6,-36.5217
1985,-7.8173,1.5711,6.0929,27.5478,21.7739,-37.9826
1990,-6.4378,1.3412,5.4798,30.8174,24.6261,-38.4
1995,-7.0126,1.3029,5.5948,32.6957,28.4522,-39.0957
2000,-6.1696,0.9963,5.2499,33.2522,31.0957,-40.4174
2005,-6.0546,0.958,4.905,32.8348,35.7565,-43.8957
2010,-6.3612,0.958,4.6751,33.113,42.4348,-46.887
2015,-6.4761,0.6131,4.4068,32.7652,47.2348,-49.3217
2020,-7.2042,0.5365,4.5984,31.5826,50.0174,-51.3391
2025,-6.8977,0.0766,4.4452,29.913,49.9478,-52.2435
2030,-7.5108,-0.0766,4.8667,27.0609,47.7217,-53.0783
2035,-6.7444,-0.2682,4.3685,24.4174,44.3826,-53.287
2040,-6.2845,-0.3066,3.947,24.7652,43.8261,-51.2
2045,-6.3612,-0.843,3.6404,25.5304,45.0087,-49.9478
2050,-6.7444,-0.9197,3.4488,26.8522,46.1913,-50.9913
2055,-6.9743,-0.8047,3.1039,28.5217,45.6348,-53.3565
2060,-7.8557,-0.2299,3.7171,29.0087,43.687,-54.887
2065,-7.6257,-0.0383,3.0273,25.1826,40.2783,-55.513
2070,-7.2425,-0.5365,3.3339,19.1304,38.5391,-55.2348
2075,-7.2809,-1.1496,3.6404,19.5478,40.1391,-52.1043
2080,-7.5491,-1.8011,4.0236,25.1826,43.1304,-48.1391
2085,-7.5108,-1.6478,3.6404,30.3304,45.0087,-45.2174
2090,-7.2042,-1.2646,3.5638,32.7652,44.9391,-42.2261
2095,-6.6294,-0.9963,3.2955,31.3043,43.687,-38.4
2100,-6.7827,-0.8047,2.874,28.0348,42.713,-33.9478
2105,-7.6257,-0.958,2.4908,23.6522,43.2,-30.4696
2110,-8.8137,-1.1879,2.6058,18.713,44.2435,-27.9652
2115,-9.9633,-0.843,2.5291,15.2348,45.0087,-25.2522
2120,-10.0016,-1.8011,2.4142,12.9391,43.4783,-22.1217
2125,-10.1932,-1.6861,1.9927,12.7304,41.8783,-21.2174
2130,-10.2698,-1.2263,1.4945,13.9826,42.1565,-19.8261
2135,-9.9633,-1.4945,1.9927,14.5391,43.687,-15.9304
2140,-10.0399,-1.5711,2.2226,14.0522,43.6174,-14.0522
2145,-10.0016,-1.8011,2.4525,12.5217,42.5739,-13.2174
2150,-9.5801,-2.2992,2.4142,11.4783,40.6957,-12.9391
2155,-9.695,-2.3759,2.5291,11.687,38.5391,-12.8696
2160,-9.7717,-2.1843,2.6441,12.4522,36.5913,-13.4957
2165,-9.695,-2.1459,2.5291,13.4957,35.4783,-13.3565
2170,-10.0399,-2.1843,2.5291,14.3304,34.713,-13.287
2175,-10.0399,-2.1076,2.2992,15.0261,33.7391,-12.8696
2180,-10.4614,-1.9927,2.1076,15.3739,33.4609,-12.1043
2185,-10.653,-1.9927,1.8777,14.4696,33.8087,-11.2696
2190,-10.4614,-2.031,1.7244,12.8696,34.5043,-10.2261
2195,-10.2698,-1.9927,1.6861,11.6174,35.6174,-8.8348
2200,-10.3848,-2.1076,1.8011,10.3652,37.1478,-7.3739
2205,-9.925,-2.1843,1.3412,9.3913,37.2174,-5.913
2210,-9.8866,-2.1843,1.6095,8.0,36.2435,-5.0087
2215,-9.8483,-1.9543,1.8011,7.1652,34.713,-3.8957
2220,-9.925,-1.8011,1.8394,6.1913,32.4174,-3.3391
2225,-9.7334,-1.8011,1.6861,4.8696,28.8,-3.3391
2230,-9.6567,-2.031,1.7627,3.3391,24.7652,-3.8957
2235,-9.5418,-1.9927,1.5711,2.2957,20.3826,-4.8
2240,-9.7334,-1.9543,1.4562,1.1826,17.5304,-5.5652
2245,-9.81,-2.0693,1.3029,0.6261,14.8174,-6.4696
2250,-9.5034,-2.2609,1.0346,0.1391,12.7304,-7.1652
2255,-9.81,-2.4142,0.958,-0.3478,11.7565,-8.1391
2260,-10.0782,-2.3759,1.1879,-0.2087,11.2696,-8.6957
2265,-9.8866,-2.4142,1.0346,0.2087,10.4348,-8.3478
2270,-9.9633,-2.2609,1.1496,0.4174,9.4609,-7.4435
2275,-10.1166,-2.2609,1.2646,0.8348,8.5565,-6.4
2280,-10.1166,-2.2226,1.3412,1.2522,7.6522,-5.1478
2285,-10.2698,-1.9927,1.2646,1.6696,6.887,-3.7565
2290,-10.0782,-1.8777,1.4179,2.1565,6.0522,-2.4348
2295,-10.1932,-1.8394,1.5328,2.1565,5.2174,-1.0435
2300,-10.1166,-1.6861,1.4179,1.8783,4.4522,0.2087
2305,-10.0016,-1.5711,1.6478,1.4609,3.9652,1.3217
2310,-9.9633,-1.6095,1.6095,0.9043,3.4783,2.2957
2315,-9.9633,-1.4562,1.5711,0.4174,2.9217,3.2
2320,-9.9633,-1.3795,1.7244,-0.0696,2.5043,3.8957
2325,-9.925,-1.3029,1.6861,-0.5565,1.8087,4.6609
2330,-10.0399,-1.2646,1.8011,-0.9739,0.9043,5.287
2335,-9.81,-1.2646,1.7627,-1.5304,-0.4174,5.913
2340,-9.8866,-1.073,1.9927,-2.0174,-1.5304,6.4
2345,-9.81,-0.843,1.9543,-2.3652,-2.8522,6.9565
2350,-9.6567,-1.1113,2.0693,-2.9217,-3.9652,7.3739
2355,-9.5801,-1.073,2.1459,-2.9913,-5.2174,7.7913
2360,-9.5418,-1.1879,2.0693,-2.9913,-6.4,8.2783
2365,-9.5418,-1.1879,2.0693,-2.8522,-7.6522,8.7652
2370,-9.5034,-1.073,2.2992,-2.713,-8.5565,9.0435
2375,-9.4651,-1.0346,2.3759,-2.5739,-9.1826,9.3217
2380,-9.3502,-1.1496,2.4525,-2.2957,-9.5304,9.4609
2385,-9.4651,-1.0346,2.4908,-2.3652,-9.4609,9.5304
2390,-9.3118,-0.8814,2.5675,-2.4348,-9.3913,9.6696
2395,-9.2735,-0.9197,2.7207,-2.4348,-9.1826,9.8783
2400,-9.2735,-0.843,2.7591,-2.0174,-8.6957,10.0174
2405,-9.3885,-0.7281,2.7591,-1.6,-8.0696,9.8783
2410,-9.1586,-0.7664,2.7591,-1.3913,-7.7217,9.8087
2415,-9.3118,-0.7281,2.7974,-1.113,-7.3739,9.6
2420,-9.0819,-0.6898,2.7974,-1.113,-7.4435,9.6
2425,-9.1969,-0.4982,2.874,-1.0435,-7.1652,9.5304
2430,-9.2352,-0.6131,2.8357,-1.113,-7.1652,9.3913
2435,-9.2735,-0.4598,3.1423,-1.113,-6.5391,9.1826
2440,-9.1202,-0.4598,3.1423,-0.8348,-6.2609,8.8348
2445,-9.1586,-0.5365,3.2189,-0.6261,-6.0522,8.3478
2450,-9.3502,-0.4215,2.989,0.0,-5.8435,7.9304
2455,-9.0436,-0.5365,2.989,0.6957,-5.5652,7.513
2460,-8.8903,-0.5365,3.0656,1.6,-5.1478,7.0261
2465,-9.0436,-0.6131,2.874,2.5739,-4.7304,6.4696
2470,-9.0053,-0.4215,2.9507,3.3391,-4.5217,5.7043
2475,-8.967,-0.4598,3.1039,4.1043,-4.1739,5.0087
2480,-8.9286,-0.4598,2.874,4.8,-3.9652,4.313
2485,-9.0053,-0.3066,2.874,5.4957,-3.5478,3.6174
2490,-9.1969,-0.2299,2.989,6.1913,-2.9913,2.8522
2495,-9.2352,-0.3449,2.989,6.8174,-2.2957,2.2261
2500,-9.2352,-0.2682,2.7974,7.2348,-1.7391,1.5304
2505,-9.2352,-0.115,2.9123,7.5826,-1.3217,0.8348
2510,-9.2735,-0.115,2.7207,7.9304,-0.9739,0.1391
2515,-9.3118,-0.1533,2.8357,8.2087,-0.4174,-0.487
2520,-9.3502,-0.115,2.7974,8.3478,0.1391,-1.0435
2525,-9.3885,-0.1533,2.7591,8.3478,0.6261,-1.6
2530,-9.3885,-0.115,2.874,8.2783,0.9043,-1.9478
2535,-9.3118,-0.2299,2.7207,8.2783,1.113,-2.2957
2540,-9.3885,-0.2682,2.7974,8.3478,1.3913,-2.713
2545,-9.4268,-0.1533,2.8357,8.2087,1.6,-3.1304
2550,-9.4268,-0.1916,2.7207,8.2087,1.8783,-3.5478
2555,-9.4268,-0.3066,2.6441,8.1391,2.0174,-3.8261
2560,-9.5801,-0.2682,2.6824,8.0696,2.2957,-4.1043
2565,-9.4651,-0.4215,2.7591,8.0,2.3652,-4.4522
2570,-9.3885,-0.4982,2.5675,7.8609,2.3652,-4.6609
2575,-9.3885,-0.4982,2.5675,7.7913,2.2957,-5.0087
2580,-9.5034,-0.3832,2.5291,7.5826,2.2261,-5.287
2585,-9.5418,-0.5365,2.6058,7.513,2.0174,-5.5652
2590,-9.4651,-0.4982,2.5675,7.3739,1.7391,-5.5652
2595,-9.4268,-0.6131,2.5291,7.1652,1.3217,-5.6348
2600,-9.6184,-0.5365,2.4142,6.9565,1.0435,-5.6348
2605,-9.5418,-0.5365,2.4525,6.8174,0.7652,-5.7043
2610,-9.4651,-0.6131,2.4525,6.6087,0.3478,-5.6348
2615,-9.3885,-0.6131,2.5675,6.4,-0.0696,-5.7739
2620,-9.5034,-0.5748,2.5291,6.2609,-0.2783,-5.8435
2625,-9.4268,-0.7664,2.5291,5.9826,-0.4174,-5.913
2630,-9.3885,-0.7281,2.4525,5.7043,-0.6261,-5.9826
2635,-9.5801,-0.6131,2.3759,5.3565,-0.6957,-5.8435
2640,-9.3118,-0.7281,2.4908,5.0783,-0.6957,-5.7739
2645,-9.5034,-0.6514,2.4908,4.6609,-0.7652,-5.6348
2650,-9.4651,-0.7664,2.3759,4.1739,-0.8348,-5.6348
2655,-9.4651,-0.7281,2.5675,3.6174,-0.9739,-5.5652
2660,-9.4651,-0.9197,2.6441,3.2,-1.1826,-5.4957
2665,-9.5034,-0.9197,2.7974,2.7826,-1.2522,-5.3565
2670,-9.4268,-0.8814,2.6441,2.5043,-1.3217,-5.287
2675,-9.3885,-1.0346,2.5675,2.2261,-1.4609,-5.0087
2680,-9.3885,-1.0346,2.4525,1.8783,-1.6696,-4.8696
2685,-9.3885,-0.9963,2.4525,1.6,-1.7391,-4.5217
2690,-9.3502,-1.1113,2.4525,1.4609,-1.8087,-4.313
2695,-9.3502,-0.9963,2.4525,1.3913,-1.9478,-4.1043
2700,-9.3885,-1.1496,2.5675,1.2522,-2.087,-3.7565
2705,-9.3118,-1.1879,2.4908,1.3913,-1.9478,-3.4087
2710,-9.4268,-1.1879,2.5291,1.5304,-1.8087,-3.1304
2715,-9.3502,-1.2646,2.5675,1.6,-1.7391,-2.9217
2720,-9.2735,-1.1879,2.5675,1.6696,-1.6,-2.5739
2725,-9.3502,-1.2263,2.5291,1.6,-1.5304,-2.2957
2730,-9.2735,-1.1879,2.7591,1.5304,-1.3913,-1.9478
2735,-9.3885,-1.1113,2.6441,1.6,-1.1826,-1.6696
2740,-9.3118,-1.1496,2.5675,1.5304,-1.0435,-1.3217
2745,-9.3118,-1.073,2.6058,1.3913,-0.8348,-1.113
2750,-9.3502,-1.073,2.6441,1.3217,-0.6261,-0.9043
2755,-9.1586,-1.1113,2.5675,1.3913,-0.5565,-0.5565
2760,-9.2352,-1.1879,2.7207,1.3913,-0.487,-0.2783
2765,-9.3885,-1.1113,2.6058,1.5304,-0.3478,-0.1391
2770,-9.2735,-0.9197,2.6441,1.4609,-0.4174,0.0
2775,-9.2352,-1.2646,2.6058,1.4609,-0.2783,0.2087
2780,-9.1202,-1.1113,2.7207,1.5304,-0.2087,0.2783
2785,-9.2735,-0.9197,2.6441,1.6696,-0.1391,0.3478
2790,-9.3118,-0.9197,2.6441,1.6696,0.0696,0.4174
2795,-9.3118,-0.958,2.6441,1.7391,0.1391,0.5565
2800,-9.2735,-1.0346,2.4908,1.7391,0.1391,0.7652
2805,-9.3502,-0.9963,2.5675,1.9478,0.3478,0.9043
2810,-9.4268,-0.8814,2.4908,1.9478,0.2783,0.9739
2815,-9.3885,-0.9197,2.6058,1.9478,0.487,0.9739
2820,-9.3885,-0.843,2.7207,2.0174,0.6261,0.9739
2825,-9.1969,-0.7664,2.7207,2.0174,0.9043,0.9739
2830,-9.3885,-0.843,2.5675,1.9478,1.113,1.0435
2835,-9.2352,-0.7281,2.6058,1.9478,1.3217,0.9739
2840,-9.3502,-0.8047,2.6441,1.8087,1.4609,0.9739
2845,-9.3502,-0.8047,2.6824,1.8783,1.6,1.113
2850,-9.3885,-0.7664,2.6441,1.8783,1.8087,0.9739
2855,-9.4268,-0.7281,2.6441,1.9478,1.8783,0.9739
2860,-9.3502,-0.8814,2.5291,2.087,2.0174,0.9043
2865,-9.2735,-0.8047,2.6441,2.2261,2.0174,0.9043
2870,-9.3502,-0.8814,2.6824,2.3652,2.1565,0.7652
2875,-9.3118,-0.9197,2.7591,2.4348,2.2957,0.6957
2880,-9.3502,-0.9963,2.6441,2.713,2.4348,0.5565
2885,-9.81,-0.9963,2.1459,3.0609,2.3652,0.3478
2890,-9.5034,-0.7664,2.6058,3.2696,2.4348,0.2087
2895,-9.4268,-0.7281,2.6824,3.4087,2.5043,0.2087
2900,-9.3118,-0.7281,2.5291,3.8261,2.5739,0.2783
2905,-9.2352,-0.8047,2.5291,3.8957,2.713,0.2783
2910,-9.4651,-0.6514,2.3759,3.9652,2.9217,0.2087
2915,-9.3885,-0.7281,2.7591,3.8261,2.9217,0.1391
2920,-9.3885,-0.6514,2.6058,3.8261,2.9217,0.0
2925,-9.3885,-0.7281,2.6441,3.8261,2.7826,0.0
2930,-9.2735,-0.8047,2.6441,3.7565,2.6435,0.0
2935,-9.3118,-0.7281,2.6058,3.687,2.5739,-0.1391
2940,-9.3502,-0.7664,2.6058,3.5478,2.5043,-0.2783
2945,-9.3502,-0.6898,2.4908,3.4087,2.5043,-0.2087
2950,-9.3118,-0.7664,2.5675,3.2,2.4348,-0.2783
2955,-9.3118,-0.6898,2.5291,3.0609,2.3652,-0.3478
2960,-9.3885,-0.8814,2.4908,2.9217,2.2261,-0.5565
2965,-9.3885,-0.8047,2.6441,2.9913,2.1565,-0.5565
2970,-9.3885,-0.8047,2.5291,2.9913,2.0174,-0.5565
2975,-9.2735,-0.8814,2.5291,2.9913,2.0174,-0.5565
2980,-9.5034,-0.8047,2.5291,3.1304,2.0174,-0.7652
2985,-9.3885,-0.9197,2.5291,3.2,1.8783,-0.8348
2990,-9.4651,-0.843,2.6824,3.1304,1.8087,-0.9043
2995,-9.4268,-0.8047,2.5291,2.9913,1.7391,-0.9043
