timestamp,accX,accY,accZ,gyroX,gyroY,gyroZ
0,-1.0346,-11.3045,-2.1459,-25.8783,37.8435,7.7913
5,-1.4945,-11.0746,-2.0693,-23.7913,30.3304,5.7043
10,-1.6095,-10.4231,-2.1076,-21.7739,23.2348,3.8261
15,-1.7627,-10.0782,-2.1843,-20.6609,17.2522,2.2261
20,-1.7627,-9.925,-2.0693,-20.0348,12.8696,0.8348
25,-1.7244,-9.695,-2.031,-18.8522,10.2261,-0.487
30,-1.8777,-9.7717,-2.1076,-17.3913,8.6957,-2.087
35,-1.7244,-9.6184,-1.6478,-15.5826,8.0696,-4.4522
40,-1.6478,-9.5418,-1.4945,-12.8696,8.0696,-6.6783
45,-1.5711,-9.5034,-1.2646,-9.6,9.8087,-8.2783
50,-1.4945,-9.3885,-1.1879,-5.7739,12.1739,-9.3217
55,-1.4179,-9.1969,-0.8814,-1.8087,14.1217,-10.087
60,-1.1879,-9.0436,-0.7281,2.0174,15.7913,-10.2957
65,-0.958,-8.7754,-0.7281,5.3565,17.2522,-10.1565
70,-0.8047,-8.4305,-0.7281,7.7217,18.2261,-9.8087
75,-0.4598,-8.4305,-0.6898,8.9043,18.7826,-9.113
80,-0.4215,-8.2389,-0.8047,8.8348,19.2,-8.5565
85,-0.3832,-8.0473,-0.6514,7.3043,19.2696,-7.5826
90,-0.2682,-7.9323,-0.7664,3.687,18.9913,-6.8174
95,-0.1533,-7.894,-0.8047,-0.487,18.4348,-5.9826
100,-0.0383,-8.0089,-0.5748,-5.4957,17.6,-5.3565
105,-0.1533,-8.0473,-0.5365,-9.8087,16.0696,-4.3826
110,-0.1533,-8.4688,-0.5748,-13.5652,14.3304,-3.4783
115,-0.1533,-8.6221,-0.5748,-16.9739,12.313,-2.8522
120,-0.115,-8.967,-0.4215,-20.3826,10.3652,-2.713
125,-0.1916,-9.2352,-0.4215,-23.3043,8.1391,-2.713
130,-0.1533,-9.3118,-0.3832,-26.1565,5.6348,-2.9217
135,-0.2682,-9.6184,-0.115,-28.2435,2.5043,-3.4783
140,-0.115,-9.8866,-0.2682,-27.8261,-0.2783,-3.687
145,-0.0766,-9.81,-0.3066,-26.2957,-2.1565,-4.1043
150,0.0766,-9.6184,-0.3832,-24.0,-3.3391,-4.8
155,0.2682,-9.5034,-0.5365,-21.8435,-3.687,-5.2174
160,0.3066,-9.4268,-0.5365,-19.8957,-3.2,-5.9826
165,0.5365,-9.2352,-0.6514,-18.4348,-2.1565,-6.4
170,0.7664,-9.0053,-0.6898,-17.4609,-0.6957,-6.7478
175,0.8814,-8.8903,-0.6898,-16.8348,0.9739,-6.6087
180,1.1496,-8.9286,-0.7664,-16.6261,2.5043,-6.3304
185,1.2263,-8.9286,-0.6514,-16.6261,4.9391,-5.4957
190,1.3795,-9.0053,-0.6131,-16.6261,7.1652,-4.4522
195,1.4179,-9.0819,-0.4215,-16.4174,9.2522,-3.2696
200,1.3795,-9.2352,-0.4598,-15.7913,11.1304,-2.3652
205,1.3029,-9.2735,-0.3832,-15.0957,12.8,-1.113
210,1.2263,-9.5801,-0.2682,-14.0522,13.9826,0.0
215,1.1496,-9.6184,-0.1533,-12.5217,14.5391,1.2522
220,0.9197,-9.695,-0.1916,-10.5739,14.5391,1.8087
225,0.8814,-9.8483,-0.1916,-8.8348,14.3304,2.5739
230,0.8047,-9.695,-0.115,-7.1652,13.913,2.9913
235,0.7281,-9.5801,-0.2299,-5.7043,13.6348,3.687
240,0.6514,-9.6184,-0.4982,-4.1043,13.6348,4.1739
245,0.5748,-9.4268,-0.3449,-2.713,13.913,4.8696
250,0.4598,-9.4268,-0.3832,-1.3913,14.4,5.4261
255,0.5748,-9.3118,-0.2682,-0.2087,15.1652,6.3304
260,0.6898,-9.4651,-0.3066,0.8348,16.1391,6.7478
265,0.6898,-9.5801,-0.1533,2.2261,17.3217,7.5826
270,0.843,-9.8866,-0.0766,3.5478,18.8522,7.9304
275,0.7664,-9.925,-0.115,4.8,20.5217,8.2783
280,0.843,-10.1932,0.115,5.6348,22.2609,8.0
285,0.958,-10.3465,0.1533,6.8174,24.0,8.1391
290,0.7281,-10.3848,0.4982,8.7652,24.9043,7.7913
295,0.5365,-10.4231,0.4598,10.9913,24.8348,7.7217
300,0.5748,-10.4614,0.5365,13.9826,23.9304,7.513
305,0.3832,-10.3848,0.8814,17.1826,22.3304,7.513
310,0.2682,-10.1166,0.7664,20.0348,20.1739,7.1652
315,-0.0383,-10.0399,0.9197,22.887,17.7391,7.3739
320,-0.1533,-9.9633,0.958,25.8783,15.3043,7.2348
325,-0.4215,-9.7334,0.9197,30.2609,14.4,7.6522
330,-0.3832,-9.5034,0.8047,34.2261,14.9565,8.0696
335,-0.4598,-9.4651,0.8047,35.9652,15.6522,8.8348
340,-0.4215,-9.3885,0.8814,35.4783,15.5826,9.1826
345,-0.7664,-9.6184,1.1113,34.2957,14.9565,9.7391
350,-0.7281,-9.6567,1.0346,33.2522,13.5652,10.0174
355,-0.7664,-9.925,0.8814,32.487,11.8261,10.713
360,-0.8814,-10.0016,1.4179,31.513,9.8783,11.2696
365,-0.7664,-10.4614,1.3795,30.4696,7.8609,11.9652
370,-0.9197,-10.4998,1.1496,29.7043,5.7043,11.8957
375,-0.843,-10.8446,1.1496,28.8,3.6174,11.687
380,-0.9197,-10.9213,1.1879,28.4522,1.8087,10.7826
385,-0.8814,-11.0363,1.0346,28.5913,-0.0696,10.5043
390,-0.7664,-10.9596,0.7664,29.4261,-1.1826,9.8783
395,-0.8047,-10.9596,0.9197,30.4,-2.0174,9.6696
400,-0.6898,-10.8446,0.7281,31.7913,-2.7826,9.2522
405,-0.4982,-10.9213,0.6898,33.5304,-3.6174,8.9043
410,-0.4598,-10.9979,0.5365,35.4087,-4.1043,7.7913
415,-0.2682,-11.4961,0.4982,36.8696,-4.5217,6.6087
420,-0.115,-11.9943,0.5748,38.0522,-5.1478,4.313
425,0.2299,-12.799,0.4598,39.5826,-6.0522,1.6
430,0.5365,-13.7953,0.3066,41.4609,-6.3304,-3.2696
435,0.6898,-14.6767,0.2299,44.6609,-5.4261,-7.7913
440,0.9963,-15.7113,-0.6898,46.9565,-3.1304,-13.8435
445,1.1879,-16.3245,-1.4562,47.0261,0.5565,-20.6609
450,1.4945,-16.4394,-2.4142,44.1043,5.9826,-28.9391
455,1.4945,-15.558,-3.2572,38.4,13.7739,-37.2174
460,1.1879,-14.2552,-3.3722,31.513,22.887,-44.1043
465,0.958,-12.3391,-3.2572,26.5043,32.2087,-47.3739
470,0.9197,-10.5381,-2.874,24.0,41.0435,-48.5565
475,0.8814,-9.3885,-2.4142,22.887,48.9043,-48.6957
480,0.7281,-7.7024,-2.1459,22.9565,56.0,-48.487
485,0.6131,-6.4378,-1.8394,24.487,64.3478,-47.3043
490,0.3449,-5.4415,-1.7244,26.9217,70.6087,-46.0522
495,0.1916,-4.9433,-1.1879,29.9826,75.8261,-44.0348
500,-0.0766,-4.7134,-1.3029,32.6957,79.8609,-42.2957
505,-0.2299,-4.79,-1.1113,34.0174,82.3652,-40.1391
510,-0.3066,-5.02,-1.1496,34.1565,83.1304,-37.9826
515,-0.4598,-5.4798,-0.9963,32.7652,81.9478,-35.2696
520,-0.7664,-6.2462,-1.073,30.4696,78.8174,-32.6957
525,-0.8814,-7.2042,-1.1496,27.2696,74.5739,-29.4957
530,-0.958,-8.0089,-1.073,23.9304,68.0348,-25.9478
535,-0.958,-9.2352,-0.9963,20.8696,62.4,-22.7478
540,-0.843,-9.9633,-1.0346,19.2,56.7652,-20.5913
545,-0.6514,-10.653,-0.9197,17.3913,51.2,-18.4348
550,-0.4982,-11.1895,-0.8814,15.8609,45.9826,-17.113
555,-0.4215,-11.6877,-0.9197,15.3043,41.7391,-15.8609
560,-0.2682,-11.9176,-0.958,15.4435,38.2609,-15.0957
565,-0.115,-11.9559,-1.1496,16.487,35.7565,-14.4
570,0.115,-11.9559,-1.2646,18.5043,34.2261,-14.2609
575,0.1533,-11.7643,-1.2263,21.287,34.0174,-14.2609
580,0.2299,-11.4578,-1.3412,24.7652,35.7565,-14.7478
585,0.4598,-11.3045,-1.4179,29.287,38.8174,-15.0261
590,0.3832,-10.9213,-1.4562,33.1826,42.713,-15.8609
595,0.5365,-10.6914,-1.3412,36.5913,47.1652,-16.3478
600,0.4215,-10.2315,-1.3029,39.4435,51.4087,-17.113
605,0.3449,-9.925,-1.1879,41.113,55.6522,-17.6
610,0.2299,-9.695,-1.073,42.2957,59.4087,-18.2261
615,0.0766,-9.1969,-0.8047,42.9217,62.6087,-18.4348
620,-0.1916,-9.0819,-0.4215,42.7826,65.2522,-18.713
625,-0.3449,-8.6987,-0.3449,42.5043,67.4087,-18.5043
630,-0.4598,-8.4688,-0.0766,42.2261,69.0783,-18.3652
635,-0.6131,-8.3155,-0.0383,42.087,69.7043,-17.7391
640,-0.843,-8.2389,0.1916,42.2261,70.1217,-17.3217
645,-0.9963,-8.3538,0.4982,42.4348,70.5391,-16.487
650,-0.9963,-8.5454,0.843,42.5043,70.9565,-15.9304
655,-1.1879,-8.6221,0.7281,42.8522,71.0957,-15.2348
660,-0.9197,-8.8903,0.6131,42.9913,71.3739,-14.8174
665,-0.9963,-8.967,0.6131,42.5739,71.7217,-14.4696
670,-0.6898,-9.2352,0.3832,41.3913,72.8348,-14.6783
675,-0.6131,-9.2735,0.0,39.2348,75.2,-15.6522
680,-0.3449,-9.5034,-0.1533,34.713,79.1652,-18.2261
685,-0.1916,-9.5418,-0.0766,29.9826,83.2,-20.6609
690,0.2299,-9.7717,-0.2682,24.9043,87.4435,-23.6522
695,0.5365,-9.9633,-0.0383,20.2435,91.5478,-26.713
700,0.0383,-10.0016,0.3066,16.6957,95.2348,-29.4957
705,0.8047,-9.9633,0.2682,17.8783,96.2783,-29.3565
710,1.073,-10.0016,0.0383,17.3217,100.1043,-31.6522
715,0.843,-10.0016,0.3066,16.487,104.0,-34.8522
720,0.7664,-9.8483,0.3066,17.6,106.4348,-37.3565
725,0.3066,-9.8866,0.5365,20.2435,108.5913,-39.513
730,0.0766,-9.925,0.6898,23.8609,111.2348,-41.1826
735,-0.3449,-9.9633,0.7664,26.6435,113.6,-42.3652
740,-0.6514,-9.9633,0.6898,28.7304,115.687,-43.1304
745,-0.843,-10.1549,0.8814,29.287,118.1913,-43.3391
750,-1.1113,-10.0782,0.8814,29.4957,120.1391,-43.4783
755,-1.1879,-10.0399,1.2263,29.4261,120.9043,-43.8261
760,-1.4179,-9.8483,1.3412,29.0783,120.0696,-43.6174
765,-1.3029,-9.925,1.3029,28.4522,118.4,-43.2
770,-1.1496,-9.8483,1.4945,27.7565,116.4522,-42.8522
775,-1.2263,-9.7334,1.5328,26.9913,114.0174,-42.4348
780,-0.9963,-9.5418,1.5328,27.2696,109.9826,-42.4348
785,-0.6898,-9.4268,1.6095,31.0957,104.5565,-40.5565
790,0.0383,-9.2735,1.1879,33.6696,102.0522,-40.6957
795,-0.1533,-9.0053,1.6478,30.9565,101.7043,-43.1304
800,-0.115,-8.8903,1.8777,29.1478,99.7565,-44.5217
805,-1.3029,-9.0053,2.9123,29.0783,97.4609,-45.7043
810,-0.115,-8.737,1.9543,31.9304,93.8435,-44.4522
815,0.1533,-8.9286,1.4562,32.2087,93.7043,-45.0783
820,0.0,-8.6987,1.7244,29.7739,94.9565,-46.5391
825,0.0383,-8.5454,1.4945,27.2,95.0261,-47.7913
830,0.3066,-8.5454,1.8011,24.2087,96.0696,-49.113
835,0.0,-8.4688,2.1076,22.6783,97.0435,-50.3652
840,-0.0383,-8.5071,2.4908,22.4696,97.4609,-50.8522
845,-0.2682,-8.5838,2.3759,22.4,98.2261,-51.3391
850,-0.1916,-8.6221,2.5291,21.3565,98.9217,-51.6174
855,-0.3449,-8.4305,2.4525,20.5217,99.7565,-51.8957
860,-0.1533,-8.4688,2.1459,19.4783,100.8696,-51.5478
865,-0.3066,-8.3538,2.1843,17.7391,102.0522,-51.687
870,-0.3066,-8.2005,1.7627,16.6957,102.8174,-51.7565
875,-0.1916,-8.0856,1.6861,15.0261,103.0261,-52.4522
880,-0.1533,-8.1239,1.916,13.0087,102.887,-53.0783
885,-0.2299,-8.2389,1.9927,11.7565,102.3304,-53.0783
890,-0.2299,-8.1239,2.0693,11.3391,101.287,-53.0783
895,-0.1533,-7.9706,2.1076,11.1304,99.8957,-53.3565
900,-0.3832,-8.0473,2.1843,10.9217,99.2,-53.2174
905,-0.4598,-7.9323,2.2992,10.7826,98.713,-53.0783
910,-0.4598,-7.779,2.4142,10.6435,98.2957,-53.0783
915,-0.4982,-7.779,2.3759,9.9478,97.8087,-53.6348
920,-0.6514,-7.6257,2.4142,8.6261,97.6,-53.2174
925,-0.7664,-7.4725,2.2226,7.1652,97.5304,-53.7043
930,-0.8047,-7.3958,2.2609,3.7565,97.8087,-53.3565
935,-0.6898,-7.4341,2.1843,0.6957,97.8087,-52.6609
940,-0.5748,-7.1659,2.0693,-2.2957,96.9739,-51.4087
945,-0.3449,-7.1659,1.9927,-5.3565,95.9304,-50.087
950,-0.1533,-7.0509,1.916,-8.6957,94.8174,-48.487
955,0.1533,-6.936,2.031,-12.1739,94.6087,-47.3739
960,-0.0383,-6.7444,1.8011,-14.2609,94.9565,-46.1217
965,0.1916,-6.6294,1.7627,-16.0696,95.8609,-44.5217
970,0.4982,-6.7444,1.7244,-17.3913,97.8783,-42.4348
975,0.5748,-6.9743,1.8011,-17.2522,100.4522,-40.0
980,0.2299,-6.8593,1.3795,-15.5826,101.6348,-38.1217
985,0.1533,-6.8977,1.3029,-14.887,102.3304,-36.6609
990,-0.0383,-7.0509,1.0346,-14.5391,104.3478,-34.5739
995,-0.3066,-7.2425,1.1879,-14.1217,106.9217,-32.487
1000,-0.4215,-7.4341,1.3412,-12.9391,109.1478,-30.3304
1005,-0.5748,-7.3958,1.4562,-11.3391,111.0957,-28.8696
1010,-1.1113,-7.3958,1.5328,-9.7391,111.9304,-27.6174
1015,-1.4945,-7.5491,1.7244,-8.2087,111.4435,-26.7826
1020,-1.7244,-7.4725,1.5711,-7.2348,109.5652,-26.0174
1025,-1.9927,-7.2809,1.3412,-7.0261,107.7565,-25.8783
1030,-1.916,-7.2425,1.3795,-7.7913,107.2,-25.5304
1035,-1.7627,-7.0893,1.2263,-8.9043,107.9652,-25.2522
1040,-1.1496,-7.0126,1.3795,-10.7826,110.1217,-24.7652
1045,-1.073,-6.936,1.1113,-13.287,112.2783,-25.6696
1050,-0.843,-6.5145,1.1496,-16.9043,112.9043,-26.3652
1055,-0.6898,-6.3229,1.4945,-20.5913,113.8783,-26.5739
1060,-0.4598,-6.1313,1.4562,-23.1652,115.687,-25.8783
1065,-0.3066,-5.9396,1.6478,-24.9043,118.0522,-24.7652
1070,0.1533,-5.7864,1.6095,-26.7826,120.2087,-23.1652
1075,0.5365,-5.6331,1.4562,-29.7043,122.713,-21.6348
1080,0.7281,-5.748,1.3029,-31.9304,125.0087,-19.2
1085,0.9963,-5.1732,0.5365,-34.9913,129.7391,-15.6522
1090,1.1496,-5.4032,0.5748,-38.0522,136.5565,-10.9913
1095,0.9963,-5.2499,0.3449,-37.7043,141.4261,-7.6522
1100,0.843,-5.4032,0.6131,-38.2609,144.2087,-4.8696
1105,0.8814,-4.9816,-0.2299,-38.4,146.8522,-3.2696
1110,0.958,-4.9433,-0.4598,-40.6957,151.4435,0.2087
1115,0.4215,-4.9816,-0.7664,-43.687,158.0522,3.0609
1120,0.115,-5.0583,-0.5748,-45.4957,164.7304,6.7478
1125,-0.1916,-4.7517,-0.7281,-45.8435,169.0435,9.113
1130,0.0,-4.6368,-1.073,-47.4435,170.9217,10.8522
1135,-0.4598,-3.6787,-2.3759,-49.8783,173.9826,11.687
1140,-0.6131,-3.7554,-1.7627,-56.9739,183.7913,19.8261
1145,-0.9197,-3.832,-1.6478,-59.2696,187.687,23.0261
1150,-0.8814,-3.0273,-2.2226,-58.2957,187.7565,20.7304
1155,-1.6478,-3.3722,-1.3029,-61.7739,192.1391,22.3304
1160,-2.4525,-3.5255,-0.8814,-65.113,196.5913,26.1565
1165,-1.9927,-3.1423,-0.9197,-66.1565,194.5043,20.7304
1170,-4.3302,-2.7591,-0.6898,-68.6609,196.5913,13.9826
1175,-3.0656,-2.7974,-0.6514,-74.713,189.7043,18.087
1180,-3.6021,-2.9507,-0.4215,-77.0783,180.5913,16.0696
1185,-3.832,-2.9507,-1.4179,-78.0522,170.7826,10.4348
1190,-4.905,-3.2572,-0.958,-82.1565,162.6435,6.5391
1195,-4.8284,-3.2572,-0.9963,-84.313,153.0435,3.5478
1200,-3.947,-3.7171,-1.2263,-83.7565,143.513,-0.4174
1205,-4.6751,-3.3339,-0.8814,-82.3652,135.3043,-5.6348
1210,-4.5984,-3.5638,-0.7281,-82.3652,126.1217,-8.2783
1215,-4.6751,-3.5638,-0.5365,-82.9217,117.5652,-10.3652
1220,-4.3302,-3.7171,-0.4215,-83.5478,104.9739,-10.8522
1225,-3.9087,-3.6787,-0.6131,-83.6174,95.7217,-12.7304
1230,-3.832,-3.6404,-0.8814,-84.1043,90.1565,-14.3304
1235,-2.6441,-3.8704,-0.958,-84.3826,87.1652,-15.5826
1240,-1.2646,-4.3685,-1.0346,-84.6609,89.9478,-19.8957
1245,-3.2955,-3.7554,-0.6898,-85.4261,94.6087,-25.4609
1250,-1.8011,-4.4068,-0.4982,-89.7391,88.0696,-23.2348
1255,-0.6131,-4.9433,-0.0766,-89.8087,82.087,-23.3043
1260,-1.4179,-4.5601,-0.5365,-85.6348,81.2522,-26.2957
1265,-1.1879,-4.062,-0.9197,-82.9217,82.0174,-27.9652
1270,-0.5748,-3.9853,-0.8814,-83.6174,81.5304,-27.2696
1275,0.6514,-4.6368,-0.7281,-83.8261,85.2174,-28.8696
1280,0.0766,-4.0236,-0.9963,-80.487,91.1304,-30.3304
1285,0.3449,-4.2152,-0.9197,-80.2783,92.4522,-30.6783
1290,0.6514,-4.2536,-1.1879,-79.5826,92.2435,-32.0
1295,0.3449,-4.4452,-1.2263,-78.3304,92.5217,-35.7565
1300,-0.4982,-4.5984,-1.1113,-76.0348,91.8261,-39.5826
1305,-1.0346,-4.9433,-1.2263,-74.5739,88.8348,-42.8522
1310,-1.4179,-5.2116,-1.1879,-72.7652,83.9652,-46.3304
1315,-1.916,-5.7097,-1.073,-69.9826,78.6087,-52.5913
1320,-2.4908,-5.978,-1.0346,-64.1391,71.7913,-58.0174
1325,-2.8357,-6.0929,-1.1113,-59.5478,67.3391,-62.6087
1330,-2.874,-6.1313,-1.3795,-56.7652,63.2348,-66.9913
1335,-2.9507,-6.2845,-1.3412,-56.6957,60.0348,-72.487
1340,-2.9507,-6.1313,-1.2263,-56.9739,57.0435,-77.9826
1345,-2.8357,-6.0546,-0.9963,-57.8087,54.1913,-83.3391
1350,-2.6058,-5.7864,-1.3412,-57.113,51.6174,-88.3478
1355,-2.031,-5.2882,-1.5711,-56.9043,49.0435,-93.4261
1360,-1.3412,-4.8667,-2.0693,-58.5043,45.913,-98.713
1365,-0.7664,-4.6751,-2.1076,-62.8174,42.7826,-105.113
1370,-0.4598,-4.5984,-2.5675,-69.3565,37.2174,-111.3739
1375,-0.2299,-4.6751,-2.989,-75.8261,32.3478,-117.9826
1380,-0.0383,-4.9816,-3.3339,-82.8522,27.8957,-124.9391
1385,0.4598,-5.2116,-3.7937,-90.087,23.0261,-133.3565
1390,0.958,-5.5181,-4.0236,-98.713,18.9217,-142.8174
1395,1.5711,-6.0929,-4.8284,-108.3826,16.1391,-153.7391
1400,2.2992,-6.8593,-4.7134,-120.0696,15.7913,-164.6609
1405,2.6824,-7.8557,-4.2919,-130.1565,16.5565,-176.487
1410,3.1806,-8.5838,-4.3302,-134.0522,18.087,-187.8957
1415,3.9853,-8.8903,-4.0236,-133.8435,21.7739,-199.7217
1420,4.6751,-8.737,-3.7937,-129.8783,27.8261,-207.7913
1425,5.5948,-8.7754,-3.3339,-127.1652,33.6696,-215.7217
1430,6.8593,-8.3155,-3.5255,-127.7913,39.1652,-224.2087
1435,8.1622,-8.4305,-2.4525,-132.5217,45.7043,-232.9739
1440,9.2735,-8.6221,-1.9927,-136.5565,51.8261,-238.6783
1445,11.1129,-9.0819,-1.1496,-134.8174,59.8957,-241.6
1450,12.3775,-9.9633,-1.6095,-125.0087,72.1391,-245.0783
1455,13.9869,-11.9176,-3.2955,-110.1217,86.4696,-249.6
1460,14.7533,-14.3318,-4.1769,-95.0261,101.8435,-258.2957
1465,15.788,-17.8956,-5.0966,-75.4783,122.9217,-269.7739
1470,16.4777,-21.4211,-6.8593,-51.0609,143.7913,-282.6435
1475,19.2751,-25.9429,-8.1239,-32.487,166.7478,-295.6522
1480,23.6436,-32.6872,-9.925,-12.2435,199.1652,-312.5565
1485,30.3497,-43.1487,-10.3082,17.113,244.6609,-336.9739
1490,38.7418,-60.8527,-5.6714,79.7913,309.6348,-366.6087
1495,48.5135,-78.5566,-4.062,208.4174,381.3565,-406.3304
1500,53.4952,-80.9325,-11.7643,372.1043,389.7739,-466.1565
1505,49.8164,-67.9802,-13.3355,482.9913,282.9217,-512.5565
1510,39.4699,-47.7854,-12.1092,502.8174,130.087,-491.6174
1515,20.578,-27.8205,-5.9396,390.4696,28.1739,-401.1826
1520,1.6861,-14.2935,3.7937,161.113,1.3913,-288.1391
1525,-10.0399,-6.7827,15.0216,-26.0174,-13.5652,-177.0435
1530,-13.642,-0.9963,24.6016,-193.1826,-34.3652,-120.9043
1535,-4.2919,-3.0273,21.536,-298.713,-51.9652,-155.2696
1540,-2.031,-5.8247,14.7533,-264.8348,-3.7565,-264.4174
1545,-0.7281,-12.7223,-6.4761,-118.8174,117.6348,-344.1391
1550,-21.651,-9.0053,-20.3864,12.2435,305.0435,-363.2696
1555,6.7444,4.062,-8.6604,15.3043,451.6174,-300.8
1560,18.662,13.1822,16.0562,-41.8087,472.487,-249.8087
1565,19.4284,14.6,6.1696,-45.7739,305.3913,-226.3652
1570,3.5638,11.3811,10.2315,-18.0174,149.9826,-186.5739
1575,-2.2226,5.5948,16.5161,1.8087,46.887,-171.5478
1580,-2.7207,2.6058,13.1439,40.2783,-2.087,-176.9739
1585,-5.6714,-2.989,14.0636,73.3217,-26.2261,-187.7565
1590,0.4982,-6.1313,-9.7717,110.1217,-83.0609,-180.313
1595,0.115,-10.1549,-3.9087,108.7304,-83.2696,-176.0
1600,0.2299,-7.9323,-1.5711,105.113,-68.9391,-180.313
1605,3.1039,-7.5874,-6.3612,108.1739,-78.6087,-183.4435
1610,3.7171,-7.5108,-11.8027,93.4957,-77.287,-194.9217
1615,2.3759,-6.6677,-12.0326,44.0348,-35.6174,-211.8261
1620,0.958,-7.2809,-4.9816,0.2087,1.9478,-227.4783
1625,1.4179,-7.2425,-0.9197,-2.2957,34.7826,-234.5739
1630,3.7171,-6.5145,1.4945,15.3739,58.1565,-233.5304
1635,7.2425,-5.0583,1.7627,40.3478,73.6696,-227.9652
1640,7.3192,-2.6441,0.0,60.3826,75.9652,-223.3043
1645,9.0436,-0.9963,0.4598,61.9826,51.8261,-215.9304
1650,10.3848,0.5365,0.4598,62.6783,27.0609,-206.1217
1655,10.1549,1.3029,0.7281,73.4609,22.0522,-204.3826
1660,11.4578,3.0656,0.4215,95.1652,28.6609,-202.3652
1665,11.4961,3.7171,-0.6898,125.0783,44.5217,-207.7913
1670,13.3738,3.8704,-0.1533,140.0348,53.3565,-212.1739
1675,12.0326,7.1659,0.4982,141.4957,63.0957,-218.6435
1680,12.9139,6.4378,1.4562,134.6087,66.2261,-228.8
1685,16.0179,8.3155,1.6478,139.6174,69.7043,-248.1391
1690,16.3245,8.7754,1.916,139.6174,71.3043,-270.2609
1695,16.0562,10.8446,2.2609,135.0261,80.9043,-285.4957
1700,16.0945,11.3811,2.2609,121.6696,99.0609,-294.7478
1705,15.1365,10.4231,1.9543,100.3826,118.1913,-300.313
1710,14.2552,10.3848,1.5328,78.6087,134.3304,-302.7478
1715,13.4504,10.1549,3.1039,52.3826,145.6696,-302.4696
1720,12.9139,10.653,4.1003,29.0087,160.6957,-295.1652
1725,12.6074,11.1129,4.905,10.087,168.3478,-282.3652
1730,13.3738,11.5727,6.1696,-2.5739,162.087,-267.0609
1735,18.0105,12.3008,7.894,-10.9913,144.487,-250.2957
1740,23.3754,12.684,8.967,-17.1826,134.7478,-234.6435
1745,25.483,12.4541,8.0856,-15.3043,132.0348,-205.8435
1750,28.357,11.3811,7.1276,-9.113,117.7739,-152.1391
1755,29.8132,10.768,4.3302,15.8609,74.0174,-92.7304
1760,28.7019,10.6914,-0.5748,41.3913,6.9565,-27.8261
1765,26.4793,9.5034,-3.1423,61.8435,-38.4696,17.3217
1770,22.2258,8.5454,-4.9433,73.6,-63.5826,49.2522
1775,17.6657,7.2809,-4.4068,76.5913,-72.2087,69.3565
1780,12.6457,5.1349,-2.1076,66.6435,-68.313,80.5565
1785,9.5034,3.4105,0.6898,46.887,-53.913,86.4
1790,7.5108,0.6131,3.4488,22.6783,-28.313,87.8609
1795,6.2079,-2.5675,4.9433,2.2261,4.8696,85.2174
1800,5.6331,-5.2882,4.9433,-10.2261,34.7826,75.687
1805,5.7864,-7.0509,4.062,-13.8435,60.1739,62.4696
1810,5.5564,-7.9706,2.1459,-8.1391,89.6696,43.8957
1815,5.02,-7.0509,-0.1916,3.2696,113.8087,26.9913
1820,4.2919,-4.7134,-1.8011,7.2348,135.5826,10.5739
1825,4.1386,-3.3339,-2.5675,10.087,151.6522,-0.7652
1830,3.6787,-1.4945,-2.7591,19.3391,162.1565,-9.7391
1835,3.3722,-0.2299,-1.5711,35.5478,167.1652,-13.8435
1840,2.4142,1.1496,-1.1879,57.3913,165.2174,-12.1043
1845,2.5675,3.4871,0.0766,78.8174,155.9652,-8.487
1850,2.3375,5.5564,0.6898,96.9043,142.1217,-6.5391
1855,1.6478,7.2042,1.9927,108.0348,127.8609,-4.2435
1860,2.1843,9.1202,3.2189,109.287,115.2696,-2.3652
1865,2.1459,10.8446,3.5638,98.5739,112.2783,-2.0174
1870,2.2609,11.0746,4.5984,77.0783,115.687,-5.4957
1875,2.6824,9.695,5.4798,48.6957,119.5826,-10.9913
1880,3.1423,7.7407,6.5145,21.1478,119.5826,-15.1652
1885,3.3339,5.5181,8.0089,0.9739,115.6174,-16.487
1890,4.2152,4.2536,8.5454,-10.5739,108.7304,-17.2522
1895,4.8284,2.7974,8.6604,-16.0696,104.6261,-16.487
1900,4.8284,2.1076,8.9286,-19.0609,102.9565,-13.8435
1905,5.5181,1.3795,9.0053,-22.1913,98.7826,-5.6348
1910,5.9396,1.5328,9.4268,-25.2522,89.4609,2.8522
1915,5.9396,1.8394,9.1586,-23.3043,79.3043,11.2
1920,6.3995,1.7244,8.5454,-20.4522,65.7391,20.313
1925,7.4341,1.8394,8.737,-17.113,51.8957,28.1043
1930,7.3575,2.2609,8.0089,-9.5304,38.887,33.6696
1935,7.5874,2.4525,7.2425,3.2696,28.0348,39.4435
1940,7.9323,2.4908,6.4761,18.2261,18.9217,46.1913
1945,7.6257,3.1423,6.2462,34.0174,11.6174,53.913
1950,7.5491,3.4488,5.5948,45.6348,5.4957,59.4087
1955,7.2809,3.6021,5.5181,51.8261,2.5739,64.9043
1960,6.5911,3.5638,5.2882,57.2522,0.8348,69.4957
1965,5.7864,3.4105,4.9433,60.3826,1.2522,76.0348
1970,6.0163,3.2572,5.1732,61.4261,1.7391,83.0609
1975,6.7827,2.5291,5.0583,61.0783,2.5739,87.9304
1980,6.8977,2.5675,5.3265,66.8522,6.7478,92.1739
1985,6.7827,2.7974,5.1732,74.713,9.8783,95.9304
1990,6.3995,3.4105,4.9816,79.3043,11.1304,97.8087
1995,7.3192,2.874,4.2536,74.9913,8.8348,99.0609
2000,6.7444,3.1039,4.4068,69.287,9.6696,100.6609
2005,6.9743,3.0273,3.947,58.9217,7.0261,102.6087
2010,7.1276,2.6824,3.8704,46.5391,5.287,101.913
2015,7.0509,2.4908,4.1769,42.087,8.0,104.1391
2020,7.4725,2.2992,3.7171,36.7304,10.2957,105.113
2025,6.6294,3.1423,3.7171,27.2,10.5043,104.2087
2030,6.2845,2.6058,3.7937,12.5913,7.2348,101.9826
2035,7.0509,2.5291,3.5255,1.6,5.287,101.287
2040,5.4798,3.7171,3.7937,-6.6087,8.4174,101.2174
2045,6.2462,3.4871,4.1386,-16.0,8.487,100.6609
2050,5.6714,2.6824,4.3685,-19.6174,9.8087,103.2348
2055,5.4415,3.1423,4.4068,-16.9043,9.7391,106.9217
2060,6.5528,3.1039,4.6751,-14.0522,6.9565,108.3826
2065,7.4341,3.0273,4.5218,-16.9043,4.8696,110.7478
2070,7.2042,2.1459,4.905,-24.8348,1.3913,111.3739
2075,7.5108,2.0693,5.2116,-27.9652,-2.713,110.2609
2080,9.0053,1.8777,5.3648,-26.9913,-3.6174,108.4522
2085,12.0326,0.8047,5.7097,-29.3565,-2.0174,105.3217
2090,10.4614,0.9197,5.748,-34.1565,1.6696,99.8957
2095,11.2662,0.4215,5.9013,-37.1478,-0.4174,96.3478
2100,11.5344,-0.115,6.0546,-37.6348,-1.4609,91.4783
2105,10.9213,0.1916,5.9396,-34.4348,-1.4609,83.0609
2110,10.653,0.7281,5.5181,-29.3565,-3.5478,74.9913
2115,10.7297,0.9963,5.1349,-27.5478,-6.4,69.0087
2120,10.2315,1.5328,4.8667,-27.4783,-9.6696,63.7217
2125,9.9633,1.5711,4.7517,-27.9652,-14.3304,59.7565
2130,8.3155,1.6478,4.79,-24.6261,-19.4087,55.4435
2135,8.9286,1.916,4.6751,-17.0435,-26.9217,49.2522
2140,10.4231,0.9197,5.02,-7.3739,-32.9739,44.1043
2145,10.9596,0.115,5.7097,1.4609,-32.4174,40.0
2150,9.5801,-1.0346,6.5528,12.1739,-31.2348,34.5043
2155,9.3118,-1.9543,7.3575,22.2609,-30.4696,31.513
2160,7.0126,-0.7664,7.6641,29.8435,-34.8522,23.7217
2165,7.8557,-1.2263,8.8903,28.0348,-44.1739,22.6783
2170,8.3921,-0.8814,10.1932,25.2522,-51.5478,21.5652
2175,8.0856,-0.6131,11.0363,22.3304,-61.7043,20.1739
2180,7.5108,-0.7281,10.883,21.287,-75.2,17.7391
2185,7.2425,-0.7664,10.4231,23.3043,-93.7043,14.6087
2190,6.5145,-1.4179,9.9633,30.4696,-110.7478,12.6609
2195,5.9396,-2.031,9.5034,43.8261,-125.9826,11.687
2200,6.0546,-3.5255,8.967,58.2261,-139.1304,11.8957
2205,6.2079,-4.5984,8.3155,72.487,-151.5826,12.3826
2210,5.7097,-4.9433,7.2425,92.4522,-160.1391,12.1739
2215,4.79,-4.4835,5.7097,107.0609,-167.3043,8.1391
2220,4.4835,-3.8704,4.4452,117.8435,-171.3391,1.0435
2225,4.9816,-3.4105,2.7974,125.5652,-169.5304,-6.6087
2230,5.6714,-2.5291,1.4562,130.087,-161.2522,-13.7739
2235,5.978,-2.031,0.4982,132.0348,-150.2609,-17.8087
2240,6.5911,-1.8011,-0.4598,131.6174,-137.9478,-18.713
2245,7.2425,-1.1879,-1.4945,128.6957,-123.2696,-18.0174
2250,8.0473,0.0383,-2.2609,122.4348,-105.0435,-15.7913
2255,8.6987,1.2646,-2.7974,112.9739,-80.7652,-9.8087
2260,9.0053,1.9543,-2.6824,95.9304,-61.3565,-3.9652
2265,9.81,3.7937,-2.1843,79.7217,-43.6174,2.2261
2270,11.2279,4.905,-1.916,60.8696,-26.2261,8.4174
2275,12.1475,5.2882,-1.3412,43.4087,-7.8609,14.4696
2280,12.9139,4.8667,-0.9197,28.0348,9.2522,19.2696
2285,13.6804,3.9087,-0.5365,14.4,23.2348,23.0261
2290,14.3318,2.4142,-0.0766,3.687,35.7565,24.7652
2295,15.2515,1.0346,0.3066,-2.6435,45.7739,24.2783
2300,15.1748,-0.0766,0.4215,-4.5913,53.0087,20.8696
2305,14.6,-1.3412,0.7664,-3.2,54.6087,14.2609
2310,14.1785,-2.2992,0.4982,0.5565,50.5043,9.0435
2315,12.799,-2.7207,0.1533,2.7826,43.7565,4.4522
2320,11.7643,-2.8357,-0.1533,3.4087,34.713,1.7391
2325,10.9213,-2.874,-0.2299,3.4087,27.2,1.8087
2330,10.0399,-2.6058,-0.2299,2.7826,20.8,2.7826
2335,9.3502,-2.4908,-0.3066,1.113,15.3739,3.4087
2340,8.6221,-2.0693,-0.4982,-1.2522,9.6,4.5217
2345,8.3921,-2.2226,-0.843,-2.9913,4.8696,7.0261
2350,7.9323,-2.031,-0.9197,-3.5478,2.087,9.8783
2355,8.0089,-1.9927,-1.4945,-3.2,0.6261,13.913
2360,7.8557,-1.9927,-1.7244,-2.5739,0.0696,16.0696
2365,7.6641,-1.9543,-1.5711,-1.5304,0.4174,16.5565
2370,7.7407,-1.6095,-1.5711,-1.1826,0.0,16.4174
2375,7.8557,-1.5328,-1.3029,-0.4174,-0.6261,16.0696
2380,8.6221,-1.4179,-1.0346,1.113,0.3478,15.513
2385,9.3885,-1.2646,-0.3832,2.2957,5.3565,15.1652
2390,10.2698,-1.1879,0.0766,2.9913,12.8696,15.0261
2395,10.9213,-1.073,0.5748,3.4783,20.1739,13.7043
2400,11.0746,-0.8814,0.9963,4.0348,27.4087,12.1043
2405,11.2279,-0.6514,1.7627,4.313,36.313,9.8087
2410,11.3811,-0.5748,1.916,3.687,42.8522,7.1652
2415,11.4195,-0.2299,2.4908,1.8087,48.6957,4.5217
2420,11.2662,-0.115,2.6824,-0.4174,52.2435,1.6
2425,11.4578,-0.0383,2.874,-2.5739,53.1478,-1.0435
2430,11.3811,0.115,3.0656,-5.1478,52.8696,-3.1304
2435,11.2662,0.1916,3.1039,-7.1652,50.8522,-5.0087
2440,11.1129,0.1916,3.2189,-8.7652,48.0,-6.4696
2445,10.883,0.0383,3.3339,-10.087,45.0087,-7.513
2450,10.7297,0.0766,3.1039,-11.0609,42.087,-7.9304
2455,10.4231,-0.0383,3.0656,-12.4522,38.7478,-8.0
2460,10.1166,-0.0766,3.0273,-14.0522,36.3826,-7.7913
2465,9.695,-0.0383,2.9123,-15.8609,34.4348,-7.513
2470,9.5418,-0.1533,2.7974,-17.1826,33.0435,-7.2348
2475,9.4651,-0.2299,2.7974,-18.2957,31.7913,-7.0261
2480,9.3118,-0.3449,2.7207,-18.8522,31.0261,-6.6087
2485,9.3118,-0.5365,2.7207,-19.3391,30.4696,-6.1217
2490,9.1969,-0.4215,2.7207,-19.3391,30.6087,-5.3565
2495,9.0436,-0.2682,2.7207,-18.7826,31.1652,-4.5913
2500,8.8903,-0.3832,2.7974,-18.0174,31.8609,-3.0609
2505,8.8137,-0.3449,2.7974,-16.8348,33.3217,-1.3913
2510,9.1586,-0.2682,2.5675,-15.8609,34.5739,0.1391
2515,9.4651,-0.115,2.6058,-15.3739,35.9652,0.487
2520,9.6567,-0.1533,2.5291,-14.9565,38.0522,0.0696
2525,9.6184,-0.1533,2.7207,-14.4696,40.487,-0.3478
2530,9.5801,-0.1533,2.6058,-14.6087,42.8522,0.2783
2535,9.5418,-0.4215,2.7207,-15.5826,45.1478,1.6
2540,9.3502,-0.4598,2.6058,-17.6,47.1652,2.9913
2545,9.3502,-0.5365,2.8357,-20.8696,48.8348,3.5478
2550,9.3502,-0.6514,2.9123,-24.3478,50.3652,3.9652
2555,9.3502,-0.9963,3.1039,-27.8261,51.687,4.1739
2560,9.2352,-1.0346,3.4871,-29.7043,52.2435,4.9391
2565,9.0819,-1.1113,3.6404,-30.3304,52.2435,5.1478
2570,8.9286,-1.2646,3.9087,-30.4,52.1739,5.7043
2575,8.8137,-0.958,3.947,-28.9391,51.4087,5.4957
2580,8.4688,-0.9963,4.2536,-26.9217,50.4348,5.4261
2585,8.4305,-0.958,4.5218,-24.9739,49.4609,6.0522
2590,8.3921,-0.7281,4.7517,-22.1217,47.0261,6.1217
2595,8.3538,-0.5365,4.905,-18.7826,44.2435,5.2174
2600,8.2005,-0.4215,5.02,-15.5826,41.6696,5.0087
2605,8.4305,-0.3832,5.02,-11.8261,39.0261,5.3565
2610,8.5454,-0.6514,5.3265,-9.9478,37.2174,7.1652
2615,8.5071,-0.9963,5.2116,-8.8348,35.4783,10.4348
2620,8.6221,-0.8814,5.2882,-7.1652,31.3739,11.8261
2625,8.5454,-0.7664,5.2116,-6.0522,26.4348,10.5043
2630,8.5454,-0.4598,5.0966,-5.3565,22.4,8.6957
2635,8.737,-0.3832,5.1349,-5.0783,19.7565,7.3043
2640,8.9286,-0.5748,5.0583,-5.7043,18.7826,8.0
2645,8.6221,-0.7664,4.9816,-7.1652,17.8087,9.9478
2650,8.6604,-0.7664,4.8667,-8.487,13.9826,10.2261
2655,8.3538,-0.6514,4.79,-9.9478,11.1304,8.6957
2660,8.3538,-0.3832,4.5601,-9.6,9.0435,7.1652
2665,8.4688,-0.4598,4.7134,-8.9739,8.4174,6.887
2670,8.4305,-0.6131,4.4835,-6.887,7.7217,7.513
2675,8.0473,-0.3066,4.4452,-4.6609,5.0087,7.4435
2680,7.8557,-0.2299,4.4452,-2.087,2.0174,7.3739
2685,8.1622,-0.1533,4.2536,0.5565,-0.1391,6.6087
2690,8.5838,-0.1533,4.4452,2.2957,0.1391,6.1217
2695,9.0819,-0.2299,4.7134,3.4087,2.9913,6.6783
2700,8.1239,-0.7664,4.5218,3.0609,6.3304,10.8522
2705,8.2005,-0.5748,4.1769,1.5304,3.9652,10.8522
2710,8.0089,-0.4982,4.2536,0.0696,2.5043,9.0435
2715,8.2005,-0.3832,4.2536,0.0,2.087,6.5391
2720,8.3921,-0.0383,3.9087,0.1391,3.1304,5.4957
2725,9.0819,-0.5748,4.4835,1.1826,4.8696,5.3565
2730,10.2315,-0.9963,4.4068,2.2957,8.0696,7.1652
2735,8.6221,-1.2263,4.1386,2.087,10.1565,9.6
2740,8.4688,-0.6898,3.7937,1.6696,7.9304,10.2261
2745,8.2005,-0.4982,3.8704,0.9739,5.913,8.2087
2750,8.3155,-0.115,4.1769,1.4609,3.4783,5.2174
2755,8.5838,-0.1916,3.9853,3.6174,2.2957,3.9652
2760,8.852,-0.2299,4.1769,6.2609,1.2522,4.3826
2765,9.3502,-0.4982,3.9853,8.8348,0.7652,5.4261
2770,10.1549,-1.1113,4.2152,10.1565,1.3217,7.8609
2775,8.8137,-0.9197,4.1003,11.0609,2.6435,9.2522
2780,9.1202,-0.7281,4.2536,11.687,1.3913,9.2522
2785,8.4305,-0.6131,4.2152,12.0348,1.7391,8.9043
2790,8.6221,-0.4215,4.2536,11.3391,1.2522,8.6957
2795,9.1202,-0.5365,4.2919,10.7826,0.9043,8.0696
2800,9.2735,-0.7281,4.1386,10.3652,2.0174,7.8609
2805,9.0819,-0.843,4.0236,10.2957,2.3652,7.7913
2810,9.1969,-0.958,4.0236,10.2957,2.2957,8.0
2815,9.0436,-1.1113,3.9087,10.5043,2.8522,7.5826
2820,9.1969,-1.1113,4.0236,11.1304,3.2696,7.5826
2825,9.0053,-0.843,3.8704,12.0348,3.5478,7.2348
2830,9.0436,-0.9197,3.947,13.3565,3.8957,7.0957
2835,8.8903,-0.8047,3.6404,14.8174,4.2435,6.7478
2840,8.7754,-0.6898,3.7171,15.7217,4.3826,6.887
2845,8.4305,-0.4982,3.7171,15.9304,4.2435,6.6783
2850,8.3155,-0.3832,3.8704,15.513,3.5478,6.6087
2855,8.3155,-0.2299,3.9853,14.6783,2.3652,5.9826
2860,8.1239,-0.2682,3.832,13.6348,0.9739,5.6348
2865,7.9706,0.0,3.9853,12.2435,-0.9043,4.7304
2870,7.894,-0.1533,3.947,10.7826,-3.1304,3.8261
2875,8.2772,-0.0383,3.947,9.9478,-5.7043,2.0174
2880,8.737,-0.0383,3.7937,8.3478,-6.887,1.113
2885,9.0819,-0.2299,3.7554,6.6087,-7.0957,0.0696
2890,9.1969,-0.2682,3.7937,5.1478,-6.6783,-0.8348
2895,9.2352,-0.4215,3.7937,3.8957,-6.0522,-2.2957
2900,9.2735,-0.4598,3.7171,2.3652,-4.7304,-3.2
2905,9.0436,-0.3066,3.7171,1.1826,-3.2,-4.2435
2910,9.0436,-0.3066,3.6787,0.0696,-1.7391,-4.9391
2915,9.0053,-0.4215,3.6787,-0.9043,-0.2087,-6.0522
2920,9.0819,-0.6131,3.7171,-1.4609,0.9739,-6.3304
2925,9.0436,-0.6898,3.6787,-1.6696,1.6,-6.8174
2930,9.0436,-0.7281,3.6787,-1.8087,2.0174,-6.887
2935,9.1586,-0.8814,3.5255,-1.8783,2.5739,-7.2348
2940,9.1586,-0.8814,3.4871,-1.7391,2.8522,-7.3043
2945,9.2352,-0.8814,3.4871,-1.4609,3.0609,-7.513
2950,9.1202,-0.8814,3.5638,-1.113,3.2,-7.3739
2955,9.0436,-0.7664,3.4488,-0.4174,3.0609,-7.5826
2960,9.0436,-0.843,3.4871,-0.0696,2.9913,-7.1652
2965,8.967,-0.7281,3.6021,0.0,3.1304,-7.2348
2970,8.9286,-0.5365,3.7937,-0.0696,3.0609,-6.9565
2975,9.0819,-0.6131,3.7554,-0.0696,3.0609,-7.0261
2980,9.0819,-0.6514,3.7554,-0.0696,3.1304,-6.8174
2985,9.0436,-0.4982,3.6404,-0.2783,3.2696,-6.887
2990,8.967,-0.4598,3.7554,-0.487,3.4087,-6.6087
2995,8.967,-0.5365,3.6404,-0.9739,3.5478,-6.4696
