timestamp,accX,accY,accZ,gyroX,gyroY,gyroZ
0,-0.2299,-2.7591,-33.0704,-110.9565,-9.8783,19.9652
5,-2.5291,-6.8977,-34.0668,-184.6957,-8.9739,36.0348
10,-5.1349,-14.2168,-25.6363,-235.1304,-4.9391,55.3043
15,-5.5948,-21.8043,-10.768,-234.0174,4.8,93.7739
20,-1.6095,-27.0541,4.2152,-180.7304,11.4087,142.887
25,1.2646,-29.0468,8.4305,-84.0348,-4.6609,170.7826
30,0.0766,-27.1308,5.3265,14.7478,-38.6087,163.687
35,0.6131,-23.7586,-4.6751,74.7826,-63.513,133.913
40,2.5291,-22.2258,-11.5344,75.687,-68.2435,92.6609
45,3.4488,-21.9959,-12.6457,38.0522,-57.2522,44.5217
50,4.6368,-22.0725,-11.1129,5.8435,-32.9739,-3.2696
55,5.4798,-20.5014,-9.2735,2.7826,-0.2783,-46.887
60,6.6294,-16.3245,-7.6641,28.9391,33.8087,-75.9652
65,6.1696,-12.4924,-6.3995,66.1565,62.6783,-87.0957
70,4.0236,-9.6184,-5.2882,96.0696,81.2522,-83.6174
75,1.073,-7.779,-4.4835,108.1043,87.0957,-74.0174
80,-1.7244,-7.1659,-3.947,103.7217,83.0609,-66.9913
85,-5.3648,-6.4378,-3.7937,88.6957,73.2522,-64.3478
90,-8.1622,-6.7061,-3.4488,68.5217,61.7739,-63.0261
95,-10.7297,-7.2425,-3.8704,47.8609,50.0174,-61.1478
100,-11.8027,-8.2772,-4.062,27.8261,35.7565,-58.4348
105,-10.7297,-9.6567,-4.5218,10.0174,19.3391,-57.6
110,-8.1239,-11.5344,-4.4835,-6.887,5.0783,-62.1217
115,-5.7097,-13.3738,-3.832,-20.9391,-3.2696,-72.0696
120,-3.4105,-15.7113,-2.6441,-31.0261,-7.6522,-85.8435
125,-1.4179,-17.0525,-1.8777,-36.2435,-10.5043,-98.5739
130,0.958,-18.6237,-1.2646,-36.7304,-11.0609,-107.4783
135,3.2955,-20.2331,-1.1879,-35.7565,-8.6957,-112.2783
140,5.02,-21.1911,-0.4598,-34.2261,-5.0783,-116.4522
145,6.2845,-21.4211,-0.4982,-29.2174,-2.4348,-119.0261
150,6.936,-21.6127,0.0766,-21.9826,-1.5304,-119.8609
155,7.9323,-20.9229,0.2299,-13.5652,-1.113,-118.5391
160,8.0089,-19.6966,-0.2682,-6.1913,-0.3478,-115.3391
165,7.4341,-18.6237,-0.4598,-0.6261,2.9913,-107.4087
170,6.3229,-17.3591,-1.2263,4.5913,8.4174,-94.3304
175,5.0583,-15.788,-1.4562,8.5565,16.4174,-76.8696
180,3.4105,-14.0252,-1.8394,11.5478,25.2522,-55.0957
185,2.0693,-12.1092,-0.9197,15.5826,35.8957,-32.8348
190,0.7281,-10.1932,0.1916,24.0696,46.4696,-12.1739
195,0.115,-8.967,0.6131,35.5478,56.2783,6.3304
200,0.0,-7.8173,0.9197,45.7043,66.0174,22.4
205,0.0,-6.3995,0.8814,49.9478,71.513,37.6348
210,0.4215,-5.4415,1.1879,49.0435,73.3913,51.5478
215,0.3449,-4.2152,1.5328,47.7913,71.6522,65.8087
220,1.8777,-4.4452,2.0693,48.9043,65.1826,78.887
225,3.7937,-3.3339,1.1879,56.3478,58.713,89.8783
230,4.3685,-1.6095,0.6898,61.913,51.8261,92.8
235,5.6331,0.4215,0.3449,61.1478,46.5391,88.8348
240,6.1313,1.916,0.5365,52.1739,42.2957,80.4174
245,6.4761,3.3339,0.3066,40.5565,37.3565,72.487
250,6.1696,4.3685,-0.0383,28.3826,31.3043,68.7304
255,5.1349,5.2116,-0.843,18.2261,25.113,65.7391
260,3.6021,5.4798,-1.2263,8.1391,18.7826,62.4
265,1.8394,5.5948,-1.8011,2.087,12.1739,59.8957
270,0.1533,5.5181,-1.8777,-2.713,5.1478,60.1043
275,-1.6478,5.1349,-2.1459,-8.0696,0.0,64.6957
280,-2.6058,4.2536,-2.4142,-14.1217,-2.713,70.5391
285,-3.5638,3.4105,-2.2992,-21.1478,-5.2174,72.5565
290,-3.6021,2.1076,-2.2992,-27.8957,-7.1652,71.7217
295,-3.0273,1.4945,-2.4142,-33.5304,-9.0435,66.713
300,-2.3759,0.4982,-2.7207,-40.4174,-10.5739,57.7391
305,-1.3029,-0.1533,-2.8357,-45.287,-11.8261,44.9391
310,-0.115,-1.4562,-3.1806,-48.9739,-13.0087,28.9391
315,0.6514,-2.6058,-3.2955,-51.9652,-13.9826,10.9217
320,1.3795,-3.8704,-3.2955,-53.7043,-15.3739,-7.8609
325,1.073,-5.2116,-4.0236,-53.8435,-18.2261,-25.0435
330,1.1113,-6.5911,-5.3648,-54.1217,-22.6783,-40.0696
335,1.0346,-7.6257,-6.936,-55.9304,-26.6435,-54.5391
340,0.958,-7.8173,-8.3538,-59.6174,-27.4087,-67.9652
345,0.9197,-8.3538,-10.0399,-65.5304,-26.6435,-78.0522
350,0.9197,-8.6987,-10.8446,-71.7913,-26.7826,-83.6174
355,0.9963,-9.0053,-10.6914,-76.2435,-28.7304,-86.1913
360,1.1113,-8.7754,-10.0782,-76.6609,-31.3043,-84.5913
365,1.3029,-8.967,-9.1586,-72.2087,-34.2957,-80.3478
370,2.2226,-9.3885,-7.7024,-63.3043,-38.1913,-74.6435
375,3.3722,-10.0016,-6.3229,-51.2,-41.0435,-68.8
380,3.947,-10.9213,-5.4798,-37.7043,-40.2087,-62.1913
385,4.1003,-12.1475,-5.0966,-24.9739,-36.4522,-53.5652
390,3.6787,-12.9523,-5.0966,-16.0,-31.9304,-44.1043
395,2.8357,-14.4084,-4.4835,-12.5913,-29.0087,-35.687
400,2.2609,-15.673,-3.6404,-9.8783,-27.5478,-28.5217
405,1.7627,-16.5161,-2.9123,-4.2435,-25.4609,-23.0261
410,1.5328,-16.5161,-2.9507,5.287,-21.7739,-19.8261
415,1.5711,-16.3245,-2.9123,17.5304,-14.1913,-15.5826
420,2.1459,-15.4048,-3.0273,30.9565,-4.0348,-10.6435
425,3.4105,-14.9832,-2.5675,42.4348,8.487,-3.0609
430,3.7554,-14.4851,-1.916,50.087,21.1478,5.913
435,4.4068,-13.872,-1.2263,55.2348,32.7652,14.5391
440,4.5601,-14.0252,-0.0383,58.0174,43.8261,24.6957
445,5.1732,-14.1785,0.958,61.287,49.6,32.1391
450,5.5948,-13.6037,1.3029,65.3913,52.7304,38.7478
455,5.3265,-13.3355,1.5711,66.5739,56.4174,46.887
460,4.905,-13.1055,1.3029,64.8348,60.1739,56.0
465,4.1769,-12.3775,0.7664,63.4435,63.3739,64.5565
470,3.2189,-11.6111,0.0,61.4261,62.9565,70.1217
475,2.1076,-10.9213,-0.843,59.687,60.1739,74.6435
480,1.3412,-9.925,-1.5328,58.5043,54.1217,79.3043
485,1.2263,-10.1549,-1.8011,56.3478,48.3478,86.8174
490,0.8047,-10.2698,-1.6861,54.4696,43.0609,93.0087
495,0.9197,-10.3848,-1.2646,50.9913,37.7739,96.6261
500,0.6514,-11.3811,-0.8047,48.3478,36.5217,99.2
505,0.1533,-12.2625,-0.8047,47.3043,36.8696,101.287
510,0.3066,-13.0672,-0.5365,42.9217,36.5913,102.3304
515,0.1916,-13.7187,0.2682,36.5217,35.4087,98.9913
520,0.843,-14.3318,0.8047,34.3652,33.1826,93.2174
525,2.0693,-14.4851,0.8047,38.5391,27.8957,83.6174
530,2.6058,-14.5617,0.7664,48.487,20.9391,71.5826
535,3.0273,-14.3318,0.1916,64.487,15.0261,58.2261
540,2.5675,-13.4121,-0.6514,81.8087,11.9652,42.713
545,1.6861,-11.8793,-2.1459,95.6522,11.2,27.1304
550,0.843,-9.925,-2.7974,104.3478,11.3391,12.6609
555,0.3449,-8.3155,-3.0656,109.3565,11.2696,-2.3652
560,-0.3832,-5.7097,-3.9853,112.5565,11.2,-17.0435
565,-1.5328,-3.1806,-4.5601,112.2783,12.6609,-28.0348
570,-2.2609,-0.8047,-4.7134,109.4957,15.2348,-35.3391
575,-3.1806,1.5328,-4.5984,106.1565,17.6,-39.7217
580,-4.0236,3.2572,-4.9816,103.5826,20.1739,-39.4435
585,-4.7134,5.1732,-5.5181,96.7652,23.4435,-34.3652
590,-4.5218,6.0163,-5.4032,83.9652,27.8957,-27.2
595,-3.832,6.2079,-6.0929,68.1739,34.9913,-21.6348
600,-3.3722,5.7097,-5.748,51.4783,44.8,-18.0174
605,-2.7207,5.2499,-5.5948,38.8174,53.7739,-13.9826
610,-1.1496,4.7134,-5.5948,28.6609,60.5217,-7.7217
615,0.4982,3.9853,-5.5564,17.5304,65.7391,-1.3913
620,2.0693,2.6058,-4.6751,5.7043,69.8435,4.6609
625,3.7171,0.9197,-4.2152,-4.7304,72.1391,11.2696
630,5.2116,-0.3832,-3.7171,-13.287,73.8087,17.113
635,6.936,-2.1843,-3.3722,-18.087,76.3826,21.913
640,7.779,-4.0236,-3.0656,-19.4783,80.7652,25.6696
645,8.852,-4.9816,-3.6787,-19.6174,85.3565,29.7043
650,8.852,-5.4032,-4.1769,-23.7913,92.3826,31.6522
655,8.4688,-5.7864,-5.5181,-36.2435,101.0087,33.3217
660,7.2809,-6.821,-6.4378,-52.6609,109.1478,35.0609
665,5.7097,-8.0473,-7.0126,-68.6609,112.5565,37.7043
670,4.1003,-9.695,-7.3958,-80.1391,108.4522,40.2783
675,2.9507,-10.768,-7.4725,-85.1478,99.6174,41.3913
680,0.6131,-12.5691,-7.2425,-85.0783,88.7652,40.5565
685,-2.9123,-14.6384,-5.8247,-79.9304,75.4087,40.0696
690,-5.4415,-16.4011,-4.4452,-66.7826,59.0609,40.3478
695,-7.1276,-17.2441,-3.7171,-49.5304,42.6435,37.6348
700,-7.9706,-17.6657,-3.3339,-33.6696,26.9913,30.1913
705,-6.8977,-19.1985,-2.2992,-21.1478,12.1739,19.5478
710,-5.7864,-20.6546,-0.4215,-7.3043,3.3391,3.9652
715,-4.5218,-20.5397,0.8814,14.9565,1.6,-17.7391
720,-4.4068,-17.7806,0.843,44.1043,4.6609,-42.0174
725,-3.6404,-16.5161,1.4945,67.6174,9.0435,-60.1043
730,-3.2189,-14.7533,2.9507,78.2609,6.1913,-75.2696
735,-3.1423,-13.1055,4.3302,80.5565,-4.4522,-86.1913
740,-2.989,-11.841,6.2079,84.2435,-18.087,-94.2609
745,-4.8667,-9.3885,6.821,95.3739,-30.1217,-97.113
750,-5.8247,-7.9323,6.5528,107.4783,-37.9826,-90.2261
755,-6.9743,-5.4415,4.5601,111.4435,-43.687,-78.5391
760,-7.9323,-3.5638,2.6824,101.2174,-48.9043,-64.0
765,-6.4378,-4.5601,0.4215,81.3913,-55.0261,-51.2696
770,-5.5181,-4.3302,-0.843,56.1391,-53.7043,-49.4609
775,-4.8667,-4.6368,-0.958,36.7304,-45.0783,-50.5739
780,-3.7937,-5.2882,-0.0766,29.6348,-34.713,-53.4261
785,-1.9543,-6.0163,1.7627,31.7913,-24.9739,-57.5304
790,0.0766,-7.1276,3.1039,38.6087,-17.6,-62.3304
795,1.7244,-7.8173,3.0656,47.6522,-13.1478,-65.4609
800,4.2919,-9.3502,1.8011,54.3304,-9.2522,-66.5739
805,6.5528,-11.3428,0.2682,57.4609,-3.4087,-65.7391
810,7.9706,-12.4924,-1.2263,60.5217,2.7826,-64.8348
815,9.0053,-12.9906,-2.5291,64.2087,7.8609,-62.6783
820,8.852,-12.6074,-2.989,65.8783,13.4261,-58.2957
825,8.2005,-12.1092,-2.6824,66.087,20.2435,-50.087
830,7.2425,-11.4578,-1.5711,67.1304,25.5304,-40.0696
835,6.0546,-10.8063,-0.3066,68.5913,27.3391,-32.2783
840,5.0966,-9.7717,0.3449,67.4087,25.9478,-28.5217
845,4.5601,-9.5034,0.843,63.0957,25.5304,-26.2957
850,4.062,-8.5454,0.6898,59.7565,28.1739,-24.5565
855,3.4488,-7.1276,0.5365,53.5652,31.3739,-23.0261
860,2.874,-6.2462,0.4598,43.4087,33.7391,-20.8
865,2.1076,-5.0966,0.3449,31.2348,31.6522,-20.3826
870,1.6478,-4.4068,0.1916,19.4087,27.0609,-20.2435
875,0.6898,-4.1769,-0.3449,9.0435,22.1913,-18.9913
880,0.3449,-4.2152,-0.3832,2.9217,16.5565,-15.7913
885,-0.843,-4.2536,0.0383,4.5913,7.9304,-17.113
890,-1.7244,-4.6751,0.2682,11.8261,-3.7565,-17.8087
895,-1.6095,-4.4835,0.5748,18.3652,-18.3652,-18.2261
900,-1.6095,-4.5984,0.7281,23.513,-25.8087,-14.6087
905,-2.2226,-3.947,0.0766,28.1043,-28.313,-11.1304
910,-1.8777,-3.1039,-0.7281,27.1304,-29.287,-10.5739
915,-1.916,-2.2992,-0.5748,22.5391,-26.1565,-9.7391
920,-1.916,-1.2263,-1.6095,19.0609,-27.1304,-9.8087
925,-2.6058,0.5365,-2.5291,14.1913,-32.3478,-11.687
930,-2.4908,2.3375,-3.1423,7.5826,-37.3565,-13.7739
935,-2.7591,3.6404,-3.7937,-1.5304,-40.7652,-16.7652
940,-2.3375,3.947,-4.6368,-14.2609,-42.9217,-18.9217
945,-1.3412,3.7171,-5.4798,-29.0087,-45.0087,-21.3565
950,-0.9963,2.989,-6.5911,-43.2,-48.0,-24.8348
955,-0.5365,1.7627,-6.9743,-56.487,-52.7304,-26.7826
960,-0.2299,0.5365,-7.0126,-67.687,-59.2696,-27.2696
965,0.3449,-0.115,-7.1659,-75.7565,-68.2435,-26.8522
970,0.4982,-1.4179,-7.3192,-80.1391,-76.9391,-22.1217
975,0.3832,-2.7974,-6.5911,-81.3913,-82.9913,-16.8348
980,0.843,-3.6404,-6.0546,-79.513,-80.9739,-13.0087
985,2.3375,-3.6404,-6.821,-74.713,-74.0174,-12.5913
990,3.0273,-3.1039,-7.2425,-71.513,-68.1043,-17.4609
995,4.1003,-2.4525,-6.936,-73.7391,-69.7043,-23.6522
1000,5.5948,-2.2992,-4.6368,-72.3478,-77.5652,-29.6348
1005,6.2462,-2.9123,-1.3795,-64.0696,-85.2174,-37.7043
1010,6.3612,-4.3685,0.5365,-48.0696,-88.7652,-43.4087
1015,5.1732,-4.2536,-0.6131,-33.7391,-89.5304,-56.2783
1020,4.79,-2.4908,-3.5638,-32.3478,-81.6,-65.3913
1025,3.9853,-1.8777,-5.0966,-42.1565,-67.7565,-60.5913
1030,2.1076,-1.7244,-6.4378,-59.4783,-61.913,-52.2435
1035,1.073,-1.8394,-6.821,-82.6435,-61.9826,-45.5652
1040,0.2299,-2.874,-6.3995,-101.7739,-58.6435,-34.713
1045,-0.0766,-4.2536,-5.4415,-109.287,-54.9565,-22.4696
1050,-0.1533,-4.8284,-4.6751,-105.8783,-56.9739,-13.4261
1055,0.1916,-5.02,-4.4452,-96.8348,-63.4435,-6.9565
1060,0.5748,-4.9433,-3.9853,-89.5304,-68.6609,-3.687
1065,0.9197,-4.9816,-2.7591,-86.7478,-71.3739,-3.1304
1070,1.4562,-4.4452,-1.6478,-90.2957,-72.2783,-4.5217
1075,1.6861,-4.2536,-0.7664,-96.7652,-71.2348,-5.913
1080,1.7627,-3.7937,-0.843,-103.1652,-71.3043,-7.0261
1085,1.8011,-3.5638,-1.2263,-106.9217,-74.2261,-8.0
1090,1.4562,-2.989,-1.073,-108.5217,-77.5652,-8.8348
1095,1.3412,-2.874,-0.3832,-108.7304,-79.3043,-9.7391
1100,0.9963,-2.7591,0.8047,-107.8261,-77.9826,-12.3826
1105,1.3412,-2.6441,1.4562,-108.1043,-73.6696,-15.3739
1110,2.6441,-2.6058,1.4562,-114.4348,-67.2,-17.3217
1115,3.9853,-2.874,0.2299,-128.9043,-61.2174,-19.2696
1120,4.2919,-3.832,-2.4142,-149.4957,-56.8348,-21.287
1125,4.4068,-4.6751,-3.832,-171.4087,-53.0087,-20.1739
1130,3.9853,-5.4798,-4.7517,-192.3478,-51.4783,-16.487
1135,3.1806,-6.7827,-6.1696,-211.2,-57.1826,-7.9304
1140,2.2226,-8.5454,-9.5034,-226.8522,-71.1652,5.6348
1145,0.9963,-10.7297,-14.0252,-246.3304,-91.0609,22.1913
1150,0.1533,-12.799,-19.0452,-271.5826,-112.6261,36.4522
1155,-0.2682,-15.0216,-21.9575,-299.1304,-130.5739,48.487
1160,-1.3029,-17.2441,-26.8242,-322.4348,-138.9913,61.7739
1165,-1.5711,-18.9302,-32.2657,-347.0609,-135.9304,79.6522
1170,-0.9963,-19.8882,-37.5156,-374.1913,-122.2957,94.4696
1175,0.3449,-20.3481,-41.5009,-399.6522,-101.2174,100.2435
1180,2.6441,-21.1145,-42.3823,-424.2087,-80.1391,92.9391
1185,6.5145,-22.0725,-43.1104,-442.9217,-65.3913,66.9217
1190,13.5271,-22.2258,-42.9188,-451.8957,-48.9739,26.1565
1195,14.7533,-21.8426,-34.5266,-464.7652,-23.0957,-30.3304
1200,12.8373,-18.3554,-26.7476,-461.913,8.9739,-77.8435
1205,10.3848,-11.7643,-24.7166,-425.2522,47.9304,-91.4087
1210,5.8247,-6.1313,-22.8389,-375.7217,76.8,-88.5565
1215,1.9927,-1.9927,-23.1455,-329.8783,87.0957,-83.2696
1220,-2.874,0.1533,-21.6127,-300.9391,90.2957,-79.6522
1225,-6.0546,-0.3832,-18.3938,-291.2,81.8087,-64.487
1230,-7.0509,-3.7171,-12.1092,-285.5652,59.0609,-29.7739
1235,-8.0473,-8.0089,-6.7061,-266.6435,27.9652,4.6609
1240,-7.779,-11.5727,-2.5291,-238.8174,-4.1739,29.7739
1245,-6.6294,-12.9906,-0.0766,-211.4783,-27.0609,44.4522
1250,-6.0929,-13.757,0.5365,-192.9043,-41.8087,50.0174
1255,-4.8667,-13.4504,-0.4982,-186.2261,-51.6174,53.287
1260,-4.905,-12.799,0.6514,-193.4609,-61.4261,53.7043
1265,-5.1732,-12.3391,1.6861,-200.6261,-74.9913,53.913
1270,-5.8247,-11.8027,1.2646,-202.1565,-88.2783,58.2261
1275,-6.821,-12.1859,0.843,-205.1478,-92.313,67.4783
1280,-8.2389,-12.8373,1.1113,-211.8957,-91.9652,76.5217
1285,-8.1239,-14.4468,2.2226,-219.0609,-94.2609,81.5304
1290,-8.3538,-16.0562,2.6824,-223.5826,-101.0783,78.6783
1295,-8.8137,-16.3245,2.4908,-223.2348,-107.687,73.1826
1300,-8.3921,-15.9413,3.4871,-221.0087,-110.7478,68.8
1305,-6.821,-15.7113,4.1003,-216.7652,-113.6,60.3826
1310,-5.4415,-14.715,4.3302,-209.8783,-117.913,45.1478
1315,-3.9853,-12.5307,3.6404,-197.7043,-120.1391,28.9391
1320,-1.7244,-9.2352,2.4142,-180.5913,-120.6957,14.7478
1325,-0.4598,-6.5145,1.5328,-156.2435,-118.6783,3.8957
1330,0.5365,-2.4908,0.115,-136.6957,-117.0783,-3.687
1335,0.958,1.4945,-0.0766,-125.4957,-119.0261,-10.1565
1340,1.8394,4.3685,0.3066,-122.1565,-123.7565,-14.1217
1345,2.4908,5.7097,0.9197,-123.0609,-129.3913,-14.4696
1350,2.989,6.7444,2.1459,-123.4087,-137.9478,-14.7478
1355,3.9853,6.8593,2.874,-123.4087,-146.9217,-11.7565
1360,3.9853,6.3995,2.7591,-118.6783,-151.3739,0.9739
1365,3.7554,5.748,1.8394,-111.9304,-151.5826,19.9652
1370,3.3339,5.4032,0.6898,-108.3826,-149.287,36.1043
1375,2.1459,4.905,0.1916,-110.7478,-148.8,46.887
1380,0.6514,4.4835,0.0,-116.7304,-154.0174,54.1913
1385,-0.958,3.6404,0.2299,-124.2435,-164.9391,60.0348
1390,-2.1843,2.874,-0.1916,-131.5478,-178.6435,65.3217
1395,-2.9507,2.4525,-0.4215,-138.2261,-190.6087,68.5217
1400,-3.6404,1.6095,-1.6095,-142.7478,-197.4957,69.7739
1405,-3.4871,0.7281,-3.2572,-145.6,-200.1391,67.2
1410,-2.3375,0.3832,-4.4068,-148.5913,-199.3043,59.5478
1415,-1.7244,0.3449,-5.3265,-150.5391,-195.687,47.8609
1420,-0.3066,-0.0766,-5.0966,-146.2261,-186.9913,37.913
1425,1.7627,-0.6514,-4.2919,-137.0435,-178.2957,28.5913
1430,3.2572,-0.4982,-3.0656,-124.313,-178.6435,17.8783
1435,-2.6441,15.2515,-19.1985,-107.6174,-161.4609,11.8957
1440,9.5418,10.2315,2.8357,-92.8,0.6957,63.3739
1445,5.9013,0.958,27.7822,-248.8348,-29.0783,31.5826
1450,-4.1386,-4.905,24.8699,-236.2435,-233.0435,-51.5478
1455,3.5255,-1.5328,1.2646,-54.6783,-180.5217,-22.6087
1460,-6.5145,23.452,-21.3444,40.0,-76.1043,-6.4696
1465,0.3832,24.9465,-13.9869,133.6348,17.9478,0.7652
1470,-18.4321,55.9477,-33.2237,127.7913,69.5652,21.913
1475,-10.768,66.5624,-27.514,99.0609,129.0435,91.3391
1480,-4.5601,65.4894,-13.9486,-7.9304,74.9913,154.5739
1485,-5.863,47.2489,-19.3134,-57.113,37.0087,183.0261
1490,-21.4211,0.2682,-10.3082,-32.1391,61.0087,181.4957
1495,-4.905,-52.9204,-28.6253,61.0087,43.6174,226.9913
1500,4.2919,-80.8559,-38.2437,86.4696,30.6783,119.7217
1505,-15.9413,-36.0594,-39.4316,28.4522,23.0957,4.2435
1510,-34.1434,31.0011,-51.8474,16.0,80.3478,-20.1739
1515,-20.2714,32.0741,-51.5025,34.9217,99.3391,-18.1565
1520,-5.8247,9.7334,-41.5775,25.4609,96.6261,-17.3217
1525,-7.3575,22.3024,-41.8841,23.9304,72.0696,-18.713
1530,-13.7953,15.4814,-43.1487,77.913,67.5478,-16.6261
1535,-9.3502,20.2331,-42.7271,79.513,50.087,-30.1913
1540,-9.6567,18.8919,-34.8332,71.7217,31.7217,-42.5043
1545,-6.5528,14.1402,-31.9591,73.8783,13.8435,-43.4783
1550,0.1533,-5.3648,-14.6384,58.0174,-3.687,-56.4174
1555,-2.2609,0.7281,-18.8153,37.8435,-23.7217,-57.6696
1560,-7.3192,8.0089,-18.6237,17.8087,-48.2087,-56.0696
1565,1.0346,-5.5564,-10.9596,4.3826,-69.7043,-58.9913
1570,-3.1039,-3.8704,-11.6494,-21.4261,-89.5304,-42.713
1575,-8.9286,0.1916,-9.7334,-52.1739,-97.5304,-23.3043
1580,-10.8446,-1.1496,-6.6677,-70.6087,-100.6609,-9.4609
1585,-6.5528,-0.8047,-6.5911,-69.6348,-104.9043,2.2957
1590,-9.925,-0.2682,-3.1039,-66.2261,-106.9217,9.0435
1595,-5.2882,0.1916,-0.5365,-66.8522,-108.1043,25.2522
1600,-2.989,4.9816,0.1916,-71.7913,-100.6609,16.7652
1605,-3.1039,12.5691,0.2682,-70.6783,-85.5652,-12.5217
1610,-2.9507,17.2441,0.958,-66.9217,-77.0783,-28.8696
1615,-0.115,17.3208,1.8394,-62.1217,-58.5043,-20.1043
1620,1.7627,14.715,2.3375,-59.9652,-28.5913,-18.7826
1625,0.6131,16.4011,1.6478,-54.8174,2.9913,-32.6261
1630,1.8011,13.1822,1.8777,-64.487,21.4957,-32.2087
1635,0.8047,10.653,1.4179,-79.0957,33.2522,-28.3826
1640,0.4215,7.5108,1.1496,-86.1217,37.9826,-33.113
1645,1.1496,7.2042,-0.5748,-82.9913,38.2609,-34.3652
1650,0.843,6.3995,-1.3412,-75.9652,39.0957,-33.5304
1655,-0.6898,7.4725,-1.4179,-67.3391,39.0261,-30.887
1660,0.8814,4.8667,-1.4562,-61.1478,35.8261,-26.2261
1665,-1.5328,5.3265,-1.8011,-52.5913,34.9913,-28.6609
1670,-0.6131,4.5601,-2.874,-40.6957,37.287,-27.6174
1675,-1.1496,4.3302,-3.832,-38.6087,34.5739,-24.3478
1680,-3.6787,6.8977,-5.2882,-34.6435,35.2,-20.2435
1685,-2.6441,5.02,-4.9433,-34.7826,36.1043,-9.2522
1690,-0.958,2.4525,-4.8667,-27.5478,41.8783,-6.4696
1695,-2.6441,4.0236,-5.2882,-18.9913,44.313,-9.4609
1700,-1.2263,3.3722,-5.7864,-9.6696,48.0,-8.8348
1705,-3.1806,4.3685,-6.1696,4.4522,50.5739,-14.0522
1710,-3.2572,3.9087,-6.7061,17.7391,48.9043,-14.3304
1715,-2.4525,3.6021,-7.6641,32.7652,51.3391,-13.5652
1720,-5.6331,2.4525,-6.5528,50.5043,60.2435,-14.887
1725,-7.5491,5.2499,-7.5108,69.8435,53.5652,-24.9043
1730,-7.6257,7.4341,-9.5418,88.7652,54.1217,-21.7739
1735,-3.7554,4.8667,-9.9633,109.913,63.2348,-14.6087
1740,-9.8866,9.6184,-14.4468,131.2696,67.5478,-17.1826
1745,-4.9816,5.4798,-10.8446,126.6087,52.5913,-25.1826
1750,-1.6095,7.5108,-13.7187,109.6348,25.4609,-32.5565
1755,1.2263,4.9816,-12.2625,76.0348,-9.0435,-30.1913
1760,-2.989,2.1843,-9.1202,25.6696,-31.5826,-26.8522
1765,-7.5874,0.9197,-8.967,3.687,-42.087,-23.3739
1770,-4.4835,-2.9123,-5.4032,-9.2522,-44.2435,-11.7565
1775,-2.989,0.2299,-6.5911,-17.1826,-28.7304,2.9217
1780,-3.4488,3.7937,-6.936,-22.6783,-15.7217,18.5043
1785,-2.6058,6.2079,-6.3612,-22.7478,-13.4261,29.3565
1790,-4.5984,8.8137,-7.7024,-21.0087,-17.7391,33.4609
1795,-5.4032,9.7334,-7.5874,-21.4957,-18.087,30.5391
1800,-5.4032,9.5801,-7.5108,-15.8609,-15.4435,26.5739
1805,-6.5911,8.852,-7.2042,-10.5043,-13.7043,19.3391
1810,-7.6641,7.9323,-6.821,-8.0696,-12.6609,9.2522
1815,-6.936,7.5108,-6.9743,-5.3565,-12.2435,2.5739
1820,-6.3229,7.2042,-7.1659,-0.8348,-13.4957,-3.4087
1825,-2.6058,5.2116,-7.6641,2.4348,-16.9043,-6.8174
1830,-2.7591,2.1459,-9.3118,-3.687,-21.3565,-17.3217
1835,-7.3192,7.5874,-8.967,-8.6957,-21.4957,-18.6435
1840,-5.4415,8.5071,-9.5034,-10.1565,-25.3913,-5.7739
1845,-4.7517,7.1659,-9.1586,-19.2,-29.0087,-3.3391
1850,-4.4452,6.6677,-9.2352,-26.6435,-31.0957,-3.8957
1855,-4.062,5.9396,-9.3118,-31.7217,-33.4609,-2.3652
1860,-3.9087,5.7864,-9.6567,-36.1043,-35.5478,0.0696
1865,-3.9087,6.3612,-9.3118,-43.9652,-40.1391,2.0174
1870,-5.1732,5.0583,-8.5838,-59.2696,-48.0,0.6957
1875,-4.7517,6.0163,-7.9323,-59.5478,-51.2,4.0348
1880,-4.1769,6.4378,-7.7024,-56.2783,-56.0,8.0696
1885,-3.7171,7.0509,-8.2389,-56.2783,-59.2,7.513
1890,-1.3029,4.2536,-7.4341,-64.487,-61.913,2.1565
1895,-4.5601,3.4871,-6.4761,-56.487,-54.887,-18.7826
1900,-4.1769,6.8593,-6.3612,-37.5652,-47.9304,-18.2957
1905,-3.4105,7.9323,-6.936,-32.4174,-48.2783,-10.2261
1910,-3.3339,7.2042,-6.6294,-31.5826,-44.313,-11.2
1915,-2.9123,6.7444,-6.8977,-28.8696,-38.9565,-15.7913
1920,-2.5675,5.9396,-7.0893,-25.6696,-34.7826,-19.687
1925,-3.1806,5.5181,-6.7061,-22.7478,-32.6957,-24.6957
1930,-3.7937,5.9396,-6.5145,-19.687,-31.0261,-28.2435
1935,-5.0966,6.4761,-6.2462,-17.3913,-30.5391,-28.8
1940,-5.5181,6.1313,-5.7097,-16.2087,-31.4435,-27.4783
1945,-5.5948,4.8667,-5.2116,-10.713,-31.7913,-24.6957
1950,-4.3302,4.1003,-5.748,2.0174,-29.5652,-22.887
1955,-3.9087,3.1039,-5.748,10.3652,-24.5565,-23.3043
1960,-3.8704,2.7207,-5.9013,15.3043,-16.487,-24.6957
1965,-4.3302,2.989,-5.8247,18.7826,-6.4,-25.8783
1970,-3.6787,2.989,-5.6714,21.2174,3.2,-26.087
1975,-3.7937,2.5291,-5.6331,24.2783,12.3826,-27.0609
1980,-4.062,2.5291,-5.9396,29.0087,20.5217,-29.6348
1985,-3.9853,2.1459,-5.863,33.0435,27.7565,-30.8174
1990,-3.7554,2.1076,-6.0163,37.9826,34.8522,-32.7652
1995,-3.1423,2.6824,-6.7827,42.087,42.2261,-35.4783
2000,-4.1386,1.8011,-5.9396,43.9652,47.2348,-36.9391
2005,-3.7937,2.031,-6.3612,49.0435,50.2261,-36.9391
2010,-3.6787,2.0693,-6.4378,53.0783,52.9391,-37.1478
2015,-3.5255,2.1076,-6.6294,54.8174,55.7217,-38.0522
2020,-3.7171,1.6478,-6.6677,56.4174,58.5043,-39.3043
2025,-3.7937,1.6861,-7.0126,58.4348,61.2174,-39.9304
2030,-3.5255,1.8011,-7.3192,59.4087,63.9304,-39.513
2035,-3.6021,1.5328,-7.6257,59.8957,66.6435,-39.4435
2040,-3.5255,1.2646,-7.5874,60.313,68.3826,-38.9565
2045,-3.4871,1.5711,-8.0473,60.7304,69.3565,-37.7043
2050,-3.6404,1.1879,-8.1622,60.3826,69.8435,-36.1739
2055,-3.6404,0.958,-8.4305,59.8957,69.5652,-34.4348
2060,-3.6787,0.9963,-8.6987,58.5739,69.0087,-32.2783
2065,-3.5638,1.0346,-8.9286,56.6957,67.8261,-30.0522
2070,-3.6404,0.958,-9.2352,54.9565,65.9478,-28.1739
2075,-3.5638,0.843,-9.4268,52.7304,63.1652,-26.087
2080,-3.7171,1.1113,-9.3885,50.2957,59.5478,-23.8609
2085,-3.5255,1.073,-9.6184,47.7913,55.2348,-21.2174
2090,-3.5638,1.1496,-9.6184,45.2174,51.3391,-18.9217
2095,-3.6404,1.1496,-9.7334,42.713,47.7913,-17.0435
2100,-3.9087,1.4945,-9.9633,40.0696,43.687,-15.0957
2105,-4.1003,1.916,-9.7334,37.3565,39.8609,-13.4957
2110,-4.1386,2.2226,-9.8483,36.0348,36.313,-12.1739
2115,-3.7554,1.9927,-9.7334,35.0609,33.3217,-11.1304
2120,-3.2955,1.5711,-9.4651,34.2261,31.0261,-10.2261
2125,-3.4488,0.9963,-9.4268,32.9739,29.287,-9.8087
2130,-3.4105,0.4598,-9.5801,32.2783,29.0087,-10.5739
2135,-3.4871,1.5711,-10.0782,30.4696,28.7304,-10.0174
2140,-3.3722,2.1459,-9.5418,27.2,27.8261,-8.1391
2145,-3.4871,2.989,-9.5034,25.0435,24.6261,-5.1478
2150,-3.2572,2.2609,-9.1202,23.513,19.2696,-2.6435
2155,-3.1423,1.2263,-9.3118,23.4435,15.6522,-1.6696
2160,-3.7937,1.7244,-9.4268,22.0522,14.4,-1.9478
2165,-3.1039,2.1843,-9.3118,21.287,13.2174,-1.3217
2170,-3.4871,1.5711,-9.2735,19.8957,10.2261,-0.6261
2175,-3.4871,1.1113,-9.1586,18.7826,7.9304,-0.9043
2180,-2.8357,0.6898,-8.4305,18.713,7.513,-0.8348
2185,-3.3339,-1.1113,-9.2735,19.2,8.0696,-1.2522
2190,-3.1039,-1.0346,-9.3502,18.8522,9.7391,-2.4348
2195,-2.9123,-0.9197,-9.1586,17.6,11.7565,-2.5043
2200,-3.1039,0.0766,-9.4268,14.2609,11.8957,-2.2957
2205,-3.2955,1.4179,-9.0819,9.8087,10.0174,-1.6
2210,-2.5675,0.3449,-8.3921,6.8174,7.2348,-0.5565
2215,-2.6058,0.5748,-8.2772,6.2609,5.9826,-0.7652
2220,-2.7207,0.6898,-8.4305,6.5391,6.7478,-0.7652
2225,-2.2992,0.1533,-8.2772,6.4,6.887,-0.7652
2230,-2.2992,0.115,-8.3155,5.3565,6.9565,-0.0696
2235,-2.1076,0.1916,-8.4688,4.313,7.9304,0.487
2240,-2.6441,0.8814,-8.4688,3.3391,9.6,1.113
2245,-2.5291,1.0346,-8.6604,2.4348,10.9217,1.3913
2250,-2.874,1.1879,-8.8903,1.7391,11.2696,1.4609
2255,-2.989,1.1113,-8.9286,1.5304,10.5043,1.4609
2260,-2.8357,0.9963,-8.6987,1.3913,9.3913,1.3217
2265,-2.7207,1.0346,-8.737,0.8348,8.2783,1.3217
2270,-2.6441,0.958,-8.8137,0.2087,7.1652,1.3913
2275,-2.6058,0.9963,-8.7754,-0.0696,6.0522,1.4609
2280,-2.6824,0.9963,-8.737,-0.487,5.1478,1.4609
2285,-2.7207,1.0346,-8.6604,-0.6957,4.1043,1.4609
2290,-2.6824,0.9963,-8.9286,-0.6957,3.2,1.4609
2295,-2.7207,1.2263,-8.967,-1.0435,2.4348,1.7391
2300,-1.9543,0.9963,-8.3155,-1.5304,1.9478,1.7391
2305,-2.7591,1.1113,-8.9286,-1.8087,1.6,1.8087
2310,-2.6441,1.073,-8.9286,-1.9478,1.3217,1.8087
2315,-2.7207,1.1113,-8.852,-1.8783,0.9739,1.6696
2320,-2.7207,1.0346,-8.9286,-1.8087,0.6261,1.6
2325,-2.6824,1.1496,-9.0436,-1.6696,0.3478,1.6696
2330,-2.6824,1.2646,-8.9286,-1.3217,-0.4174,1.9478
2335,-2.7591,1.1879,-8.7754,-0.6261,-1.113,2.2957
2340,-2.7591,1.2263,-8.8903,0.487,-1.6696,3.4783
2345,-2.874,1.2646,-8.7754,1.5304,-2.1565,4.9391
2350,-2.874,1.2646,-8.737,2.2261,-2.5043,6.2609
2355,-3.0273,1.3412,-8.7754,2.8522,-2.713,7.1652
2360,-2.874,1.2646,-8.6221,3.4783,-2.713,7.4435
2365,-2.9507,1.3412,-8.6604,4.2435,-2.5043,7.9304
2370,-2.9507,1.3029,-8.4688,4.1739,-2.0174,7.9304
2375,-2.874,1.2646,-8.4305,4.5913,-1.1826,8.0
2380,-3.0273,1.2646,-8.5071,5.0087,-0.4174,8.2087
2385,-2.9507,1.3795,-8.5071,4.8696,0.3478,8.487
2390,-2.989,1.4562,-8.4688,4.7304,1.1826,8.2087
2395,-3.0273,1.2646,-8.5071,5.6348,1.8783,8.3478
2400,-3.1039,1.3795,-8.5838,6.1913,2.5739,9.113
2405,-3.0273,1.5328,-8.5838,6.4,3.2696,9.113
2410,-2.989,1.3795,-8.6604,6.4,3.9652,8.6957
2415,-3.0656,1.3795,-8.7754,6.9565,4.8,8.9043
2420,-2.9507,1.3412,-8.6604,7.2348,5.4261,8.9043
2425,-2.9123,1.5328,-8.852,7.6522,5.5652,8.6261
2430,-3.2572,1.4945,-8.8903,7.7217,5.7739,8.0696
2435,-3.1806,1.5711,-8.967,7.6522,5.8435,7.513
2440,-3.2572,1.4562,-9.0436,7.1652,6.3304,6.6087
2445,-2.9123,1.5711,-8.8903,6.5391,6.8174,5.8435
2450,-3.0273,1.2263,-8.967,6.0522,6.0522,4.1043
2455,-3.0656,1.4562,-8.852,5.6348,5.8435,2.8522
2460,-2.9123,1.2646,-8.852,5.3565,5.7043,2.087
2465,-2.989,1.3412,-8.737,5.2174,5.5652,1.5304
2470,-2.9507,1.3412,-8.6604,4.8696,5.4957,1.113
2475,-2.9123,1.3029,-8.7754,4.6609,5.5652,0.7652
2480,-2.7974,1.2263,-8.5838,4.5217,5.8435,0.4174
2485,-2.874,1.3412,-8.5838,4.5913,6.1913,0.0
2490,-2.9123,1.3795,-8.5838,5.1478,6.6783,-0.2087
2495,-2.7974,1.3412,-8.6604,5.9826,7.1652,-0.3478
2500,-2.8357,1.2263,-8.6987,7.0261,7.5826,-0.487
2505,-2.7207,1.1113,-8.9286,7.8609,7.7913,-0.8348
2510,-2.7207,1.2263,-8.7754,8.2783,7.7217,-0.8348
2515,-2.7207,1.073,-8.7754,8.2783,7.3739,-0.9739
2520,-2.7207,1.1879,-8.8137,8.1391,6.9565,-1.113
2525,-2.7207,1.1496,-8.6604,8.0,6.6783,-1.113
2530,-2.6824,1.3029,-8.6221,7.6522,6.4696,-1.1826
2535,-2.6441,1.1113,-8.6221,7.6522,6.3304,-1.1826
2540,-2.6824,1.1496,-8.5838,7.6522,6.4,-1.3913
2545,-2.5291,1.1496,-8.852,7.6522,6.2609,-1.2522
2550,-2.6441,1.1113,-8.6987,7.513,6.1913,-1.2522
2555,-2.5675,1.1496,-8.7754,7.7217,6.2609,-1.3913
2560,-2.7591,1.1496,-8.852,7.5826,6.1913,-1.3217
2565,-2.6441,1.1113,-8.8137,7.7217,6.0522,-1.3217
2570,-2.6441,1.073,-9.0053,7.6522,5.8435,-1.3217
2575,-2.6058,1.073,-8.9286,7.7913,5.4261,-1.4609
2580,-2.6058,0.9963,-8.967,7.6522,5.1478,-1.5304
2585,-2.6441,1.0346,-8.8903,7.4435,4.8696,-1.6
2590,-2.6058,1.073,-8.852,7.3043,4.8,-1.6696
2595,-2.6441,1.0346,-9.0436,7.3043,4.1043,-1.6
2600,-2.6058,1.1496,-9.0819,7.3043,3.3391,-1.4609
2605,-2.6058,1.073,-9.0053,7.3043,2.6435,-1.4609
2610,-2.6824,0.958,-9.0053,7.0957,2.0174,-1.6
2615,-2.6058,0.9963,-8.737,6.8174,1.4609,-1.5304
2620,-2.6824,0.9963,-8.8903,6.4,1.0435,-1.5304
2625,-2.6441,1.0346,-9.0053,6.1217,0.7652,-1.6
2630,-2.6441,0.9963,-8.852,5.9826,0.3478,-1.5304
2635,-2.6441,1.1496,-8.8137,5.8435,0.2783,-1.6
2640,-2.6441,1.073,-8.852,5.7739,0.0,-1.5304
2645,-2.6824,1.073,-8.852,5.6348,-0.1391,-1.4609
2650,-2.6441,0.8814,-8.852,5.3565,-0.2783,-1.3913
2655,-2.6441,0.9197,-8.8903,5.287,-0.6261,-1.3913
2660,-2.6824,0.958,-8.7754,5.0783,-0.6957,-1.3913
2665,-2.8357,1.073,-8.8137,4.8696,-0.8348,-1.3217
2670,-2.6824,0.9197,-8.7754,4.7304,-0.9739,-1.2522
2675,-2.7974,1.073,-8.7754,4.5217,-1.113,-1.2522
2680,-2.7974,0.9963,-8.852,4.3826,-1.113,-0.9043
2685,-2.7207,1.0346,-8.852,4.1043,-1.1826,-0.8348
2690,-2.7207,0.958,-8.7754,3.9652,-1.1826,-0.7652
2695,-2.874,1.0346,-8.7754,3.6174,-1.113,-0.6957
2700,-2.6824,1.0346,-8.9286,3.4087,-1.113,-0.5565
2705,-2.7974,1.1113,-8.9286,3.1304,-0.9739,-0.4174
2710,-2.7591,0.9963,-8.737,2.9913,-0.8348,-0.3478
2715,-2.8357,1.1496,-8.7754,2.9217,-0.7652,-0.2087
2720,-2.7591,1.0346,-8.852,2.9217,-0.487,-0.1391
2725,-2.7207,1.0346,-8.9286,2.9217,-0.3478,0.0
2730,-2.8357,1.1879,-8.852,2.9217,-0.1391,0.0696
2735,-2.7974,1.2263,-8.5454,2.713,0.0,0.2783
2740,-2.7974,1.1879,-8.6987,2.6435,0.2087,0.3478
2745,-2.7591,1.2263,-8.7754,2.6435,0.4174,0.4174
2750,-2.7974,1.1879,-8.7754,2.6435,0.6957,0.487
2755,-2.989,1.1879,-8.9286,2.9217,0.9043,0.6261
2760,-2.7974,1.2263,-8.6604,3.2,1.113,0.7652
2765,-2.7974,1.0346,-8.8137,3.3391,1.3217,0.9043
2770,-2.7974,1.073,-8.6987,3.687,1.4609,0.9739
2775,-2.9507,1.1879,-8.6987,3.9652,1.8087,1.0435
2780,-2.7974,1.0346,-8.852,3.9652,1.9478,1.113
2785,-2.7591,1.1113,-8.852,4.0348,2.2261,1.113
2790,-2.7974,1.073,-8.737,4.1739,2.5739,1.3217
2795,-2.7974,1.1496,-8.7754,4.3826,2.9913,1.4609
2800,-2.7591,1.0346,-8.7754,4.6609,3.3391,1.6696
2805,-2.7207,1.073,-8.737,4.8,3.7565,1.6696
2810,-2.7974,1.3412,-8.8137,4.7304,4.313,1.7391
2815,-2.7207,1.1879,-8.6604,4.5217,4.7304,1.6
2820,-2.7591,1.1496,-8.6604,4.4522,4.8,1.3913
2825,-2.7591,1.1496,-8.6987,4.4522,4.6609,0.9043
2830,-2.8357,1.0346,-8.8137,4.1739,4.6609,0.6261
2835,-2.6824,1.073,-8.737,4.1739,4.8,0.3478
2840,-2.7207,0.9963,-8.7754,4.1043,4.6609,0.2783
2845,-2.6824,1.1496,-8.8137,4.0348,4.8696,0.1391
2850,-2.7207,1.1113,-8.8137,3.9652,4.8696,0.0
2855,-2.6441,1.0346,-8.7754,3.8957,4.8,-0.1391
2860,-2.7974,1.1879,-8.7754,3.9652,4.7304,-0.0696
2865,-2.6058,0.9197,-8.7754,3.8261,4.6609,-0.2783
2870,-2.6058,1.1496,-8.8137,3.8261,4.6609,-0.2783
2875,-2.7974,1.1879,-8.7754,3.6174,4.5217,-0.3478
2880,-2.6441,1.1496,-8.8903,3.5478,4.5217,-0.487
2885,-2.6058,1.1113,-8.8137,3.5478,4.4522,-0.3478
2890,-2.6824,1.1496,-8.852,3.6174,4.313,-0.4174
2895,-2.5675,1.1113,-8.8903,3.5478,4.1739,-0.3478
2900,-2.6441,1.073,-8.852,3.6174,4.2435,-0.4174
2905,-2.6824,1.1879,-8.8903,3.5478,4.1043,-0.487
2910,-2.6441,1.0346,-8.6987,3.5478,4.0348,-0.487
2915,-2.6058,1.073,-8.9286,3.5478,3.8957,-0.6261
2920,-2.6058,1.1113,-8.852,3.5478,3.8261,-0.6261
2925,-2.5291,1.073,-8.8137,3.4783,3.6174,-0.6261
2930,-2.6058,1.0346,-8.852,3.5478,3.6174,-0.6261
2935,-2.6824,1.1879,-8.8137,3.6174,3.5478,-0.6261
2940,-2.6441,0.9963,-8.8903,3.687,3.4087,-0.6261
2945,-2.5675,1.0346,-8.7754,3.6174,3.3391,-0.6261
2950,-2.6441,0.6514,-9.0819,3.6174,3.2696,-0.6261
2955,-2.5675,1.1879,-8.7754,3.6174,3.0609,-0.7652
2960,-2.4908,1.073,-8.852,3.6174,2.9913,-0.7652
2965,-2.6824,1.073,-8.852,3.5478,2.8522,-0.7652
2970,-2.6441,1.1879,-8.7754,3.4783,2.6435,-0.6957
2975,-2.6441,1.0346,-8.852,3.4783,2.6435,-0.7652
2980,-2.6058,1.1113,-8.967,3.4087,2.5043,-0.6957
2985,-2.6824,1.073,-8.7754,3.4087,2.4348,-0.7652
2990,-2.6441,1.1113,-8.7754,3.2696,2.5043,-0.7652
2995,-2.6058,0.9963,-8.8137,3.2696,2.3652,-0.6957
