timestamp,accX,accY,accZ,gyroX,gyroY,gyroZ
0,-0.3066,-6.6677,-6.5145,14.3304,-0.2783,-37.6348
5,-0.2299,-6.5145,-6.6294,16.5565,-1.3217,-37.4957
10,-0.1916,-6.5528,-6.5145,19.7565,-2.9217,-37.287
15,-0.1533,-6.5145,-6.5145,22.9565,-4.8,-37.4261
20,-0.0766,-6.3612,-6.5145,26.0174,-6.4696,-37.4957
25,-0.1533,-6.3612,-6.5528,28.6609,-7.5826,-37.7043
30,-0.0383,-6.3612,-6.2845,30.3304,-8.6957,-38.4696
35,-0.0766,-6.3612,-6.2462,31.0957,-9.1826,-39.4435
40,-0.0766,-6.3612,-6.2079,31.1652,-9.5304,-40.5565
45,-0.115,-6.2079,-6.0546,30.3304,-9.2522,-41.8783
50,-0.0766,-6.3995,-5.863,28.4522,-8.9043,-43.2696
55,-0.115,-6.3612,-5.7864,25.6696,-8.2087,-44.3826
60,-0.0383,-6.2845,-5.748,22.2609,-7.5826,-45.4261
65,-0.0383,-6.2462,-5.6331,18.713,-6.5391,-45.7739
70,0.115,-6.0929,-5.5181,16.0,-5.287,-45.287
75,0.2299,-5.978,-5.5181,13.5652,-4.4522,-44.2435
80,0.0766,-5.748,-5.2116,11.8261,-4.1043,-43.4783
85,0.1916,-5.748,-5.2116,10.3652,-4.1739,-42.9913
90,0.3066,-5.5948,-5.0583,9.2522,-4.8,-42.713
95,0.2299,-5.5564,-4.7517,8.6957,-6.0522,-42.713
100,0.3066,-5.4415,-4.6368,8.5565,-7.9304,-43.4087
105,0.1916,-5.5564,-4.4835,9.7391,-9.4609,-43.6174
110,0.115,-5.4798,-4.2536,10.087,-11.9652,-44.4522
115,0.4982,-5.6714,-4.2152,11.5478,-13.8435,-45.1478
120,0.3066,-5.5564,-3.9087,15.3043,-13.2174,-43.6174
125,0.3066,-5.748,-4.1386,19.6174,-12.9391,-41.8087
130,-0.0383,-5.5181,-3.7171,22.9565,-13.5652,-40.4174
135,0.4982,-5.5181,-3.4488,25.5304,-14.6087,-39.5826
140,0.0766,-4.905,-3.7937,27.3391,-15.5826,-38.887
145,-0.0383,-4.8667,-3.2955,28.9391,-16.3478,-38.1217
150,0.1533,-4.79,-3.4871,30.4696,-17.6,-37.3565
155,0.0,-5.0583,-3.1423,31.2348,-18.5043,-36.313
160,-0.0383,-4.79,-3.2572,31.5826,-19.4087,-35.1304
165,-0.0766,-5.02,-3.2572,31.7217,-20.7304,-33.7391
170,-0.0766,-4.8284,-2.7591,32.2783,-22.1217,-31.9304
175,0.0,-4.9816,-2.8357,33.5304,-23.3043,-30.1217
180,-0.1533,-5.1349,-2.8357,35.0609,-24.2087,-27.8957
185,-0.0383,-5.3265,-2.3759,37.3565,-25.113,-25.5304
190,0.1533,-5.6331,-2.6824,39.513,-26.1565,-23.7217
195,0.115,-5.5564,-2.4142,41.4609,-26.5739,-22.0522
200,0.0383,-5.3265,-2.6441,43.2,-26.7826,-20.7304
205,0.4215,-5.7864,-2.6058,44.6609,-26.7826,-19.4087
210,0.2682,-5.8247,-2.7974,45.5652,-26.3652,-18.3652
215,0.6514,-6.1313,-3.1423,45.8435,-25.5304,-17.4609
220,1.0346,-5.863,-3.4105,45.0087,-24.0,-16.7652
225,1.2263,-5.7864,-3.3339,43.2,-21.5652,-16.487
230,1.4562,-5.978,-3.5638,40.2087,-18.9217,-16.5565
235,1.916,-5.5181,-3.7554,36.313,-17.0435,-17.113
240,2.2226,-5.748,-4.3302,33.4609,-15.8609,-17.9478
245,2.2609,-5.4798,-4.1769,30.3304,-14.4696,-19.2
250,2.5291,-5.3265,-4.7134,26.0174,-12.1043,-20.8
255,2.2609,-5.5181,-4.1386,21.1478,-8.9043,-21.9826
260,2.1459,-5.3648,-4.1003,15.5826,-4.8696,-22.7478
265,1.4562,-5.8247,-3.8704,10.5043,-0.4174,-22.887
270,0.9197,-6.2462,-3.7554,6.7478,3.9652,-22.5391
275,0.3832,-6.5145,-3.6021,3.7565,8.2783,-21.9826
280,-0.2682,-6.936,-3.6021,1.3913,12.4522,-21.5652
285,-0.6514,-7.3192,-3.4105,-0.3478,16.3478,-21.5652
290,-1.073,-7.7024,-3.2189,-1.3913,19.4087,-21.287
295,-1.1879,-8.2005,-3.1423,-2.2261,21.5652,-20.1739
300,-1.9543,-9.3118,-2.9123,-2.7826,23.0957,-19.8261
305,-1.8011,-9.5418,-2.9123,-2.713,21.2174,-23.9304
310,-1.6861,-10.0782,-3.0656,-3.2,19.4783,-26.087
315,-1.1879,-10.4231,-2.9507,-4.3826,18.0174,-24.9043
320,-1.5328,-11.3045,-2.874,-4.8696,16.4174,-19.3391
325,-1.6478,-11.9559,-3.0273,-3.7565,12.4522,-16.2087
330,-0.9197,-12.3775,-3.3339,-1.6,8.0696,-14.1217
335,-0.4982,-12.5691,-3.4488,1.0435,5.4261,-9.9478
340,-0.2299,-12.9139,-3.9853,3.4087,3.4783,-6.4696
345,-0.1533,-13.0672,-4.1003,6.1217,2.3652,-5.5652
350,0.0,-12.9139,-4.7517,9.6696,1.4609,-8.4174
355,0.4215,-12.9906,-5.3648,13.6348,1.0435,-11.7565
360,0.3449,-12.684,-6.0163,16.6261,0.9043,-14.8174
365,-0.0383,-12.3391,-7.2042,20.1739,0.6957,-16.6261
370,-0.3449,-11.9176,-8.0089,23.0957,-0.2783,-17.3913
375,-0.115,-11.3428,-9.1586,25.7391,-2.2957,-17.113
380,0.6898,-11.1129,-10.1549,27.8957,-5.4261,-15.7913
385,1.3412,-10.3848,-11.0746,29.2174,-8.3478,-14.7478
390,2.0693,-10.1932,-11.7643,28.3826,-10.5739,-14.7478
395,2.6824,-10.1166,-12.4158,24.8348,-10.9913,-14.4
400,3.4488,-10.3082,-12.9523,19.2,-9.8087,-14.3304
405,3.2189,-10.0399,-13.1055,12.3826,-7.0261,-14.8174
410,2.6058,-9.6567,-13.2971,5.4261,-3.5478,-14.4
415,2.0693,-9.0819,-13.642,-0.0696,0.0,-13.8435
420,1.4562,-8.2005,-13.757,-4.8,3.1304,-13.2174
425,0.958,-7.2809,-13.7953,-9.113,5.7043,-12.1739
430,0.6898,-6.3229,-13.1822,-12.8,7.9304,-10.7826
435,0.5365,-5.5564,-12.2242,-13.5652,9.8087,-10.2261
440,0.0,-4.7517,-11.3428,-10.2261,12.0348,-10.2957
445,-0.8047,-4.2919,-10.3848,-3.8957,15.5826,-10.5043
450,-1.4945,-4.0236,-9.5801,3.687,20.7304,-10.5739
455,-2.2226,-3.947,-8.8903,10.5043,27.3391,-10.713
460,-2.6058,-4.1003,-8.3921,14.7478,33.9478,-11.8261
465,-2.7207,-4.7134,-8.1239,14.6783,39.513,-13.7739
470,-2.7974,-5.2499,-7.8173,10.5739,43.1304,-15.2348
475,-3.1806,-6.0546,-7.3575,4.1043,45.0783,-15.3739
480,-3.0656,-6.7061,-7.0509,-1.4609,44.5217,-15.9304
485,-2.9123,-7.2809,-6.7444,-4.8,42.5043,-16.5565
490,-2.989,-7.9706,-6.4378,-5.8435,38.887,-17.3217
495,-3.3339,-8.1622,-6.7444,-5.0783,34.5739,-18.5739
500,-2.9507,-8.4305,-6.5145,-5.0783,30.8174,-18.2957
505,-2.5675,-8.5454,-6.7444,-6.8174,27.687,-16.2783
510,-2.2609,-8.8137,-6.9743,-10.1565,24.6957,-13.2174
515,-1.5328,-8.4688,-7.1659,-14.6783,21.0087,-9.1826
520,-0.8047,-8.4305,-7.4725,-19.2,16.2783,-4.2435
525,-0.1533,-8.3921,-7.6641,-22.6087,10.8522,1.2522
530,0.1533,-8.4305,-7.7024,-24.0696,4.8,6.5391
535,0.4982,-8.6987,-7.5874,-22.9565,-2.2957,10.5043
540,0.6898,-8.7754,-7.4725,-18.9913,-9.0435,14.1217
545,0.7281,-8.6987,-7.2425,-13.7043,-15.513,17.3217
550,0.958,-8.737,-6.9743,-8.0696,-21.0783,19.8957
555,1.1496,-8.6987,-6.7444,-2.9913,-24.5565,23.3043
560,0.8814,-8.5838,-6.5911,0.6261,-27.4087,24.9739
565,0.9197,-8.3538,-6.2845,2.0174,-28.8696,25.0435
570,0.7281,-8.2389,-5.978,1.5304,-28.6609,24.9043
575,0.4598,-7.8173,-5.748,0.7652,-27.5478,23.0261
580,0.4982,-7.6257,-5.4798,-0.4174,-25.8783,20.5913
585,0.3449,-7.1659,-5.5181,-1.5304,-23.9304,18.5739
590,0.115,-6.7061,-5.2882,-2.7826,-21.3565,17.1826
595,0.0766,-6.2079,-5.2116,-3.8261,-17.7391,16.9043
600,-0.0766,-5.7864,-5.1349,-4.8,-13.5652,17.6
605,-0.115,-5.6331,-4.7134,-5.3565,-9.3913,18.9913
610,-0.1533,-5.4415,-4.5984,-5.4957,-6.0522,20.7304
615,-0.3066,-5.0583,-4.4452,-5.4261,-3.4783,22.6783
620,-0.1916,-4.8667,-3.947,-5.2174,-1.9478,24.6957
625,-0.5365,-4.5984,-3.7554,-4.6609,-1.0435,26.713
630,-0.3449,-4.4452,-3.7554,-4.0348,-0.5565,28.5913
635,-0.4215,-4.3302,-3.7937,-3.7565,-0.2783,30.5391
640,-0.843,-4.3685,-3.4488,-3.6174,-1.0435,31.8609
645,-1.2646,-4.4452,-3.6787,-3.5478,-3.3391,31.3739
650,-1.1113,-4.4068,-3.4871,-4.1043,-6.2609,29.287
655,-1.0346,-4.3302,-3.6404,-5.8435,-8.5565,28.2435
660,-1.2263,-4.79,-3.6787,-7.8609,-9.8783,28.9391
665,-1.3795,-4.905,-3.7171,-9.6696,-11.2,28.8696
670,-1.4562,-5.02,-3.6404,-12.1739,-12.8696,27.6174
675,-1.4179,-5.1732,-3.7937,-14.0522,-14.7478,24.9739
680,-1.3029,-5.0966,-3.8704,-16.487,-16.2087,22.887
685,-1.2263,-5.4415,-3.832,-19.9652,-16.7652,22.8174
690,-1.4562,-5.4798,-4.1003,-23.8609,-17.0435,21.8435
695,-1.4179,-5.5564,-4.1386,-27.4087,-17.3913,20.1739
700,-1.4562,-5.7864,-4.2536,-30.4,-18.0174,18.5739
705,-1.4562,-6.0929,-4.0236,-33.3217,-18.4348,16.7652
710,-1.6478,-6.1313,-3.832,-35.1304,-19.2,13.6348
715,-1.7244,-6.0163,-3.832,-34.9217,-20.5217,10.713
720,-1.3412,-5.978,-3.9853,-34.6435,-22.0522,8.487
725,-1.3412,-5.863,-3.9853,-34.8522,-22.5391,6.5391
730,-1.3029,-5.9013,-3.947,-35.2,-21.8435,4.9391
735,-0.9963,-5.8247,-3.9853,-34.8522,-20.6609,4.2435
740,-0.958,-5.8247,-3.832,-33.9478,-18.6435,3.0609
745,-0.6131,-5.6331,-3.9853,-32.4174,-16.487,2.0174
750,-0.3832,-5.5948,-4.0236,-30.7478,-14.1217,1.3913
755,-0.2682,-5.4415,-4.1003,-29.1478,-12.1043,0.9739
760,-0.1916,-5.4415,-4.4452,-27.9652,-10.5043,0.4174
765,0.0766,-5.3648,-4.5601,-26.9913,-9.3913,-0.8348
770,-0.0766,-5.3648,-4.905,-26.087,-8.5565,-2.2261
775,0.1916,-5.2116,-4.8284,-25.3217,-7.9304,-3.2
780,0.3066,-5.3265,-4.9433,-24.9739,-6.9565,-3.8957
785,0.5365,-5.5181,-4.905,-24.7652,-5.913,-4.313
790,0.4982,-5.9396,-4.905,-24.6261,-4.5217,-4.3826
795,0.6131,-6.3612,-4.8284,-24.2087,-3.0609,-4.1043
800,0.4215,-6.936,-4.6368,-24.0,-1.3913,-3.687
805,0.3066,-7.5874,-4.5601,-23.513,0.0,-3.2696
810,0.3449,-8.2772,-4.3302,-23.0261,1.113,-2.7826
815,0.2682,-8.967,-4.4068,-22.4,2.0174,-1.6696
820,0.0383,-9.81,-4.1769,-21.5652,2.9913,-0.4174
825,-0.1533,-9.81,-4.1386,-20.2435,3.7565,0.6261
830,-0.3449,-10.1932,-3.9087,-18.3652,4.313,1.3913
835,-0.4215,-10.3848,-4.0236,-15.5826,4.1739,0.9043
840,-0.5748,-10.768,-4.2152,-12.3826,3.5478,-0.4174
845,-0.7664,-10.883,-4.4068,-8.9043,2.4348,-2.5739
850,-1.1879,-11.0746,-4.3685,-5.0087,0.7652,-5.0087
855,-1.5711,-11.2662,-4.4835,-0.2087,-1.6,-7.0957
860,-1.9543,-11.0746,-4.5984,5.0783,-4.9391,-8.7652
865,-2.3759,-11.1129,-4.9816,10.3652,-8.9043,-9.8783
870,-2.5291,-10.883,-5.2116,15.2348,-13.4957,-10.0174
875,-3.0273,-10.653,-5.8247,19.0609,-18.5043,-9.6696
880,-3.0656,-10.2698,-6.0546,21.1478,-23.7913,-9.113
885,-3.2189,-10.0782,-6.821,21.1478,-29.4261,-8.2783
890,-3.1806,-9.8866,-7.4341,18.9217,-36.0348,-7.7217
895,-3.1039,-9.0819,-8.1239,14.5391,-42.9913,-7.4435
900,-3.1039,-8.5454,-9.0053,8.0696,-50.4348,-7.2348
905,-3.2189,-8.0856,-9.81,0.2783,-57.6,-7.3043
910,-3.7171,-7.5108,-10.1549,-8.4174,-63.9304,-7.3739
915,-3.832,-7.3575,-10.1932,-17.3217,-69.2174,-7.6522
920,-3.947,-7.1659,-10.0782,-25.1826,-73.3913,-8.9043
925,-3.9853,-7.1659,-10.0782,-32.3478,-76.5217,-10.4348
930,-4.3302,-6.9743,-10.0782,-39.0261,-79.4435,-12.6609
935,-4.1003,-6.821,-9.8866,-44.5217,-82.5739,-15.4435
940,-4.1386,-6.5528,-9.81,-48.1391,-86.4696,-18.2957
945,-4.1003,-6.2462,-9.7717,-50.1565,-90.9217,-20.4522
950,-3.7937,-5.748,-9.5418,-50.5043,-95.1652,-21.8435
955,-3.1806,-5.0966,-9.3118,-49.113,-97.8087,-22.8174
960,-2.8357,-4.3685,-8.8903,-45.4261,-98.2957,-23.4435
965,-2.1843,-3.7171,-8.3155,-38.6087,-97.4609,-24.6261
970,-1.3412,-2.7974,-7.894,-30.0522,-95.7217,-26.5043
975,-0.6514,-2.031,-7.1659,-20.2435,-93.4261,-28.9391
980,-0.0383,-1.2646,-6.8977,-9.7391,-91.0609,-31.6522
985,0.2682,-0.8047,-6.3995,1.113,-88.7652,-34.9217
990,0.7281,-0.6131,-5.7864,11.2,-86.1217,-37.9826
995,1.1113,-0.5365,-5.4415,19.8957,-82.713,-40.0696
1000,1.5711,-0.7281,-4.9433,26.2957,-77.913,-41.3217
1005,1.8394,-1.1113,-4.6751,30.1913,-71.7217,-42.087
1010,2.2226,-1.6861,-4.4835,31.0261,-64.7652,-42.713
1015,2.3375,-2.4142,-4.4068,29.4261,-57.7391,-43.1304
1020,2.4142,-3.0656,-4.4835,25.6,-51.5478,-43.7565
1025,2.2609,-3.6404,-5.02,20.4522,-47.7913,-44.5217
1030,2.1459,-3.832,-4.8667,14.7478,-46.2609,-45.7043
1035,1.9543,-4.1386,-5.4798,9.1826,-46.5391,-47.3739
1040,1.916,-4.6751,-5.2882,4.1043,-47.7913,-49.5304
1045,1.5328,-5.0583,-5.2882,0.0696,-49.6696,-52.0348
1050,1.1879,-5.5564,-5.2882,-2.3652,-52.1043,-54.7478
1055,0.7281,-6.0163,-5.0583,-3.2696,-55.3043,-57.3217
1060,0.2682,-6.4761,-4.905,-2.3652,-58.9913,-59.687
1065,0.0,-7.1659,-4.7517,-0.487,-62.8174,-61.7043
1070,-0.4598,-7.3958,-4.6368,2.5739,-66.6435,-63.4435
1075,-0.7281,-7.6641,-4.6751,6.0522,-69.8435,-65.1826
1080,-0.9197,-8.0089,-4.905,9.3913,-72.3478,-67.1304
1085,-1.4179,-8.0856,-5.0583,11.5478,-74.1565,-69.2174
1090,-1.7244,-8.2005,-5.02,12.1739,-75.7565,-72.0
1095,-1.6478,-8.0473,-5.02,12.2435,-77.6348,-75.7565
1100,-1.916,-7.9323,-4.8667,12.1043,-79.9304,-78.887
1105,-1.8777,-7.8173,-4.5984,12.4522,-82.713,-82.087
1110,-1.9543,-7.7407,-4.3302,13.5652,-85.7043,-85.0783
1115,-1.8777,-7.5108,-4.2536,15.3739,-89.113,-88.1391
1120,-2.031,-7.3575,-3.947,17.5304,-91.4087,-91.2696
1125,-2.031,-7.2425,-3.947,19.8261,-92.6609,-94.1913
1130,-1.916,-7.0509,-3.7937,22.2609,-92.9391,-96.6261
1135,-1.7244,-7.1659,-3.7554,24.1391,-92.2435,-98.9913
1140,-1.7244,-6.8593,-3.7554,26.3652,-90.8522,-101.7043
1145,-1.2263,-6.5145,-3.6787,29.4957,-89.113,-104.5565
1150,-0.9963,-6.0929,-3.7171,33.7391,-87.0261,-108.0348
1155,-0.7281,-5.7864,-3.9087,39.0957,-85.0783,-111.7913
1160,-0.1916,-5.3265,-3.947,45.4957,-83.1304,-115.8957
1165,0.1533,-4.9816,-3.947,52.313,-81.5304,-120.1391
1170,0.6131,-4.79,-3.947,59.9652,-80.4174,-124.1739
1175,1.1113,-4.7517,-3.832,68.0348,-80.0696,-127.8609
1180,1.3029,-4.79,-3.9853,76.1043,-80.487,-131.5478
1185,1.8394,-4.905,-3.7937,83.8261,-81.5304,-134.887
1190,2.1459,-4.905,-3.9853,90.9217,-83.7565,-138.1565
1195,2.2992,-4.9816,-3.7554,96.9739,-87.2348,-141.1478
1200,2.3759,-4.8284,-3.9087,101.287,-91.4087,-144.0
1205,2.3759,-4.9433,-4.1386,103.6522,-95.3043,-145.9478
1210,2.3375,-4.9816,-4.1386,103.3739,-98.713,-147.0609
1215,2.1459,-5.2116,-4.2152,101.0783,-101.0087,-147.1304
1220,1.8394,-5.3648,-4.1003,96.8348,-102.1913,-145.8087
1225,1.7627,-5.5948,-4.1003,91.687,-102.4,-143.2348
1230,1.6478,-5.863,-3.5638,86.2609,-102.1913,-139.4783
1235,1.6478,-6.0546,-3.2955,81.0435,-101.8435,-135.0957
1240,1.4562,-6.1313,-3.2189,76.4522,-102.0522,-130.4348
1245,1.3029,-5.863,-2.9507,72.487,-103.0261,-125.4957
1250,1.1879,-5.748,-2.7974,69.4957,-104.6261,-120.3478
1255,0.843,-5.6714,-2.7591,67.4783,-106.2261,-115.3391
1260,0.3832,-5.3265,-2.7591,65.7391,-107.2696,-109.8435
1265,0.1533,-5.0966,-2.989,62.8174,-106.713,-104.5565
1270,0.0,-4.9433,-3.3339,57.7391,-104.7652,-99.6174
1275,-0.0383,-4.79,-3.4488,51.5478,-102.1217,-95.513
1280,0.0,-4.2536,-3.3339,46.1913,-99.1304,-92.6609
1285,-0.0383,-3.6787,-3.6404,41.2522,-97.1826,-90.087
1290,0.115,-3.1806,-3.3722,36.313,-96.5565,-87.8609
1295,0.5365,-2.4525,-3.1039,30.8174,-97.2522,-86.4
1300,0.9963,-1.8011,-3.1423,24.7652,-97.3217,-85.5652
1305,1.4179,-1.2263,-3.1806,17.9478,-95.7217,-85.0087
1310,1.8394,-0.8047,-3.0656,10.087,-94.0522,-84.3826
1315,2.1459,-0.6898,-2.9123,2.9217,-93.0783,-83.687
1320,2.6058,-0.6514,-2.8357,-3.8957,-93.2174,-82.5739
1325,2.6058,-0.7281,-2.7974,-9.8783,-93.913,-80.9043
1330,2.6441,-1.3029,-2.6058,-14.3304,-94.8174,-78.4696
1335,2.4142,-1.6478,-2.5291,-16.9043,-95.0957,-75.1304
1340,2.0693,-2.031,-2.4142,-18.1565,-95.1652,-70.4696
1345,1.8011,-2.2609,-2.7207,-18.1565,-95.513,-64.7652
1350,1.3795,-2.4525,-2.9507,-17.5304,-95.7217,-58.4348
1355,1.0346,-2.8357,-3.2189,-16.6261,-96.0,-51.9652
1360,0.5748,-2.7974,-3.2189,-15.1652,-96.1391,-45.6348
1365,0.1533,-2.7207,-3.4871,-13.6348,-95.8609,-38.3304
1370,-0.1533,-2.4142,-3.4871,-12.8,-95.7913,-30.887
1375,-0.4982,-1.8394,-3.3722,-12.6609,-95.7913,-24.3478
1380,-0.8047,-1.2646,-3.7937,-13.287,-95.513,-17.9478
1385,-1.0346,-0.8047,-3.7937,-14.6087,-93.287,-11.3391
1390,-1.5711,-0.2682,-3.9853,-16.9043,-91.5478,-4.9391
1395,-1.7244,0.2299,-4.3302,-19.687,-91.7565,1.113
1400,-1.6095,0.6514,-4.8667,-23.5826,-92.9391,6.7478
1405,-1.6478,1.073,-5.1349,-29.6348,-94.1217,12.2435
1410,-1.3795,1.1496,-5.3265,-37.0087,-95.9304,17.4609
1415,-1.2646,1.3412,-5.7097,-45.0087,-98.713,22.1913
1420,-1.1496,1.3412,-6.0929,-53.2174,-101.7739,26.087
1425,-1.073,1.1879,-6.3995,-60.7304,-104.8348,29.6348
1430,-0.9963,0.843,-6.5911,-67.1304,-106.8522,33.2522
1435,-0.843,0.6898,-6.8977,-72.9043,-107.6174,36.6609
1440,-0.6514,0.0766,-7.2809,-78.6783,-108.1043,39.513
1445,-0.3066,-0.3066,-7.9706,-84.3826,-108.6609,42.2261
1450,-0.1916,-0.6514,-9.4651,-90.8522,-109.1478,44.6609
1455,-0.0766,-0.7281,-10.1932,-99.8261,-109.8435,47.5826
1460,-0.1533,-0.8814,-11.9559,-111.1652,-111.7217,50.1565
1465,-0.4598,-1.1496,-13.0289,-126.5391,-115.6174,53.287
1470,-0.8047,-1.6861,-14.3701,-146.1565,-121.6,55.9304
1475,-1.6095,-2.9507,-15.2898,-170.9217,-129.6,58.087
1480,-2.4908,-3.9853,-15.8263,-201.5304,-140.4522,56.7652
1485,-3.2955,-6.7061,-16.9759,-242.1565,-152.1391,58.0174
1490,-3.2572,-14.4084,-19.8116,-290.6435,-167.0261,56.5565
1495,-8.3538,-31.346,-21.1911,-349.0783,-180.1043,24.2783
1500,-15.1365,-34.1434,-25.7896,-404.1043,-191.3739,-27.8957
1505,-12.1859,-22.1875,-26.7859,-461.913,-217.5304,-24.0
1510,-10.0782,-8.1622,-22.8389,-522.9913,-243.6174,8.1391
1515,-11.726,0.3066,-17.4741,-569.5304,-266.3652,26.7826
1520,-15.4048,4.7134,-11.1895,-593.3913,-267.4087,14.4696
1525,-20.1948,4.062,-4.1003,-588.5217,-258.6435,-13.8435
1530,-24.0652,0.958,-2.1459,-554.6435,-251.8261,-36.6609
1535,-26.7093,0.5365,-3.3722,-512.8348,-249.7391,-48.9043
1540,-30.3497,-2.874,-8.5838,-481.3913,-256.9739,-44.2435
1545,-25.8279,-3.2955,-15.3281,-461.287,-266.0174,-33.6
1550,-24.64,-5.2116,-21.0762,-442.1565,-283.4783,-25.8087
1555,-22.3024,-3.9853,-25.483,-416.6261,-290.6435,-27.2696
1560,-21.651,-2.4525,-28.0505,-369.3217,-294.0522,-34.9913
1565,-23.3371,-2.3759,-29.2384,-291.687,-307.6174,-39.2348
1570,-22.9155,-0.115,-27.8205,-200.9739,-336.2783,-38.7478
1575,-24.2951,0.0383,-28.3187,-110.4696,-363.8957,-21.5652
1580,-25.1764,-1.4562,-26.4027,-36.5913,-388.313,-2.2957
1585,-25.7129,-2.7207,-23.4904,16.6261,-407.0261,18.087
1590,-25.368,-8.1239,-21.9575,65.6696,-418.713,45.3565
1595,-23.4137,-11.5344,-21.4977,95.4435,-427.6174,77.4261
1600,-23.0688,-12.8373,-22.494,113.3913,-445.287,113.9478
1605,-21.1528,-15.9413,-24.64,145.7391,-470.3304,151.1652
1610,-16.6693,-16.9376,-25.1381,185.6696,-494.7478,181.4957
1615,-13.3738,-16.2095,-23.8352,222.6783,-512.3478,201.6
1620,-10.1549,-16.6693,-21.3444,245.0783,-526.3304,202.9217
1625,-7.3575,-17.2058,-18.4321,260.8696,-526.1217,200.2783
1630,-5.3648,-17.7423,-14.6767,264.7652,-508.9391,190.9565
1635,-1.8777,-18.0489,-11.3428,259.9652,-481.6696,173.8435
1640,2.4142,-17.2825,-8.7754,256.9043,-446.1217,169.3217
1645,3.5638,-16.0179,-6.0546,246.2609,-411.6174,158.887
1650,4.6751,-14.6767,-4.3302,236.4522,-379.8261,148.5217
1655,6.4761,-12.1859,-2.4525,226.0174,-353.3217,137.1826
1660,6.8977,-10.4998,-1.1879,224.2783,-328.0696,135.0957
1665,7.3575,-9.0053,-0.6514,222.4,-308.1739,136.2087
1670,7.8557,-7.5491,-1.1113,222.5391,-286.5391,137.3913
1675,6.936,-6.3229,-0.4598,224.2783,-257.4609,145.4609
1680,2.874,-4.8284,0.8047,224.9043,-230.9565,152.487
1685,-1.916,-3.9087,2.2609,221.913,-217.4609,153.6
1690,-2.9123,-2.874,2.0693,217.4609,-213.287,158.1913
1695,-2.9123,-2.7207,2.5291,206.0522,-209.113,160.9043
1700,-2.3375,-2.2992,1.3795,197.7739,-198.0522,159.6522
1705,-1.7627,-2.5291,0.9197,186.9913,-181.1478,159.3739
1710,-1.6861,-2.5291,1.3412,171.0609,-165.913,159.3739
1715,-2.6441,-2.1843,2.1843,154.9217,-152.0696,162.9913
1720,-3.832,-1.2646,3.2572,137.5304,-141.0783,176.0
1725,-6.0929,0.0,2.9507,116.4522,-133.7043,196.313
1730,-8.2005,1.1496,1.9543,86.5391,-126.6783,219.5478
1735,-9.5418,1.6478,1.1879,41.113,-119.2348,240.3478
1740,-9.8866,1.8777,1.0346,-16.9739,-115.1304,256.4174
1745,-10.7297,1.8011,1.4562,-77.5652,-118.7478,266.5739
1750,-10.6147,1.8777,2.031,-129.6696,-130.0174,272.6261
1755,-9.7717,2.1843,2.3375,-165.4957,-141.7043,276.9391
1760,-9.8866,2.6441,3.6021,-183.1652,-145.9478,278.6783
1765,-9.81,3.1806,3.9853,-181.2174,-139.8261,277.3565
1770,-10.0016,3.2955,5.2499,-168.1391,-124.9391,274.2957
1775,-10.4614,3.7171,6.821,-150.2609,-104.6957,271.4435
1780,-10.8446,3.947,8.3155,-135.4435,-82.0174,264.5565
1785,-12.1092,3.5638,8.8137,-127.8609,-55.7217,250.5043
1790,-13.0289,3.3339,8.1622,-122.6435,-21.9826,229.287
1795,-13.757,2.7974,6.8593,-110.6087,23.3739,201.8087
1800,-13.8336,2.4525,5.5948,-89.113,74.2261,171.6174
1805,-13.0672,2.2226,5.02,-62.5391,117.0783,145.0435
1810,-12.2242,2.5675,4.905,-33.3217,143.2348,122.7826
1815,-11.4961,2.874,4.79,-4.1043,152.2783,104.5565
1820,-11.1895,3.5255,5.3265,24.9043,148.5913,91.6174
1825,-10.4998,4.4068,4.79,52.1043,138.4348,83.8261
1830,-10.0016,5.0966,4.8667,72.6261,130.2261,80.0
1835,-10.0016,5.6331,4.9816,82.5739,125.2174,79.9304
1840,-10.3465,6.2845,4.9816,80.9043,120.8348,82.5043
1845,-11.3045,6.8593,4.8667,69.4261,115.5478,85.9826
1850,-11.6494,7.3958,4.4835,50.1565,108.5913,89.2522
1855,-11.9559,7.7407,3.2572,24.3478,101.287,90.9913
1860,-11.841,8.1239,2.4525,-7.7913,96.1391,90.2957
1865,-11.2279,8.1622,1.916,-41.113,94.5391,88.2783
1870,-10.9213,7.8557,1.3412,-66.5043,97.7391,85.2174
1875,-10.2698,7.6257,0.8047,-78.4696,104.5565,82.5739
1880,-9.4651,7.8557,0.0383,-76.2435,113.4609,78.887
1885,-8.8903,8.1622,-0.1916,-65.3913,122.8522,73.7391
1890,-8.7754,8.737,-0.3449,-53.8435,128.8348,65.8087
1895,-8.6221,9.3502,-0.1533,-45.6348,129.4609,56.2087
1900,-8.7754,9.3502,-0.0766,-40.487,125.3565,45.9826
1905,-8.6221,8.6604,0.1533,-34.9217,119.1652,35.8261
1910,-8.5071,8.2389,0.3066,-28.9391,113.3217,26.3652
1915,-8.0856,7.4341,0.3066,-24.0696,108.8696,21.7739
1920,-7.6641,6.821,0.2299,-21.4957,105.4609,19.6174
1925,-7.4341,5.8247,0.3066,-21.4261,102.9565,19.687
1930,-7.1659,5.5564,0.1916,-22.4,100.5913,21.1478
1935,-6.8977,4.9816,0.0383,-23.7217,99.1304,23.7217
1940,-7.2042,4.4068,-0.0766,-24.1391,97.8783,26.5739
1945,-7.5108,4.1003,-0.2682,-23.5826,94.7478,29.5652
1950,-7.8557,3.7937,-0.3449,-21.4957,89.6696,32.0
1955,-8.0473,3.6787,-0.2682,-18.7826,83.4783,34.0174
1960,-8.3921,3.7937,-0.4215,-15.6522,77.2174,34.9913
1965,-8.7754,3.947,-0.3066,-12.6609,71.5826,34.8522
1970,-8.6987,4.7134,-0.1533,-10.087,66.8522,33.9478
1975,-8.8903,5.1349,0.0766,-8.0696,63.2348,32.8348
1980,-9.2735,5.5564,0.0766,-6.6087,59.9652,31.5826
1985,-9.2352,5.978,0.3449,-5.7739,57.2522,29.7043
1990,-9.3502,6.3612,0.5365,-5.6348,54.9565,27.2696
1995,-9.4651,6.5911,0.6898,-5.9826,52.5217,24.0
2000,-9.2352,6.821,0.958,-6.6087,49.9478,20.6609
2005,-8.967,7.0509,0.8814,-6.9565,46.7478,17.2522
2010,-8.9286,7.3192,1.1879,-7.3043,43.687,13.8435
2015,-8.5838,7.3958,1.1113,-7.7217,40.2087,10.3652
2020,-8.3155,7.5491,1.073,-8.3478,36.3826,7.5826
2025,-8.2005,7.5108,1.1496,-9.4609,32.6957,4.6609
2030,-7.9706,7.5491,0.9963,-10.9913,29.4261,2.0174
2035,-8.0089,7.3958,0.6131,-12.6609,26.713,-0.7652
2040,-8.2772,7.3575,0.5365,-14.8174,23.9304,-3.6174
2045,-8.2772,7.2809,0.3449,-16.9739,21.913,-5.9826
2050,-8.2005,7.1659,0.1533,-18.8522,20.6609,-8.4174
2055,-8.2005,7.4341,-0.0383,-21.0087,19.8957,-10.7826
2060,-8.0473,7.6257,-0.2682,-22.887,19.7565,-12.6609
2065,-7.779,7.894,-0.4598,-23.8609,20.5913,-14.3304
2070,-7.4725,7.8557,-0.4982,-23.513,23.1652,-14.6087
2075,-7.2425,7.894,-0.2299,-21.4957,27.8261,-13.0783
2080,-7.5108,7.9706,0.2682,-18.6435,32.487,-9.6
2085,-7.4341,7.7024,0.843,-15.6522,34.9913,-4.7304
2090,-7.7024,6.5911,1.073,-11.687,35.9652,-0.487
2095,-8.1239,5.6714,1.1496,-2.5043,36.5913,2.2261
2100,-8.2389,5.2882,0.9963,11.2696,35.1304,4.0348
2105,-8.5071,5.2882,0.2682,24.2087,32.9043,4.9391
2110,-8.6221,5.5181,-0.3066,34.087,32.1391,5.8435
2115,-8.6221,5.748,-0.7281,39.9304,32.9043,7.1652
2120,-8.6221,5.5564,-1.1879,41.6696,34.1565,8.2087
2125,-8.5454,5.4415,-1.8011,40.9739,35.7565,8.6957
2130,-8.5838,5.1349,-1.8011,40.6957,38.0522,8.6957
2135,-8.6604,4.9816,-2.3375,42.087,40.7652,8.0696
2140,-8.1622,4.5984,-2.6824,44.8,42.9217,7.0957
2145,-8.0089,4.5218,-2.8357,48.9043,44.0348,5.8435
2150,-8.1239,4.6751,-2.874,54.1217,44.1043,4.7304
2155,-7.9706,4.5601,-3.1039,60.1043,42.2957,3.7565
2160,-7.8557,4.8284,-3.3339,66.9217,39.1652,2.9217
2165,-7.894,4.79,-3.6404,73.6696,35.0609,2.3652
2170,-7.894,4.905,-3.832,79.7913,29.5652,2.2957
2175,-7.9706,5.02,-3.6021,85.5652,24.6957,1.3913
2180,-8.2389,4.9433,-3.832,89.3913,21.0087,-0.2087
2185,-8.5454,4.9433,-3.947,90.7826,17.4609,-0.9043
2190,-8.6987,4.9816,-4.1769,90.2261,14.4,-0.9739
2195,-9.1969,5.2499,-4.79,88.9043,12.1043,-0.4174
2200,-9.2352,4.79,-4.5984,87.4435,10.8522,-0.0696
2205,-9.4268,4.8284,-4.6368,85.8435,10.5043,-0.0696
2210,-9.6567,4.905,-4.79,82.9217,10.4348,0.487
2215,-9.6184,4.9816,-4.7517,79.1652,10.3652,0.9739
2220,-9.5418,5.0583,-4.6368,74.6435,10.5043,0.9739
2225,-9.3502,5.0583,-4.4835,69.3565,11.1304,1.1826
2230,-9.0053,5.0966,-4.0236,63.9304,11.8957,1.7391
2235,-8.852,5.0583,-3.8704,58.2957,12.4522,2.5043
2240,-8.3921,5.1349,-3.6787,52.8,13.5652,2.4348
2245,-8.3155,4.9816,-3.9087,48.0,15.1652,1.1826
2250,-8.0089,4.8284,-3.7554,42.8522,17.0435,2.2261
2255,-7.6641,4.6368,-3.7937,38.3304,18.713,2.8522
2260,-7.3958,4.4068,-3.9853,34.5043,20.6609,3.0609
2265,-7.4725,4.3685,-4.1386,31.8609,22.887,2.4348
2270,-7.2425,4.1386,-4.1769,29.7043,24.8348,1.7391
2275,-7.2042,3.947,-4.4452,27.5478,26.1565,0.9043
2280,-7.3192,3.6404,-4.5601,25.1826,27.1304,-0.2087
2285,-7.3575,3.3722,-4.5984,23.1652,27.9652,-1.9478
2290,-7.4341,3.0273,-4.7517,21.8435,28.313,-3.8261
2295,-7.779,2.7974,-4.79,20.9391,28.313,-5.7739
2300,-7.9323,2.4908,-4.9433,20.3826,27.8957,-7.2348
2305,-8.3538,2.4525,-4.7134,20.4522,26.9913,-8.6261
2310,-8.4305,2.2992,-4.6368,20.9391,25.6696,-9.4609
2315,-8.5454,2.031,-4.5984,22.2609,24.0,-10.5739
2320,-8.9286,2.0693,-4.7134,24.7652,22.0522,-12.0348
2325,-9.1202,2.4525,-4.79,26.9217,19.5478,-12.313
2330,-8.967,2.989,-4.6751,27.4783,17.113,-11.7565
2335,-8.737,3.3722,-4.8667,25.7391,15.5826,-10.4348
2340,-8.4688,3.4105,-4.7517,22.4,14.887,-8.6261
2345,-8.5454,3.6404,-4.6751,19.2,14.8174,-7.0957
2350,-8.5838,3.7937,-4.7134,16.6261,14.6087,-5.5652
2355,-8.4688,3.7554,-4.5984,14.4,14.2609,-4.1043
2360,-8.3155,3.8704,-4.4068,12.5913,14.1217,-2.9217
2365,-8.3155,4.062,-4.6368,11.4087,14.5391,-1.8783
2370,-8.1239,4.0236,-4.5601,10.1565,14.887,-1.0435
2375,-8.0856,3.7171,-4.5218,9.1826,15.0261,-0.487
2380,-8.0473,3.7937,-4.4452,8.5565,15.3739,0.2783
2385,-7.9323,3.7554,-4.3685,7.7913,15.513,1.113
2390,-7.779,3.832,-4.4452,6.8174,15.7217,2.2261
2395,-7.779,3.7554,-4.4068,5.7043,15.8609,3.0609
2400,-7.779,3.6021,-4.4068,4.5217,15.9304,4.0348
2405,-7.9323,3.7937,-4.5218,3.3391,15.7217,5.0783
2410,-7.8557,3.7937,-4.5984,2.2957,15.513,6.0522
2415,-8.0089,3.7937,-4.6751,0.7652,15.3043,7.3043
2420,-8.0473,3.832,-4.5984,-0.7652,15.0957,8.487
2425,-8.2389,3.7554,-4.5984,-2.4348,14.8174,9.7391
2430,-8.1622,3.7171,-4.6751,-4.5217,14.4,11.2
2435,-8.3155,4.0236,-4.8284,-6.5391,13.5652,11.3391
2440,-8.4688,3.7554,-4.79,-8.8348,13.287,12.0348
2445,-8.5071,3.5255,-4.6751,-11.2696,13.1478,14.4
2450,-8.4305,3.5638,-4.7517,-13.9826,12.5913,17.8087
2455,-8.5454,3.6787,-4.6751,-16.9043,11.4783,20.7304
2460,-8.6221,3.8704,-4.6368,-19.8957,10.3652,23.0261
2465,-8.7754,4.1386,-5.02,-22.6087,9.3217,24.9043
2470,-8.6987,3.9853,-4.9816,-25.2522,8.487,25.8087
2475,-8.6604,4.1003,-4.7517,-27.8261,7.9304,27.8957
2480,-8.5838,4.2152,-4.79,-30.1217,7.3739,30.1913
2485,-8.6604,4.2536,-4.79,-31.9304,6.9565,32.0
2490,-8.5071,4.4452,-4.5601,-33.1826,6.887,33.4609
2495,-8.5071,4.5218,-4.5218,-34.2261,6.9565,34.5739
2500,-8.4305,4.5601,-4.5984,-35.0609,7.0261,35.6174
2505,-8.3921,4.8667,-4.3685,-35.3391,7.0261,35.0609
2510,-8.3538,4.4835,-4.4452,-35.7565,7.0261,35.1304
2515,-8.1239,4.5601,-4.2152,-36.6609,7.513,37.0087
2520,-8.1239,4.7517,-4.4452,-37.5652,7.7217,38.4
2525,-8.3921,4.8284,-4.4452,-38.5391,8.2087,39.4435
2530,-8.2005,4.7134,-4.3302,-39.4435,8.8348,40.0696
2535,-8.0089,4.8284,-4.2536,-40.2087,9.3913,40.5565
2540,-7.894,4.8284,-4.1769,-41.2522,10.087,40.9043
2545,-8.0473,4.905,-4.1769,-41.8783,10.5739,41.2522
2550,-8.0856,4.905,-4.0236,-42.3652,10.7826,41.3217
2555,-7.894,4.9433,-4.1003,-42.5043,10.7826,41.3217
2560,-7.8557,4.8284,-3.947,-42.1565,10.2957,41.1826
2565,-7.9323,4.9433,-4.1003,-41.3913,9.6696,41.3217
2570,-7.9323,4.9433,-4.1769,-40.487,8.6957,41.6696
2575,-7.894,5.02,-4.2536,-40.0696,7.513,42.2957
2580,-7.779,5.3265,-4.062,-40.0696,6.5391,42.713
2585,-8.0856,5.2499,-4.2536,-40.2087,5.7043,43.4783
2590,-7.9706,5.1732,-4.1769,-40.0696,5.2174,44.6609
2595,-7.8173,5.2499,-4.2536,-40.2783,5.3565,45.4957
2600,-8.0089,5.3265,-4.1386,-40.6261,5.913,45.7043
2605,-8.0089,5.2882,-3.9853,-41.0435,6.887,45.9826
2610,-8.0089,5.4798,-3.7554,-40.7652,8.2087,45.8435
2615,-7.779,5.4415,-3.7554,-40.0,10.1565,45.7739
2620,-7.9323,5.6331,-3.5255,-39.1652,12.8,45.4957
2625,-7.6641,5.3648,-3.3339,-38.5391,15.4435,45.2174
2630,-7.6257,5.3648,-3.2955,-37.2174,18.7826,45.1478
2635,-7.3958,5.3648,-3.3339,-35.7565,22.5391,44.8696
2640,-7.3192,5.7097,-3.2955,-34.0174,26.7826,45.0783
2645,-7.3575,4.9816,-2.989,-33.8087,30.8174,46.6783
2650,-7.2809,5.1349,-3.2572,-31.7913,34.6435,45.913
2655,-7.1659,5.4032,-3.3339,-29.287,37.913,44.313
2660,-7.1659,5.4798,-3.4871,-27.8261,40.0696,44.1043
2665,-7.1276,5.5181,-3.4105,-26.713,41.2522,43.7565
2670,-7.0126,5.7864,-3.3722,-25.1826,42.0174,43.9652
2675,-6.7827,5.6331,-3.6021,-23.3739,42.5043,44.313
2680,-6.8977,6.0546,-3.5255,-21.0087,42.5739,43.4087
2685,-6.7827,6.0546,-3.6404,-19.2696,42.3652,42.8522
2690,-6.7827,6.0929,-3.4488,-17.8087,42.5739,42.8522
2695,-6.5911,6.2079,-3.6404,-16.2087,42.713,42.5043
2700,-6.6294,6.2845,-3.7554,-15.3739,42.5739,41.4609
2705,-6.7061,6.3612,-3.7937,-14.9565,42.6435,40.9739
2710,-6.5528,6.3995,-3.832,-13.7739,42.713,40.8348
2715,-6.6294,6.5528,-3.7554,-13.0087,42.2261,41.2522
2720,-6.4761,6.6677,-3.947,-12.5217,41.5304,41.1826
2725,-6.4761,6.7827,-3.9853,-12.9391,40.9043,41.113
2730,-6.2845,6.5528,-3.832,-13.287,40.3478,41.3217
2735,-6.2845,6.4761,-3.832,-13.9826,39.9304,41.6
2740,-5.9013,6.3612,-3.6787,-14.1217,39.9304,41.5304
2745,-6.3612,6.3612,-3.7937,-13.2174,40.2087,40.9043
2750,-6.3229,6.4761,-3.7554,-11.7565,40.2783,40.2783
2755,-6.1313,6.4761,-3.9087,-10.4348,40.6261,39.8609
2760,-6.2079,6.5145,-3.9087,-9.5304,41.2522,39.513
2765,-6.2079,6.4761,-3.7937,-8.9043,42.0174,39.3043
2770,-6.0546,6.4378,-3.8704,-7.9304,42.4348,39.3739
2775,-6.0163,6.4761,-3.9087,-6.887,43.1304,39.4435
2780,-6.2462,6.7444,-4.0236,-5.7043,43.687,39.4435
2785,-6.0546,6.821,-4.1386,-4.5217,43.8957,39.513
2790,-5.9013,6.8593,-4.3302,-3.4783,43.9652,38.9565
2795,-5.9396,7.3192,-4.3685,-2.713,44.2435,38.1217
2800,-5.9013,7.1276,-4.2536,-1.7391,44.2435,37.1478
2805,-5.863,7.1659,-4.3685,-0.6261,43.8957,36.2435
2810,-5.8247,7.2809,-4.3685,0.5565,43.6174,34.9913
2815,-5.8247,7.3575,-4.2152,1.8087,43.687,33.8783
2820,-5.5564,7.4341,-4.3685,3.2696,43.3391,32.2783
2825,-5.5948,7.5108,-4.4452,4.5217,42.6435,30.2609
2830,-5.5948,7.4725,-4.6368,5.913,41.6,28.313
2835,-5.6331,7.5491,-4.6368,7.7913,40.3478,26.1565
2840,-5.8247,7.5108,-4.79,9.6696,38.9565,24.2783
2845,-5.4032,7.4341,-4.7517,11.6174,37.7739,22.8174
2850,-5.4032,7.5874,-4.9816,13.287,36.313,20.5913
2855,-5.5948,7.3575,-4.9433,15.0261,34.7826,17.8087
2860,-5.6331,7.3575,-4.905,16.6261,33.0435,15.6522
2865,-5.7097,7.3575,-4.9433,17.3217,31.0957,13.913
2870,-5.978,7.2809,-4.9433,18.3652,29.4261,13.4261
2875,-5.863,7.1659,-5.0966,19.4087,27.9652,13.7043
2880,-5.5564,7.1659,-5.0966,20.2435,26.7826,14.0522
2885,-5.6714,7.1659,-5.1732,20.8,25.7391,12.9391
2890,-5.5564,7.5491,-5.1349,21.0783,23.8609,10.9913
2895,-5.863,7.1659,-5.2116,21.7043,21.6348,9.5304
2900,-5.6714,7.0893,-5.2499,21.6348,19.8261,9.3217
2905,-5.748,7.1276,-5.3648,21.1478,18.1565,8.9043
2910,-5.8247,7.2425,-5.2882,20.5913,16.5565,8.0
2915,-5.7097,7.0509,-5.3648,20.2435,15.1652,7.3043
2920,-5.7097,7.3575,-5.2882,20.0348,13.913,6.8174
2925,-5.1732,7.9323,-5.2116,19.9652,12.6609,5.1478
2930,-5.7864,6.7827,-5.2499,20.313,11.8957,4.1739
2935,-5.6331,7.0509,-5.2882,19.4087,11.1304,4.4522
2940,-5.7097,7.0509,-5.4032,18.2957,10.2261,4.313
2945,-5.6331,7.1276,-5.4798,17.5304,9.3217,3.8261
2950,-5.6331,7.1659,-5.4032,16.6957,8.0696,3.2696
2955,-5.5181,7.0126,-5.4032,16.2087,6.8174,2.5739
2960,-5.6331,7.0893,-5.02,15.3739,5.7739,1.8087
2965,-5.4798,6.8977,-5.3265,14.5391,4.7304,1.2522
2970,-5.4798,6.8593,-5.3648,13.7739,3.8957,0.6261
2975,-5.5564,6.936,-5.2116,12.8696,2.9913,0.0
2980,-5.5948,6.821,-5.3265,12.1043,1.9478,-0.3478
2985,-5.6331,6.936,-5.3648,11.2696,1.1826,-0.7652
2990,-5.5564,6.7444,-5.3265,10.5043,0.6261,-1.113
2995,-5.5564,6.7827,-5.1732,9.6696,0.2087,-1.3217
