timestamp,accX,accY,accZ,gyroX,gyroY,gyroZ
0,0.4215,-9.4268,-1.916,-30.2609,14.2609,1.6696
5,0.5748,-9.3502,-1.916,-30.3304,14.7478,1.7391
10,0.4982,-9.2735,-2.0693,-30.6087,15.1652,1.6696
15,0.6131,-9.4651,-2.1076,-30.887,15.3043,1.7391
20,0.5748,-9.3885,-2.2992,-31.4435,15.3739,1.5304
25,0.4598,-9.4268,-2.2609,-32.3478,15.2348,1.4609
30,0.4982,-9.4651,-2.4142,-33.1826,15.3043,1.0435
35,0.4598,-9.5034,-2.5291,-34.2957,15.3043,0.9043
40,0.3066,-9.3885,-2.5675,-36.0348,15.2348,0.4174
45,0.4215,-9.3885,-2.6058,-37.4957,15.0957,0.1391
50,0.2299,-9.3502,-2.4908,-38.6783,14.8174,-0.2783
55,0.3066,-9.3885,-2.6058,-39.7217,14.5391,-0.3478
60,0.2299,-9.3885,-2.7207,-40.487,14.1913,-0.9043
65,0.2299,-9.3118,-2.5675,-41.113,14.1913,-0.9043
70,0.1533,-9.4651,-2.8357,-41.7391,14.0522,-1.113
75,0.1916,-9.4268,-2.6824,-42.1565,13.9826,-1.113
80,0.1533,-9.3118,-2.6441,-42.3652,14.0522,-1.3913
85,0.115,-9.3118,-2.6441,-42.5739,14.1913,-1.4609
90,0.115,-9.3502,-2.8357,-42.5043,14.1913,-1.6696
95,0.0,-9.1969,-2.7591,-42.3652,14.3304,-1.4609
100,0.1533,-9.4268,-2.7591,-42.3652,14.5391,-1.6696
105,0.1533,-9.2352,-2.6824,-42.3652,14.6783,-1.3913
110,0.0,-9.3118,-2.7591,-42.5043,15.1652,-1.5304
115,0.0383,-9.2352,-2.6824,-42.9913,15.513,-1.3217
120,0.0766,-9.1969,-2.8357,-43.7565,15.7913,-1.6696
125,0.0,-9.1202,-2.9507,-44.6609,16.2087,-1.6
130,-0.0383,-9.1586,-2.989,-45.4957,16.5565,-1.7391
135,-0.0766,-9.0053,-2.9507,-46.4,16.9043,-1.6696
140,-0.115,-9.0053,-2.9123,-47.3739,17.0435,-1.8087
145,-0.115,-9.1202,-3.1039,-48.2087,17.113,-1.7391
150,-0.115,-9.0819,-2.9123,-48.8348,16.9739,-1.8783
155,-0.1916,-9.0053,-3.1806,-49.6,16.8348,-1.5304
160,-0.2682,-9.1202,-3.1423,-50.2957,16.4174,-1.6
165,-0.4215,-9.1202,-3.2572,-50.9217,15.9304,-1.113
170,-0.4215,-9.0819,-3.1423,-51.5478,15.4435,-0.8348
175,-0.4215,-9.0819,-3.2572,-51.8261,14.8174,0.0
180,-0.4598,-9.1969,-3.1806,-51.9652,14.2609,0.7652
185,-0.4598,-9.1969,-3.3339,-52.313,13.1478,1.6
190,-0.5365,-9.1969,-3.2955,-52.3826,12.313,2.3652
195,-0.4598,-9.2352,-3.4105,-52.7304,11.1304,3.2696
200,-0.4598,-9.2352,-3.3339,-53.0783,10.2261,3.8957
205,-0.4598,-9.2735,-3.3722,-53.287,9.1826,4.7304
210,-0.4598,-9.1586,-3.4488,-53.913,8.3478,4.9391
215,-0.4215,-9.1586,-3.4871,-54.4,7.4435,5.4261
220,-0.4598,-9.2352,-3.6021,-55.0261,6.8174,5.4957
225,-0.3832,-9.0436,-3.5638,-55.7913,6.1217,5.7739
230,-0.2682,-9.0053,-3.6787,-56.6261,5.8435,5.8435
235,-0.3449,-8.8903,-3.6404,-57.8087,5.5652,5.9826
240,-0.2299,-8.8903,-3.7937,-58.7826,5.6348,5.9826
245,-0.1533,-8.6604,-3.7554,-60.1043,5.8435,5.9826
250,0.0383,-8.5454,-3.947,-61.6348,6.1217,5.6348
255,0.0,-8.3921,-4.0236,-63.3739,6.6087,5.4261
260,0.0766,-8.2389,-4.2152,-65.0435,7.1652,5.0783
265,0.2682,-8.1622,-4.2536,-66.8522,7.6522,4.9391
270,0.2299,-8.0473,-4.2919,-68.9391,8.2087,4.313
275,0.3832,-8.0089,-4.5218,-70.8174,8.7652,4.313
280,0.3449,-7.779,-4.4835,-72.5565,9.4609,4.0348
285,0.2299,-7.6257,-4.5601,-74.6435,9.8087,4.1739
290,0.3832,-7.7024,-4.5984,-76.1043,10.4348,4.1739
295,0.3066,-7.5874,-4.6368,-77.3565,10.9217,4.5913
300,0.2682,-7.6257,-4.6368,-78.1913,11.4087,5.0783
305,0.3066,-7.5874,-4.6751,-78.6783,11.8261,6.0522
310,0.3449,-7.5491,-4.7134,-78.8174,12.2435,6.7478
315,0.3449,-7.6641,-4.7134,-78.7478,12.5913,7.7913
320,0.3832,-7.779,-4.6751,-78.3304,13.0087,8.8348
325,0.4215,-7.779,-4.79,-77.7739,13.287,10.2957
330,0.3832,-7.9706,-4.8284,-76.8696,13.4957,11.4087
335,0.4982,-8.1622,-4.7517,-75.8261,13.5652,12.5217
340,0.6131,-8.2389,-4.6368,-74.7826,13.5652,13.2174
345,0.5748,-8.2772,-4.7134,-74.0174,13.6348,14.1913
350,0.5748,-8.3921,-4.5601,-73.1826,13.4957,14.6783
355,0.5365,-8.3921,-4.7517,-72.6957,13.4261,15.2348
360,0.7664,-8.6604,-4.7517,-72.1391,13.4261,15.513
365,0.7281,-8.6987,-4.7517,-71.3739,13.7043,15.7913
370,0.843,-8.7754,-4.8284,-70.8174,13.913,15.6522
375,0.8814,-8.7754,-4.9433,-70.3304,14.6783,15.513
380,0.843,-8.737,-4.79,-69.7043,15.513,15.3739
385,0.8047,-8.8137,-4.905,-69.4261,16.487,15.0261
390,0.9197,-8.7754,-4.9433,-68.8,17.5304,14.4
395,0.958,-8.852,-5.0583,-68.1043,18.4348,13.7739
400,0.8814,-8.8903,-5.0583,-67.2696,19.4783,13.0087
405,0.9197,-8.8903,-5.1349,-66.0174,20.5217,12.4522
410,0.843,-8.8903,-5.1349,-64.8348,21.5652,11.6174
415,0.958,-8.8137,-5.0966,-63.5826,22.4696,11.2
420,0.843,-8.8903,-5.2116,-62.4696,23.4435,10.6435
425,0.7281,-8.852,-5.3265,-61.2174,23.9304,10.5043
430,0.6898,-8.9286,-5.4032,-60.313,24.4174,10.4348
435,0.5365,-8.852,-5.4798,-59.4087,24.8348,10.5043
440,0.4598,-8.852,-5.5564,-58.6435,25.113,10.7826
445,0.3832,-8.852,-5.5564,-58.2261,25.3913,11.2696
450,0.4215,-8.8137,-5.748,-57.8087,25.4609,11.7565
455,0.3832,-8.8137,-5.6331,-57.6696,25.4609,12.313
460,0.3066,-8.5454,-5.748,-57.5304,25.6,12.7304
465,0.3066,-8.5071,-5.7864,-57.3217,25.8783,13.2174
470,0.2299,-8.2772,-5.8247,-57.113,26.2957,13.7739
475,0.4215,-8.0856,-5.863,-56.9739,26.7826,14.1217
480,0.3449,-7.8173,-5.978,-57.2522,27.4783,14.1913
485,0.4215,-7.7024,-6.0929,-57.6696,28.4522,14.1913
490,0.5365,-7.5491,-6.0163,-57.7391,29.3565,13.8435
495,0.3832,-7.4341,-6.1313,-58.087,30.3304,13.4957
500,0.5365,-7.2042,-5.9396,-58.3652,31.6522,12.8
505,0.4598,-7.0893,-5.9013,-58.8522,33.113,12.0348
510,0.6514,-6.9743,-6.0163,-59.3391,34.5739,11.3391
515,0.5365,-6.9743,-5.9396,-59.8261,36.1739,10.1565
520,0.4598,-7.0126,-5.9013,-60.5913,38.0522,8.6957
525,0.5365,-6.936,-6.0163,-61.3565,39.3043,7.2348
530,0.5365,-6.821,-6.0163,-62.7478,40.5565,6.0522
535,0.4982,-6.9743,-6.0929,-64.7652,41.8087,4.7304
540,0.5748,-7.0893,-6.1313,-67.2,43.2,3.6174
545,0.3449,-6.8977,-6.2079,-69.3565,44.313,1.8087
550,0.3832,-6.7061,-6.0929,-71.513,44.4522,-0.2783
555,0.1916,-6.5528,-6.3612,-74.1565,44.313,-2.2261
560,0.0766,-6.4761,-6.3229,-76.9391,43.2696,-3.687
565,0.1533,-6.4761,-6.3995,-79.3739,41.9478,-4.6609
570,-0.0383,-6.2462,-6.2462,-81.5304,40.9739,-5.7043
575,-0.1533,-6.0546,-6.1313,-83.8957,40.2087,-6.5391
580,-0.3066,-5.7864,-6.1696,-85.8435,39.1652,-6.9565
585,-0.3449,-5.5948,-6.1313,-87.7913,37.3565,-7.3043
590,-0.2299,-5.4032,-6.0546,-90.087,34.9913,-7.3043
595,-0.2682,-5.1732,-5.9013,-92.0348,32.9043,-7.7217
600,-0.4598,-5.0583,-5.863,-93.4261,31.3043,-8.2087
605,-0.4598,-4.905,-5.7864,-95.3739,29.7739,-7.9304
610,-0.5365,-4.7134,-6.0163,-97.3913,27.8261,-7.513
615,-0.4598,-4.6368,-5.7864,-99.4783,25.6696,-6.9565
620,-0.4598,-4.6751,-5.7864,-102.4696,23.0957,-6.1217
625,-0.3449,-4.5984,-5.8247,-104.2087,21.2174,-5.7043
630,-0.4598,-4.4068,-5.7097,-105.7391,19.5478,-5.3565
635,-0.3449,-4.4835,-5.7864,-107.7565,18.0174,-4.6609
640,-0.3449,-4.6368,-5.8247,-109.9826,16.3478,-3.8261
645,-0.3066,-4.5601,-5.9013,-112.6261,15.0957,-3.2
650,-0.3066,-4.5218,-6.0163,-115.9652,13.5652,-2.2261
655,-0.1533,-4.7134,-6.0929,-119.7217,12.2435,-1.5304
660,-0.1916,-4.7134,-6.2079,-123.4087,11.0609,-0.8348
665,-0.3066,-4.6751,-6.5528,-127.3043,10.087,0.2087
670,-0.115,-4.9433,-6.7444,-133.5652,9.1826,1.113
675,-0.1916,-4.8284,-6.8593,-139.2696,8.3478,1.3913
680,-0.0383,-5.02,-7.0126,-144.2783,7.6522,1.6696
685,-0.0766,-5.2116,-7.2809,-147.687,6.4,1.4609
690,-0.0383,-5.4032,-7.3192,-149.4261,5.2174,0.9043
695,-0.0766,-5.863,-7.5874,-149.8435,4.313,0.0696
700,0.0,-5.9396,-7.6641,-149.0783,3.6174,-0.3478
705,0.0,-6.0929,-7.9706,-147.8957,2.6435,-0.487
710,0.0766,-6.0929,-8.2005,-147.1304,1.3913,-0.2783
715,0.115,-6.2462,-8.2389,-147.2,-0.7652,0.2783
720,0.0766,-6.6677,-8.4305,-147.0609,-2.5739,0.3478
725,0.2299,-7.2425,-8.6221,-143.4435,-3.4087,0.0696
730,0.0766,-7.6257,-9.1969,-136.3478,-3.3391,-0.2087
735,0.1533,-8.0089,-9.3885,-127.7913,-2.7826,-1.0435
740,0.3832,-8.3538,-8.9286,-118.1913,-2.2957,-1.6696
745,0.3832,-8.3538,-9.6567,-108.1043,-1.7391,-2.0174
750,0.0766,-8.2005,-9.695,-98.9913,-1.6696,-1.3217
755,-0.0766,-9.5418,-9.3502,-89.6696,-3.1304,-0.8348
760,0.115,-9.695,-9.81,-75.9652,-3.2696,-2.0174
765,0.115,-9.6184,-10.0399,-58.7826,-5.1478,-2.6435
770,0.1916,-9.4651,-10.1166,-48.0,-8.6261,-2.2261
775,-0.0383,-9.1969,-10.1549,-40.1391,-12.8696,-2.713
780,-0.0766,-8.7754,-10.1932,-34.2957,-17.8783,-3.3391
785,-0.2682,-8.5454,-10.1549,-29.4261,-22.887,-4.5913
790,-0.2299,-8.4305,-10.1166,-24.6261,-27.8957,-5.4261
795,-0.3832,-8.1622,-10.1932,-20.1043,-32.8348,-6.1217
800,-0.4215,-7.9706,-9.8866,-15.5826,-37.5652,-6.6783
805,-0.4598,-7.8173,-9.8866,-10.5043,-42.2957,-7.0957
810,-0.5365,-7.5874,-9.8483,-5.1478,-47.6522,-6.4696
815,-0.6898,-7.3575,-9.695,1.113,-51.7565,-5.8435
820,-0.7281,-7.0509,-9.6184,5.7043,-55.1652,-4.5913
825,-0.7664,-7.0509,-9.5034,10.4348,-58.2957,-3.3391
830,-0.9197,-6.7444,-9.3885,15.1652,-61.2174,-1.4609
835,-0.843,-6.6294,-9.1969,19.1304,-63.7913,-0.1391
840,-1.073,-6.4378,-9.1202,22.7478,-66.1565,1.5304
845,-1.1496,-6.3612,-9.0819,25.6696,-68.5217,2.5739
850,-1.1879,-6.2845,-9.1202,27.8957,-70.6087,3.5478
855,-1.2646,-6.2079,-9.1586,29.6348,-72.5565,3.9652
860,-1.4179,-6.0163,-9.0053,30.7478,-74.8522,4.5217
865,-1.4562,-5.9013,-9.1969,31.513,-76.8696,4.7304
870,-1.5328,-5.6714,-9.0436,31.7913,-78.6783,5.2174
875,-1.4945,-5.5948,-9.0436,31.6522,-80.5565,5.4957
880,-1.4945,-5.6714,-9.0053,31.2348,-82.3652,5.9826
885,-1.6095,-5.2882,-9.0819,30.887,-84.4522,5.9826
890,-1.6095,-5.2116,-8.8137,30.2609,-86.4,6.2609
895,-1.4562,-5.1349,-8.7754,29.7043,-88.1391,6.1217
900,-1.5711,-5.1349,-8.7754,28.7304,-89.6,6.2609
905,-1.3795,-5.0583,-8.7754,27.8957,-90.713,5.9826
910,-1.3795,-5.0583,-8.5071,26.5739,-91.4087,5.6348
915,-1.5328,-5.02,-8.3921,25.7391,-91.6174,5.0087
920,-1.4945,-5.02,-8.3921,25.2522,-91.687,4.4522
925,-1.5711,-4.9433,-8.2389,24.4174,-91.2696,3.2696
930,-1.5711,-4.905,-8.1622,23.0957,-90.5739,2.4348
935,-1.6478,-4.9433,-8.2389,21.4261,-89.3913,1.3913
940,-1.5711,-4.905,-8.1622,19.2696,-87.7217,0.3478
945,-1.7244,-4.8284,-8.0089,16.5565,-85.6348,-0.6957
950,-1.6095,-4.6368,-8.0856,13.6348,-83.687,-1.5304
955,-1.7627,-4.4452,-8.1239,10.2261,-81.2522,-2.2261
960,-1.7627,-4.4068,-8.1622,5.9826,-78.5391,-2.713
965,-1.6478,-4.4452,-7.9323,1.8783,-76.8696,-4.1739
970,-1.8777,-4.2919,-8.2772,-2.087,-75.9652,-5.4261
975,-1.7627,-4.2536,-8.1622,-5.3565,-75.5478,-7.0261
980,-1.6478,-4.3685,-8.1622,-7.8609,-74.6435,-7.5826
985,-1.7244,-4.4068,-8.2005,-9.3217,-74.087,-8.3478
990,-1.6478,-4.4068,-8.4688,-10.4348,-73.6,-8.487
995,-1.6861,-4.3302,-8.2389,-11.7565,-72.5565,-8.9043
1000,-1.5328,-4.4068,-8.2005,-12.3826,-72.0696,-8.9739
1005,-1.7244,-4.2152,-8.1622,-11.9652,-71.6522,-8.7652
1010,-1.7244,-4.4068,-8.0856,-11.4087,-71.0957,-8.0696
1015,-1.7627,-4.4068,-8.0473,-10.9913,-70.4696,-7.4435
1020,-1.916,-4.5601,-7.8557,-10.713,-70.1217,-6.3304
1025,-2.1076,-4.5984,-8.1622,-10.3652,-69.7043,-5.5652
1030,-2.2226,-4.8667,-8.1239,-10.1565,-69.6348,-4.1043
1035,-2.2992,-4.9433,-8.2772,-9.8783,-70.0522,-2.8522
1040,-2.4525,-4.9816,-8.2389,-9.9478,-70.6783,-1.1826
1045,-2.5675,-5.02,-8.2389,-9.9478,-71.7217,0.2783
1050,-2.6058,-5.0583,-8.3921,-10.1565,-73.0435,2.3652
1055,-2.8357,-5.0583,-8.3155,-10.9217,-74.713,4.1043
1060,-2.8357,-5.1732,-8.2772,-12.1043,-76.1739,5.913
1065,-2.9507,-5.3265,-8.2772,-13.4261,-77.7739,7.2348
1070,-3.0273,-5.5948,-8.1239,-14.1217,-79.2348,8.487
1075,-3.1039,-5.6331,-8.3538,-14.887,-80.2087,9.4609
1080,-3.3339,-5.6714,-8.1239,-16.0,-80.487,10.5043
1085,-3.3722,-5.748,-7.9323,-17.3913,-80.5565,10.8522
1090,-3.3339,-5.8247,-7.8557,-18.8522,-80.2087,11.2
1095,-3.2955,-5.8247,-7.7407,-19.7565,-79.8609,11.0609
1100,-3.3339,-5.9396,-7.8557,-20.3826,-79.1652,11.1304
1105,-3.2572,-5.9013,-7.7407,-20.5217,-78.4,10.8522
1110,-3.3722,-5.863,-7.4725,-20.5217,-77.6348,10.6435
1115,-3.1423,-6.0163,-7.5874,-20.8696,-76.7304,10.1565
1120,-3.2189,-5.978,-7.4725,-21.7043,-75.7565,9.6
1125,-3.2955,-5.978,-7.3192,-22.6087,-74.9913,8.487
1130,-3.1039,-5.863,-7.2425,-24.0,-74.5043,7.5826
1135,-2.989,-5.748,-7.0893,-26.087,-74.9217,7.0261
1140,-2.7974,-5.7097,-7.0509,-27.6174,-75.8957,6.7478
1145,-2.7207,-5.7097,-7.0893,-28.8,-77.2174,5.9826
1150,-2.7974,-5.6331,-7.0893,-30.8174,-79.0957,5.1478
1155,-2.8357,-5.748,-7.0893,-34.1565,-81.113,4.2435
1160,-2.7207,-5.3265,-7.1659,-36.4522,-83.6174,3.4087
1165,-2.5291,-5.3648,-7.2809,-39.3043,-85.4261,2.713
1170,-2.4908,-5.5564,-7.2425,-42.4348,-87.0957,2.4348
1175,-2.5291,-5.5564,-7.0893,-45.1478,-88.487,2.4348
1180,-2.4908,-5.748,-7.0509,-46.4696,-89.6,2.713
1185,-2.4142,-5.7097,-6.9743,-46.4,-90.4348,2.9217
1190,-2.2609,-5.9013,-7.0509,-45.3565,-90.2957,3.2
1195,-2.1076,-6.0546,-7.0126,-43.2,-89.3913,3.2
1200,-1.9543,-6.2079,-6.8593,-38.6783,-87.3739,3.1304
1205,-1.7244,-6.3612,-6.7444,-32.487,-85.3565,3.0609
1210,-1.7244,-6.3229,-6.9743,-24.8348,-82.9217,3.2696
1215,-1.5711,-6.3612,-6.5528,-17.2522,-80.1391,3.687
1220,-1.5328,-6.1313,-6.7444,-8.2783,-77.4957,3.9652
1225,-1.073,-5.8247,-6.7444,0.4174,-74.9217,4.5217
1230,-1.073,-5.5181,-6.6294,8.0,-72.4174,4.9391
1235,-1.1113,-5.2882,-6.5911,14.4696,-70.2609,5.2174
1240,-0.8047,-5.0966,-6.5145,20.5913,-69.0087,5.8435
1245,-0.4982,-4.7517,-6.2079,26.0174,-67.7565,6.5391
1250,-0.5365,-4.2919,-5.9013,30.8174,-66.9913,6.6087
1255,-0.8047,-3.6404,-5.6331,32.8348,-66.713,5.8435
1260,-0.6898,-3.0656,-5.5181,32.4174,-67.4783,5.6348
1265,-0.8047,-2.5291,-5.02,28.7304,-68.5913,4.8
1270,-1.3029,-2.1459,-4.6751,21.7043,-70.0522,2.2957
1275,-1.3412,-1.916,-4.5218,11.4783,-71.7913,-0.5565
1280,-1.8394,-1.6095,-3.832,-0.8348,-73.2522,-3.4087
1285,-2.1843,-1.3795,-3.6021,-14.7478,-74.4348,-5.8435
1290,-2.4525,-1.5711,-3.1423,-30.0522,-75.2,-8.487
1295,-2.989,-1.4562,-2.7591,-44.7304,-75.4783,-12.313
1300,-3.9853,-1.3412,-2.3375,-62.6783,-76.4522,-13.0783
1305,-4.4068,-1.7627,-1.916,-77.9826,-79.6522,-10.087
1310,-4.1769,-2.3759,-1.3029,-90.7826,-83.687,-7.1652
1315,-4.4835,-2.874,-1.0346,-99.4087,-86.8174,-5.5652
1320,-4.5984,-3.5255,-0.958,-103.2348,-88.1391,-3.8957
1325,-4.79,-3.9087,-0.7281,-103.3043,-87.6522,-1.8783
1330,-4.7134,-4.4452,-0.4982,-99.4087,-86.6087,0.7652
1335,-4.6368,-4.8284,-0.4982,-93.7043,-84.9391,3.6174
1340,-4.6368,-5.0583,-0.6131,-86.887,-83.1304,6.8174
1345,-4.2536,-5.3265,-0.6898,-77.8435,-81.4609,9.8087
1350,-4.1386,-5.4415,-0.843,-70.6087,-80.5565,12.1043
1355,-3.8704,-5.5564,-0.843,-63.1652,-80.2783,14.3304
1360,-3.5638,-5.748,-1.073,-54.5391,-80.9739,16.6957
1365,-3.0656,-5.748,-1.1113,-46.6783,-82.1565,19.1304
1370,-2.6824,-5.6714,-1.2263,-39.2348,-83.5478,21.2174
1375,-2.3759,-5.6714,-1.1113,-32.5565,-85.5652,23.0957
1380,-1.9543,-5.3265,-1.2646,-26.3652,-87.7217,24.6957
1385,-1.4945,-5.2499,-1.3029,-21.913,-89.6,26.4348
1390,-1.073,-5.4032,-1.1879,-18.4348,-90.8522,27.687
1395,-0.6514,-5.4798,-1.1113,-14.1217,-90.5043,27.8261
1400,-0.2299,-5.5181,-1.6095,-10.4348,-88.0,26.7826
1405,0.2299,-5.4798,-1.8777,-7.7217,-83.1304,25.7391
1410,0.4982,-5.5181,-1.8394,-6.3304,-76.7304,24.2087
1415,0.843,-5.4032,-1.6478,-4.1043,-70.0522,22.6783
1420,0.9963,-5.2116,-0.958,-1.1826,-64.0696,20.6609
1425,1.0346,-5.1349,-0.1533,1.3913,-60.7304,18.2261
1430,1.0346,-4.9816,0.5365,5.0783,-60.8696,14.887
1435,0.6898,-4.7517,0.7664,8.7652,-63.513,10.9217
1440,0.3832,-4.4835,0.8047,10.6435,-69.2174,5.5652
1445,0.1533,-3.7554,0.4982,8.0,-75.8957,0.3478
1450,0.0,-2.874,0.3066,2.087,-83.5478,-2.7826
1455,-0.3449,-2.1459,-0.0766,-5.913,-91.2,-4.1043
1460,-0.3449,-1.5711,-0.5365,-15.4435,-100.313,-5.4957
1465,-0.4215,-1.3029,-1.3029,-25.4609,-110.0522,-7.0261
1470,-3.4871,0.2682,-2.0693,-35.7565,-119.1652,-8.2087
1475,0.3832,-1.5328,-2.7207,-44.1739,-132.1043,-4.5913
1480,-1.9543,-1.2646,-3.3722,-47.5826,-142.1217,-11.3391
1485,-2.3375,-1.073,-3.1806,-46.9565,-157.0087,-17.3217
1490,-10.2315,5.3265,-6.0546,-51.8261,-174.4,-15.513
1495,-43.2636,26.4027,-24.64,-83.5478,-192.0,8.9043
1500,-91.2023,47.2489,-33.1854,-218.9913,-94.9565,161.5304
1505,-75.2228,20.8079,-30.0431,-304.0696,68.8696,377.7391
1510,-63.4968,29.8132,-29.7366,-279.8609,265.6696,364.1739
1515,-19.1985,18.8153,-16.9759,-267.0609,440.2087,325.287
1520,28.7402,4.7517,-4.3302,-199.7913,539.4087,283.2
1525,20.0032,0.9963,-12.6074,-121.3217,454.9565,238.9565
1530,-5.4415,3.4105,-31.0011,-45.3565,275.4087,164.5217
1535,-20.3481,-3.7937,-34.6032,-26.8522,62.4696,59.687
1540,-25.2531,-10.1549,-30.5413,-60.0348,-42.8522,17.8087
1545,-26.6709,-2.031,-27.7056,-96.2783,-93.0087,31.8609
1550,-32.8405,4.6751,-28.7019,-144.6957,-112.0696,76.7304
1555,-33.6069,8.0089,-27.8589,-175.3043,-119.2348,110.6783
1560,-30.8479,9.695,-26.7093,-189.3565,-135.513,136.3478
1565,-28.5486,11.0746,-25.7129,-189.2174,-162.2261,153.113
1570,-25.1764,11.0363,-22.6856,-186.6435,-187.5478,161.5304
1575,-21.3444,10.768,-18.4704,-184.9043,-207.2348,163.687
1580,-16.0945,7.3192,-14.6384,-179.4783,-219.4087,153.6696
1585,-14.2168,6.4761,-11.8793,-164.7304,-224.6261,115.1304
1590,-12.8756,2.874,-7.4725,-150.7478,-216.1391,75.8261
1595,-11.9559,-0.3449,-3.1806,-126.3304,-202.713,42.9217
1600,-13.4504,-2.4908,-0.6514,-93.3565,-194.3652,20.7304
1605,-14.8683,-4.6751,0.8814,-57.3217,-192.2087,15.5826
1610,-16.2861,-5.7097,1.3029,-24.6261,-197.0087,25.2522
1615,-15.3281,-5.8247,1.1496,-2.8522,-206.2609,41.8783
1620,-15.3281,-4.8667,0.2682,2.8522,-213.6348,54.6087
1625,-15.0982,-3.2572,-0.1533,-5.1478,-219.3391,61.0087
1630,-12.9906,-2.4142,-0.958,-18.6435,-221.3565,58.713
1635,-10.768,-1.3029,-2.6441,-36.2435,-211.4783,44.3826
1640,-8.8137,-1.1496,-3.1423,-54.1217,-187.687,18.8522
1645,-8.5838,0.0766,-3.7937,-64.2783,-150.887,-3.4087
1650,-6.4378,-0.0766,-3.1806,-74.2261,-106.2957,-20.6609
1655,-7.2809,0.5365,-2.6441,-76.4522,-49.6696,-41.3217
1660,-8.0856,0.9197,-1.8011,-76.9391,-2.5739,-53.913
1665,-7.8173,1.6095,-1.4179,-79.0957,30.2609,-58.7826
1670,-7.3192,1.9543,-1.1496,-83.8261,51.9652,-60.1043
1675,-7.5874,2.2226,-0.7281,-91.4783,62.2609,-59.5478
1680,-7.9323,2.0693,1.7627,-98.5043,55.8609,-55.7913
1685,-4.9816,2.0693,0.843,-95.3739,40.6957,-50.7826
1690,-4.8284,3.2189,0.6131,-86.5391,31.4435,-54.4
1695,-4.5218,4.5601,0.0383,-67.4087,23.513,-54.1913
1700,-3.3339,6.2845,-0.1916,-42.8522,16.6957,-47.9304
1705,-2.4525,7.2809,-0.6131,-17.1826,8.6261,-35.8261
1710,-2.2992,7.9323,-1.8011,9.5304,-1.1826,-18.0174
1715,-0.0766,8.5454,-4.3302,31.513,-9.1826,1.6
1720,-0.3832,7.9323,-4.4068,37.6348,-11.687,12.8
1725,-1.2263,6.9743,-4.4452,31.7913,-13.4957,18.713
1730,-0.843,7.2425,-4.8284,16.2783,-16.0696,16.6261
1735,-1.0346,6.936,-3.947,-0.2087,-10.5739,13.4261
1740,-1.9927,6.5145,-2.5675,-12.1043,-3.3391,6.7478
1745,-2.9123,6.0163,-1.5328,-14.887,3.0609,0.0696
1750,-3.8704,5.5564,-0.9197,-9.4609,8.7652,-6.4
1755,-4.6368,5.1349,-0.8814,-0.1391,13.3565,-9.9478
1760,-5.2116,4.7517,-0.958,11.4783,15.2348,-10.9217
1765,-5.5564,4.2536,-1.4945,22.2609,13.2174,-9.4609
1770,-6.2462,4.062,-1.8777,29.6348,7.9304,-8.2783
1775,-7.3575,4.2152,-2.6441,32.8348,2.3652,-5.7043
1780,-8.8903,4.79,-2.9123,31.9304,0.9043,-1.6696
1785,-10.2315,5.0583,-3.4105,28.1043,0.2783,1.3913
1790,-10.5381,4.9816,-3.5638,23.3043,0.2087,0.9043
1795,-11.0363,4.7517,-3.4488,17.8087,2.2261,-0.0696
1800,-10.9596,4.3302,-3.4488,12.1739,4.1043,-2.0174
1805,-11.2662,3.8704,-3.5638,5.9826,6.887,-4.2435
1810,-11.1512,3.1039,-3.7171,0.487,11.1304,-6.9565
1815,-11.3811,2.989,-3.9087,-1.8783,17.9478,-9.4609
1820,-11.4578,2.7591,-3.9853,-3.8261,26.1565,-10.9913
1825,-11.2279,2.9123,-4.3302,-6.4696,34.5043,-10.3652
1830,-10.3848,2.7974,-4.1386,-10.2261,39.6522,-9.2522
1835,-9.9633,2.7591,-3.8704,-10.2261,42.8522,-8.8348
1840,-9.5034,2.9123,-3.9087,-5.287,45.7739,-8.6957
1845,-9.6567,3.2572,-3.6404,-3.3391,46.6087,-9.1826
1850,-9.695,3.3339,-3.3722,-1.6696,44.5217,-9.7391
1855,-9.3885,3.7554,-3.9087,3.6174,42.8522,-9.2522
1860,-8.967,3.7937,-3.832,9.8087,42.2261,-8.6261
1865,-8.5454,3.4871,-3.7171,15.5826,42.2261,-8.2783
1870,-8.5454,3.3722,-3.7937,21.4957,43.4087,-10.5043
1875,-8.3155,2.9507,-3.7554,29.1478,45.8435,-12.7304
1880,-8.2005,2.6824,-3.7937,36.5913,48.4174,-15.9304
1885,-8.2005,2.6441,-4.062,44.1739,51.1304,-19.9652
1890,-7.9323,2.4908,-4.062,49.8087,54.1217,-24.3478
1895,-8.0089,2.6058,-4.1769,53.2174,56.7652,-28.9391
1900,-8.0089,2.4908,-4.1769,55.0261,59.0609,-32.6957
1905,-8.0856,2.3375,-4.1386,56.0,61.2174,-35.6174
1910,-8.0089,2.1459,-4.4835,56.9739,63.3739,-39.3739
1915,-7.9706,1.8011,-4.3302,56.9043,66.4348,-44.2435
1920,-8.0089,1.4562,-4.5601,58.5043,69.7043,-49.113
1925,-8.2389,1.3412,-4.6751,59.4783,74.087,-52.7304
1930,-8.2389,0.958,-4.9816,59.1304,78.1913,-56.8348
1935,-8.3921,0.843,-4.6751,58.5739,81.3913,-62.7478
1940,-8.1622,0.3066,-4.4068,59.8957,84.3826,-70.9565
1945,-8.9286,0.115,-4.4835,64.1391,86.6087,-80.0
1950,-9.6184,-0.115,-4.8667,71.9304,88.9739,-85.4261
1955,-10.9596,-0.3066,-6.1696,78.6783,92.1043,-86.6087
1960,-11.726,-0.9963,-7.4341,76.1739,99.4087,-85.4957
1965,-11.0746,-1.6095,-7.3958,65.113,109.4957,-81.3913
1970,-10.0782,-1.4945,-7.3192,50.3652,118.7478,-73.6
1975,-9.925,-1.4179,-7.1659,32.8348,124.6609,-65.8783
1980,-9.5418,-1.1113,-6.821,22.5391,127.6522,-57.9478
1985,-8.8137,-0.9197,-6.9743,14.1913,127.0957,-52.8
1990,-8.3538,-0.7281,-6.8593,6.6783,125.4957,-49.8783
1995,-8.2005,-0.8814,-6.6294,1.7391,123.9652,-46.8174
2000,-7.9706,-1.0346,-6.4761,-0.2087,120.9043,-43.3391
2005,-7.9706,-1.0346,-6.2462,-0.1391,116.8,-40.0
2010,-7.9706,-1.073,-6.6294,-0.1391,111.7913,-38.3304
2015,-7.4341,-1.0346,-7.0126,0.2783,107.0609,-37.3565
2020,-7.4725,-1.1113,-7.0893,1.8783,104.0,-36.4522
2025,-7.4341,-1.1113,-7.3192,2.7826,102.1217,-35.8957
2030,-7.3192,-0.8047,-7.3575,2.0174,100.313,-35.3391
2035,-7.4341,-0.4982,-7.8173,-0.487,99.5478,-34.087
2040,-7.3958,-0.5748,-7.8557,-3.8261,98.713,-33.5304
2045,-7.2809,-0.6898,-7.2809,-6.0522,97.3913,-33.2522
2050,-7.4725,-0.843,-7.8173,-6.3304,94.6783,-32.4174
2055,-7.6641,-1.0346,-7.6641,-5.6348,90.6435,-32.0696
2060,-7.5874,-1.1113,-7.7024,-4.8696,86.5391,-32.4174
2065,-7.3958,-1.1496,-7.5108,-4.4522,82.7826,-32.0696
2070,-7.3958,-1.2646,-7.5491,-3.7565,78.6087,-30.6783
2075,-7.4725,-1.2263,-7.6641,-3.4783,74.3652,-29.5652
2080,-7.3192,-1.2646,-8.0089,-3.7565,70.1217,-29.0087
2085,-6.7061,-0.8814,-8.5071,-4.9391,67.1304,-28.0348
2090,-6.3612,-0.6131,-8.5838,-9.5304,66.2957,-26.2957
2095,-6.6294,-1.2263,-7.5108,-15.7913,66.0174,-25.2522
2100,-7.3958,-1.6095,-7.4341,-15.4435,59.687,-25.0435
2105,-7.5874,-1.8394,-7.4341,-10.087,50.9913,-24.9043
2110,-7.7407,-1.916,-7.5874,-4.3826,43.2,-23.5826
2115,-7.8557,-1.9927,-7.7024,0.1391,36.2435,-20.8
2120,-7.3958,-1.6861,-8.2772,5.0783,28.7304,-16.6957
2125,-7.2042,-1.3412,-8.2772,6.887,24.1391,-12.6609
2130,-7.1659,-1.1113,-8.0856,6.7478,20.2435,-9.6696
2135,-7.3575,-0.9197,-8.1239,5.9826,17.0435,-7.9304
2140,-7.3575,-0.843,-8.0856,4.9391,14.4696,-6.5391
2145,-7.1659,-0.7664,-8.0856,3.9652,12.1043,-5.2174
2150,-6.936,-0.8814,-7.7407,2.7826,10.3652,-4.5217
2155,-6.9743,-0.843,-8.0089,2.5043,9.113,-4.313
2160,-6.936,-1.1496,-7.779,2.1565,8.5565,-3.8957
2165,-7.0509,-1.2263,-8.0089,1.6696,8.4174,-3.4783
2170,-6.9743,-0.9963,-7.6257,1.113,8.3478,-2.5739
2175,-7.0126,-0.958,-7.8173,0.5565,7.5826,-1.8087
2180,-6.936,-0.9197,-7.7024,-0.2783,6.6783,-0.9043
2185,-6.936,-1.073,-7.894,-0.9043,5.7739,-0.3478
2190,-6.8977,-1.073,-7.779,-1.8783,4.5913,0.4174
2195,-6.8593,-0.958,-7.779,-2.713,2.9913,0.9043
2200,-6.7827,-1.073,-7.7024,-3.6174,1.3217,1.6
2205,-6.7444,-1.0346,-7.8173,-4.7304,-0.6261,2.0174
2210,-6.821,-0.9197,-7.7407,-5.7739,-2.5043,2.6435
2215,-6.7827,-0.8047,-7.5491,-6.9565,-4.9391,3.4087
2220,-6.7444,-0.8814,-7.8557,-8.2087,-6.9565,4.1739
2225,-6.7444,-0.958,-7.6257,-9.2522,-8.8348,4.6609
2230,-6.7827,-0.843,-7.6641,-10.0174,-10.713,5.5652
2235,-6.7061,-0.7664,-7.5108,-10.7826,-12.5217,6.1217
2240,-6.7827,-0.8047,-7.5108,-11.4783,-14.1913,7.0261
2245,-6.821,-0.6514,-7.6641,-12.0348,-15.5826,7.5826
2250,-6.8593,-0.6131,-7.4725,-12.6609,-16.8348,8.3478
2255,-6.936,-0.5748,-7.3192,-13.0783,-17.6696,8.6957
2260,-7.0126,-0.4982,-7.4341,-13.3565,-18.4348,9.113
2265,-7.0893,-0.5748,-7.2809,-13.4957,-18.9913,9.2522
2270,-7.0126,-0.5365,-7.1659,-13.6348,-19.3391,9.7391
2275,-6.9743,-0.4598,-7.2809,-13.7739,-19.5478,9.8087
2280,-7.0509,-0.4215,-7.0893,-13.913,-19.6174,10.1565
2285,-7.1659,-0.4215,-7.1276,-14.1217,-19.6174,10.2957
2290,-7.0893,-0.4982,-7.2042,-14.2609,-19.4783,10.713
2295,-7.0893,-0.3449,-7.0509,-14.5391,-19.2,10.7826
2300,-7.1659,-0.4982,-7.1276,-14.887,-18.9913,11.2696
2305,-7.3192,-0.4215,-6.9743,-14.9565,-18.4348,11.3391
2310,-7.2042,-0.4598,-7.1659,-15.2348,-18.087,11.7565
2315,-7.2809,-0.3449,-7.1276,-15.3043,-17.8087,11.8957
2320,-7.2809,-0.3832,-7.1276,-15.4435,-17.7391,12.4522
2325,-7.4341,-0.1916,-7.1276,-15.513,-17.7391,12.5913
2330,-7.4725,-0.2299,-7.2042,-15.7913,-18.0174,13.1478
2335,-7.4341,-0.4982,-7.2042,-16.0,-18.6435,13.3565
2340,-7.5108,-0.2299,-7.3575,-16.4174,-19.2,13.913
2345,-7.3958,-0.3066,-7.3575,-16.487,-19.9652,14.1913
2350,-7.4725,-0.1916,-7.2809,-16.4174,-21.0783,14.6783
2355,-7.6641,-0.1916,-7.2425,-16.2087,-22.3304,14.887
2360,-7.5491,-0.1533,-7.1276,-16.3478,-23.7217,15.6522
2365,-7.5108,-0.1533,-7.1276,-16.2783,-24.7652,16.2783
2370,-7.5491,-0.115,-7.0509,-16.1391,-25.8087,16.8348
2375,-7.6641,-0.0383,-7.0893,-15.8609,-26.713,16.9739
2380,-7.5491,0.0,-6.8977,-15.3739,-27.2,17.1826
2385,-7.4341,-0.0383,-6.6677,-14.7478,-27.4087,17.113
2390,-7.5874,-0.0766,-6.5911,-14.0522,-27.3391,17.2522
2395,-7.5874,-0.0766,-6.5528,-13.1478,-26.7826,16.6261
2400,-7.5874,0.0,-6.5911,-12.2435,-25.9478,16.2783
2405,-7.7024,0.1533,-6.4761,-11.2,-24.3478,15.4435
2410,-7.6641,0.0766,-6.4378,-10.1565,-22.1217,14.5391
2415,-7.7407,0.1916,-6.3995,-9.2522,-19.8261,13.2174
2420,-7.7024,0.1533,-6.3229,-8.4174,-16.9739,12.0348
2425,-7.7024,0.1916,-6.1696,-7.7913,-13.9826,10.4348
2430,-7.6257,0.2682,-6.2079,-6.9565,-11.0609,9.1826
2435,-7.7024,0.1916,-6.1696,-6.1913,-8.0,7.6522
2440,-7.5874,0.115,-6.1696,-5.6348,-5.1478,6.3304
2445,-7.7024,0.3066,-6.1696,-5.0087,-2.4348,4.8696
2450,-7.6641,0.1916,-6.2079,-4.3826,0.0696,3.8957
2455,-7.5491,0.1533,-6.1696,-3.7565,2.2957,2.4348
2460,-7.5491,0.2682,-6.3612,-2.9913,4.5913,1.6
2465,-7.6257,0.2682,-6.4761,-2.3652,6.2609,0.6957
2470,-7.5108,0.1533,-6.3229,-1.8087,7.7217,0.1391
2475,-7.5874,0.1916,-6.3995,-1.1826,9.0435,-0.487
2480,-7.5108,0.1533,-6.5911,-0.487,10.2957,-0.9043
2485,-7.4341,0.0,-6.3612,0.0,11.4087,-1.6696
2490,-7.5874,0.2299,-6.6294,0.6957,12.6609,-2.0174
2495,-7.5491,0.1916,-6.5911,1.113,13.7043,-2.5043
2500,-7.4341,0.0383,-6.6294,1.5304,14.7478,-2.7826
2505,-7.4725,0.0766,-6.6677,1.8783,15.9304,-3.2
2510,-7.4725,0.1916,-6.5911,2.2957,17.0435,-3.5478
2515,-7.4341,-0.115,-6.7061,2.5043,18.087,-4.1043
2520,-7.5108,0.0383,-6.6677,2.7826,19.2696,-4.1739
2525,-7.5491,0.0383,-6.6294,2.9913,20.313,-4.6609
2530,-7.5108,-0.1533,-6.7061,3.2,21.1478,-4.8696
2535,-7.4341,-0.1533,-6.7827,3.5478,22.4696,-5.3565
2540,-7.6257,0.115,-6.7827,3.6174,23.6522,-5.6348
2545,-7.4341,0.0766,-6.7827,3.5478,24.2783,-5.7739
2550,-7.4341,0.1916,-6.8593,3.8261,24.6957,-5.7739
2555,-7.3575,-0.115,-7.0126,4.2435,25.0435,-6.1913
2560,-7.5874,0.0,-7.0126,4.3826,25.5304,-6.4696
2565,-7.3958,-0.115,-7.0509,4.4522,26.0174,-6.6783
2570,-7.4725,-0.0766,-7.0509,4.7304,26.3652,-6.6087
2575,-7.3958,-0.1533,-6.936,4.7304,26.2957,-6.7478
2580,-7.4341,-0.0766,-7.0126,4.8696,26.2957,-6.6783
2585,-7.4341,-0.1533,-7.0126,4.9391,26.2261,-6.8174
2590,-7.3575,-0.0766,-7.2042,4.8696,26.087,-6.6087
2595,-7.4341,-0.1533,-7.1276,4.7304,25.8783,-6.8174
2600,-7.4341,-0.1533,-7.2042,4.8,25.5304,-6.6087
2605,-7.3192,-0.115,-7.2425,4.5913,24.7652,-6.5391
2610,-7.2809,-0.1533,-7.3575,4.4522,24.1391,-6.2609
2615,-7.3192,-0.1916,-7.2425,4.2435,23.2348,-6.0522
2620,-7.2809,-0.1533,-7.2425,4.2435,22.4,-5.8435
2625,-7.2042,-0.2682,-7.1276,3.9652,21.4261,-5.7739
2630,-7.2425,-0.2682,-7.3958,3.8261,20.3826,-5.4957
2635,-7.2425,-0.2299,-7.1276,3.687,19.3391,-5.4261
2640,-7.2042,-0.1916,-7.3192,3.6174,18.3652,-5.0783
2645,-7.2425,-0.115,-7.4341,3.4783,17.3217,-5.0087
2650,-7.1659,-0.3066,-7.2809,3.3391,16.0696,-4.6609
2655,-7.2809,-0.3066,-7.2425,2.9913,15.0261,-4.3826
2660,-7.2809,-0.1533,-7.2809,2.9217,13.9826,-4.1043
2665,-7.1659,-0.1916,-7.2425,2.5043,13.0087,-3.8261
2670,-7.2042,-0.2682,-7.2809,2.2957,12.1043,-3.4783
2675,-7.2042,-0.1533,-7.1659,1.9478,11.3391,-3.2696
2680,-7.2425,-0.1533,-7.2425,1.7391,10.5739,-2.8522
2685,-7.2809,-0.1916,-7.2425,1.3217,9.7391,-2.5739
2690,-7.2425,-0.2299,-7.2425,1.113,9.0435,-2.2261
2695,-7.2425,-0.2682,-7.1659,0.8348,8.3478,-1.9478
2700,-7.2042,-0.2299,-7.2425,0.4174,7.6522,-1.7391
2705,-7.1276,-0.1533,-7.3958,0.2087,6.9565,-1.5304
2710,-7.2425,-0.1916,-7.2809,-0.0696,6.4,-1.1826
2715,-7.2809,-0.1916,-7.2809,-0.4174,5.8435,-1.0435
2720,-7.1276,-0.1533,-7.3575,-0.6261,5.287,-0.8348
2725,-7.2425,-0.2682,-7.2042,-0.9739,4.7304,-0.7652
2730,-7.2425,-0.2299,-7.2809,-1.1826,4.2435,-0.487
2735,-7.2042,-0.115,-7.2425,-1.2522,3.687,-0.3478
2740,-7.2042,-0.1916,-7.2425,-1.4609,3.1304,-0.1391
2745,-7.0893,-0.3449,-7.2425,-1.6,2.4348,0.0
2750,-7.1659,-0.2682,-7.1659,-1.7391,1.9478,0.0696
2755,-7.2042,-0.1533,-7.1659,-1.9478,1.7391,0.3478
2760,-7.2042,-0.1533,-7.1276,-2.2261,1.3913,0.4174
2765,-7.2042,-0.1916,-7.3575,-2.3652,1.2522,0.6261
2770,-7.2425,-0.1533,-7.0893,-2.5739,1.113,0.8348
2775,-7.2425,-0.1533,-7.0126,-2.7826,0.8348,0.9739
2780,-7.2042,-0.1916,-7.2425,-2.7826,0.6957,1.0435
2785,-7.2042,-0.1916,-7.1659,-2.8522,0.6957,1.0435
2790,-7.2425,-0.1533,-7.2042,-2.9217,0.6957,1.1826
2795,-7.1659,-0.1533,-7.2042,-2.9913,0.8348,1.1826
2800,-7.2809,-0.1533,-7.1659,-2.9217,0.9043,1.1826
2805,-7.3192,-0.1533,-7.1276,-2.9913,1.0435,1.3217
2810,-7.1659,-0.1533,-7.1276,-3.0609,1.2522,1.2522
2815,-7.2042,-0.1533,-7.2042,-2.9913,1.3913,1.4609
2820,-7.2425,-0.1533,-7.0893,-3.0609,1.3913,1.4609
2825,-7.2809,-0.1533,-7.0509,-3.2,1.3913,1.6696
2830,-7.2425,-0.1533,-7.0126,-3.3391,1.3913,1.8087
2835,-7.2425,-0.2299,-7.0509,-3.5478,1.3913,1.8783
2840,-7.2809,-0.115,-7.0509,-3.687,1.3217,2.0174
2845,-7.2425,-0.115,-7.0893,-3.7565,1.4609,2.1565
2850,-7.2809,-0.1533,-7.0893,-3.687,1.6696,2.087
2855,-7.2809,-0.115,-7.0509,-3.687,2.0174,1.9478
2860,-7.3575,-0.115,-7.0126,-3.5478,2.4348,1.7391
2865,-7.3575,-0.1533,-7.0509,-3.3391,2.8522,1.6696
2870,-7.3192,-0.0766,-6.936,-3.1304,3.3391,1.4609
2875,-7.3192,-0.1533,-7.1659,-2.9217,3.687,1.3913
2880,-7.3192,-0.0766,-7.1276,-2.713,4.0348,1.1826
2885,-7.3192,-0.1533,-7.1276,-2.713,4.2435,1.0435
2890,-7.2809,-0.1533,-7.0893,-2.5043,4.5913,0.9043
2895,-7.2042,-0.1533,-7.0893,-2.3652,4.8,0.9739
2900,-7.4341,-0.0766,-6.936,-2.4348,5.0783,0.7652
2905,-7.1659,-0.1533,-7.0893,-2.2261,5.287,0.8348
2910,-7.1276,-0.1533,-7.0126,-2.087,5.3565,0.5565
2915,-7.2042,-0.115,-7.1276,-1.9478,5.6348,0.487
2920,-7.2809,-0.115,-7.0893,-1.8087,5.7043,0.2783
2925,-7.3192,-0.115,-7.1659,-1.6,5.7043,0.1391
2930,-7.3958,-0.115,-7.0893,-1.3913,5.913,-0.0696
2935,-7.3575,-0.0766,-7.1659,-1.2522,5.7739,-0.1391
2940,-7.2042,-0.0383,-7.0126,-1.0435,5.7739,-0.2783
2945,-7.3575,-0.115,-7.1276,-0.9739,5.6348,-0.2783
2950,-7.2425,-0.0766,-7.2042,-0.6957,5.4957,-0.487
2955,-7.3192,-0.115,-7.0893,-0.6261,5.4957,-0.487
2960,-7.2425,0.0,-7.1276,-0.487,5.2174,-0.6957
2965,-7.3192,-0.115,-7.2425,-0.487,5.287,-0.6957
2970,-7.2042,-0.115,-7.1659,-0.2783,5.2174,-0.7652
2975,-7.3192,-0.0766,-7.1276,-0.3478,5.1478,-0.6957
2980,-7.3192,-0.115,-7.0893,-0.2087,5.2174,-0.8348
2985,-7.2425,-0.115,-7.0509,-0.2087,5.2174,-0.7652
2990,-7.2809,-0.1533,-7.0893,-0.0696,5.287,-0.9043
2995,-7.2809,-0.0766,-7.1276,0.0,5.4261,-0.8348
